,subjID,experimentName,versionName,sequenceName,url,selected_row,windowWidth,windowHeight,screenWidth,screenHeight,startDate,startTime,trial,stimulus,duration,scale,actual_depth,depth_estimate,trial_RT,log_sceneDuration,unitSelection,seq_filepath,experimentTime,totalTime,age,gender
0,110972,final-intermixed-textured,v2,jsons/MX_seq33_2_VE1000.json,http://54.235.29.9/FacialAge/BNav_EC2/DepthDuration/MX_fS_VE_MTurk/MX_fS_HTML.html#175,175,1280,632,1280,720,1-8-2024,21-46-26,1,VR_target_stimuli/s36_1x_4.1_423_BC.png,1000,1x,4.1,3.0,8881,999,meters,jsons/MX_seq33_2_VE1000.json,385961,742273,30,Woman
1,110972,final-intermixed-textured,v2,jsons/MX_seq33_2_VE1000.json,http://54.235.29.9/FacialAge/BNav_EC2/DepthDuration/MX_fS_VE_MTurk/MX_fS_HTML.html#175,175,1280,632,1280,720,1-8-2024,21-46-26,2,VR_target_stimuli/s40_1.3x_1.2_332.png,1000,1.3x,1.2,1.0,6772,998,meters,jsons/MX_seq33_2_VE1000.json,385961,742273,30,Woman
2,110972,final-intermixed-textured,v2,jsons/MX_seq33_2_VE1000.json,http://54.235.29.9/FacialAge/BNav_EC2/DepthDuration/MX_fS_VE_MTurk/MX_fS_HTML.html#175,175,1280,632,1280,720,1-8-2024,21-46-26,3,VR_target_stimuli/s41_0.75x_2.1_281.png,1000,0.75x,2.1,0.5,26468,999,meters,jsons/MX_seq33_2_VE1000.json,385961,742273,30,Woman
3,110972,final-intermixed-textured,v2,jsons/MX_seq33_2_VE1000.json,http://54.235.29.9/FacialAge/BNav_EC2/DepthDuration/MX_fS_VE_MTurk/MX_fS_HTML.html#175,175,1280,632,1280,720,1-8-2024,21-46-26,4,VR_target_stimuli/s45_1.3x_3.5_377_BC.png,1000,1.3x,3.5,4.0,11804,1000,meters,jsons/MX_seq33_2_VE1000.json,385961,742273,30,Woman
4,110972,final-intermixed-textured,v2,jsons/MX_seq33_2_VE1000.json,http://54.235.29.9/FacialAge/BNav_EC2/DepthDuration/MX_fS_VE_MTurk/MX_fS_HTML.html#175,175,1280,632,1280,720,1-8-2024,21-46-26,5,VR_target_stimuli/s23_1x_3.65_353.png,1000,1x,3.65,5.0,5604,999,meters,jsons/MX_seq33_2_VE1000.json,385961,742273,30,Woman
5,110972,final-intermixed-textured,v2,jsons/MX_seq33_2_VE1000.json,http://54.235.29.9/FacialAge/BNav_EC2/DepthDuration/MX_fS_VE_MTurk/MX_fS_HTML.html#175,175,1280,632,1280,720,1-8-2024,21-46-26,6,VR_target_stimuli/s26_0.75x_4_430_BC.png,1000,0.75x,4.0,9.0,6120,999,meters,jsons/MX_seq33_2_VE1000.json,385961,742273,30,Woman
6,110972,final-intermixed-textured,v2,jsons/MX_seq33_2_VE1000.json,http://54.235.29.9/FacialAge/BNav_EC2/DepthDuration/MX_fS_VE_MTurk/MX_fS_HTML.html#175,175,1280,632,1280,720,1-8-2024,21-46-26,7,catch_stimuli/c0.png,1000,,,0.0,5321,999,meters,jsons/MX_seq33_2_VE1000.json,385961,742273,30,Woman
7,110972,final-intermixed-textured,v2,jsons/MX_seq33_2_VE1000.json,http://54.235.29.9/FacialAge/BNav_EC2/DepthDuration/MX_fS_VE_MTurk/MX_fS_HTML.html#175,175,1280,632,1280,720,1-8-2024,21-46-26,8,VR_target_stimuli/s12_0.75x_3.1_364_BC.png,1000,0.75x,3.1,5.0,5125,1000,meters,jsons/MX_seq33_2_VE1000.json,385961,742273,30,Woman
8,110972,final-intermixed-textured,v2,jsons/MX_seq33_2_VE1000.json,http://54.235.29.9/FacialAge/BNav_EC2/DepthDuration/MX_fS_VE_MTurk/MX_fS_HTML.html#175,175,1280,632,1280,720,1-8-2024,21-46-26,9,VR_target_stimuli/s30_1.3x_2.3_337_BC.png,1000,1.3x,2.3,5.0,5734,999,meters,jsons/MX_seq33_2_VE1000.json,385961,742273,30,Woman
9,110972,final-intermixed-textured,v2,jsons/MX_seq33_2_VE1000.json,http://54.235.29.9/FacialAge/BNav_EC2/DepthDuration/MX_fS_VE_MTurk/MX_fS_HTML.html#175,175,1280,632,1280,720,1-8-2024,21-46-26,10,VR_target_stimuli/s16_1x_1_219.png,1000,1x,1.0,0.2,6637,1000,meters,jsons/MX_seq33_2_VE1000.json,385961,742273,30,Woman
10,110972,final-intermixed-textured,v2,jsons/MX_seq33_2_VE1000.json,http://54.235.29.9/FacialAge/BNav_EC2/DepthDuration/MX_fS_VE_MTurk/MX_fS_HTML.html#175,175,1280,632,1280,720,1-8-2024,21-46-26,11,VR_target_stimuli/s17_1.3x_1.8_300.png,1000,1.3x,1.8,2.0,5208,998,meters,jsons/MX_seq33_2_VE1000.json,385961,742273,30,Woman
11,110972,final-intermixed-textured,v2,jsons/MX_seq33_2_VE1000.json,http://54.235.29.9/FacialAge/BNav_EC2/DepthDuration/MX_fS_VE_MTurk/MX_fS_HTML.html#175,175,1280,632,1280,720,1-8-2024,21-46-26,12,VR_target_stimuli/s5_0.75x_4_375.png,1000,0.75x,4.0,8.0,5279,998,meters,jsons/MX_seq33_2_VE1000.json,385961,742273,30,Woman
12,110972,final-intermixed-textured,v2,jsons/MX_seq33_2_VE1000.json,http://54.235.29.9/FacialAge/BNav_EC2/DepthDuration/MX_fS_VE_MTurk/MX_fS_HTML.html#175,175,1280,632,1280,720,1-8-2024,21-46-26,13,VR_target_stimuli/s37_1x_3.3_563_BC.png,1000,1x,3.3,4.0,5299,999,meters,jsons/MX_seq33_2_VE1000.json,385961,742273,30,Woman
13,110972,final-intermixed-textured,v2,jsons/MX_seq33_2_VE1000.json,http://54.235.29.9/FacialAge/BNav_EC2/DepthDuration/MX_fS_VE_MTurk/MX_fS_HTML.html#175,175,1280,632,1280,720,1-8-2024,21-46-26,14,VR_target_stimuli/s46_0.75x_2.42_343_BC.png,1000,0.75x,2.42,7.0,4955,999,meters,jsons/MX_seq33_2_VE1000.json,385961,742273,30,Woman
14,110972,final-intermixed-textured,v2,jsons/MX_seq33_2_VE1000.json,http://54.235.29.9/FacialAge/BNav_EC2/DepthDuration/MX_fS_VE_MTurk/MX_fS_HTML.html#175,175,1280,632,1280,720,1-8-2024,21-46-26,15,VR_target_stimuli/s22_1.3x_4.29_364.png,1000,1.3x,4.29,10.0,5979,998,meters,jsons/MX_seq33_2_VE1000.json,385961,742273,30,Woman
15,110972,final-intermixed-textured,v2,jsons/MX_seq33_2_VE1000.json,http://54.235.29.9/FacialAge/BNav_EC2/DepthDuration/MX_fS_VE_MTurk/MX_fS_HTML.html#175,175,1280,632,1280,720,1-8-2024,21-46-26,16,VR_target_stimuli/s42_1x_3.2_303_BC.png,1000,1x,3.2,7.0,4716,1000,meters,jsons/MX_seq33_2_VE1000.json,385961,742273,30,Woman
16,110972,final-intermixed-textured,v2,jsons/MX_seq33_2_VE1000.json,http://54.235.29.9/FacialAge/BNav_EC2/DepthDuration/MX_fS_VE_MTurk/MX_fS_HTML.html#175,175,1280,632,1280,720,1-8-2024,21-46-26,17,catch_stimuli/c1.png,1000,,,0.0,5216,997,meters,jsons/MX_seq33_2_VE1000.json,385961,742273,30,Woman
17,110972,final-intermixed-textured,v2,jsons/MX_seq33_2_VE1000.json,http://54.235.29.9/FacialAge/BNav_EC2/DepthDuration/MX_fS_VE_MTurk/MX_fS_HTML.html#175,175,1280,632,1280,720,1-8-2024,21-46-26,18,VR_target_stimuli/s25_1x_1.4_290.png,1000,1x,1.4,2.0,7820,1000,meters,jsons/MX_seq33_2_VE1000.json,385961,742273,30,Woman
18,110972,final-intermixed-textured,v2,jsons/MX_seq33_2_VE1000.json,http://54.235.29.9/FacialAge/BNav_EC2/DepthDuration/MX_fS_VE_MTurk/MX_fS_HTML.html#175,175,1280,632,1280,720,1-8-2024,21-46-26,19,VR_target_stimuli/s50_0.75x_4.53_517.png,1000,0.75x,4.53,4.0,5992,1000,meters,jsons/MX_seq33_2_VE1000.json,385961,742273,30,Woman
19,110972,final-intermixed-textured,v2,jsons/MX_seq33_2_VE1000.json,http://54.235.29.9/FacialAge/BNav_EC2/DepthDuration/MX_fS_VE_MTurk/MX_fS_HTML.html#175,175,1280,632,1280,720,1-8-2024,21-46-26,20,VR_target_stimuli/s53_1.3x_1.6_355_BC.png,1000,1.3x,1.6,1.0,5111,999,meters,jsons/MX_seq33_2_VE1000.json,385961,742273,30,Woman
20,110972,final-intermixed-textured,v2,jsons/MX_seq33_2_VE1000.json,http://54.235.29.9/FacialAge/BNav_EC2/DepthDuration/MX_fS_VE_MTurk/MX_fS_HTML.html#175,175,1280,632,1280,720,1-8-2024,21-46-26,21,VR_target_stimuli/s38_0.75x_3.55_346_BC.png,1000,0.75x,3.55,6.0,4969,1000,meters,jsons/MX_seq33_2_VE1000.json,385961,742273,30,Woman
21,110972,final-intermixed-textured,v2,jsons/MX_seq33_2_VE1000.json,http://54.235.29.9/FacialAge/BNav_EC2/DepthDuration/MX_fS_VE_MTurk/MX_fS_HTML.html#175,175,1280,632,1280,720,1-8-2024,21-46-26,22,VR_target_stimuli/s9_1x_1.2_263.png,1000,1x,1.2,2.0,4765,998,meters,jsons/MX_seq33_2_VE1000.json,385961,742273,30,Woman
22,110972,final-intermixed-textured,v2,jsons/MX_seq33_2_VE1000.json,http://54.235.29.9/FacialAge/BNav_EC2/DepthDuration/MX_fS_VE_MTurk/MX_fS_HTML.html#175,175,1280,632,1280,720,1-8-2024,21-46-26,23,VR_target_stimuli/s44_1.3x_4.4_325.png,1000,1.3x,4.4,5.0,6227,997,meters,jsons/MX_seq33_2_VE1000.json,385961,742273,30,Woman
23,110972,final-intermixed-textured,v2,jsons/MX_seq33_2_VE1000.json,http://54.235.29.9/FacialAge/BNav_EC2/DepthDuration/MX_fS_VE_MTurk/MX_fS_HTML.html#175,175,1280,632,1280,720,1-8-2024,21-46-26,24,VR_target_stimuli/s3_1x_5_385_BC.png,1000,1x,5.0,10.0,7305,999,meters,jsons/MX_seq33_2_VE1000.json,385961,742273,30,Woman
24,110972,final-intermixed-textured,v2,jsons/MX_seq33_2_VE1000.json,http://54.235.29.9/FacialAge/BNav_EC2/DepthDuration/MX_fS_VE_MTurk/MX_fS_HTML.html#175,175,1280,632,1280,720,1-8-2024,21-46-26,25,VR_target_stimuli/s1_0.75x_1.7_265.png,1000,0.75x,1.7,3.0,4530,1000,meters,jsons/MX_seq33_2_VE1000.json,385961,742273,30,Woman
25,110972,final-intermixed-textured,v2,jsons/MX_seq33_2_VE1000.json,http://54.235.29.9/FacialAge/BNav_EC2/DepthDuration/MX_fS_VE_MTurk/MX_fS_HTML.html#175,175,1280,632,1280,720,1-8-2024,21-46-26,26,catch_stimuli/c2.png,1000,,,0.0,5070,999,meters,jsons/MX_seq33_2_VE1000.json,385961,742273,30,Woman
26,110972,final-intermixed-textured,v2,jsons/MX_seq33_2_VE1000.json,http://54.235.29.9/FacialAge/BNav_EC2/DepthDuration/MX_fS_VE_MTurk/MX_fS_HTML.html#175,175,1280,632,1280,720,1-8-2024,21-46-26,27,VR_target_stimuli/s11_1.3x_5_363_BC.png,1000,1.3x,5.0,7.0,5011,999,meters,jsons/MX_seq33_2_VE1000.json,385961,742273,30,Woman
27,110972,final-intermixed-textured,v2,jsons/MX_seq33_2_VE1000.json,http://54.235.29.9/FacialAge/BNav_EC2/DepthDuration/MX_fS_VE_MTurk/MX_fS_HTML.html#175,175,1280,632,1280,720,1-8-2024,21-46-26,28,VR_target_stimuli/s2_1.3x_2.7_397.png,1000,1.3x,2.7,5.0,5577,999,meters,jsons/MX_seq33_2_VE1000.json,385961,742273,30,Woman
28,110972,final-intermixed-textured,v2,jsons/MX_seq33_2_VE1000.json,http://54.235.29.9/FacialAge/BNav_EC2/DepthDuration/MX_fS_VE_MTurk/MX_fS_HTML.html#175,175,1280,632,1280,720,1-8-2024,21-46-26,29,VR_target_stimuli/s6_1x_2.1_293_BC.png,1000,1x,2.1,4.0,5973,999,meters,jsons/MX_seq33_2_VE1000.json,385961,742273,30,Woman
29,110972,final-intermixed-textured,v2,jsons/MX_seq33_2_VE1000.json,http://54.235.29.9/FacialAge/BNav_EC2/DepthDuration/MX_fS_VE_MTurk/MX_fS_HTML.html#175,175,1280,632,1280,720,1-8-2024,21-46-26,30,VR_target_stimuli/s0_0.75x_2.6_345_BC.png,1000,0.75x,2.6,5.0,4893,998,meters,jsons/MX_seq33_2_VE1000.json,385961,742273,30,Woman
30,110972,final-intermixed-textured,v2,jsons/MX_seq33_2_VE1000.json,http://54.235.29.9/FacialAge/BNav_EC2/DepthDuration/MX_fS_VE_MTurk/MX_fS_HTML.html#175,175,1280,632,1280,720,1-8-2024,21-46-26,31,VR_target_stimuli/s34_1.3x_2.8_294_BC.png,1000,1.3x,2.8,3.0,5445,1000,meters,jsons/MX_seq33_2_VE1000.json,385961,742273,30,Woman
31,110972,final-intermixed-textured,v2,jsons/MX_seq33_2_VE1000.json,http://54.235.29.9/FacialAge/BNav_EC2/DepthDuration/MX_fS_VE_MTurk/MX_fS_HTML.html#175,175,1280,632,1280,720,1-8-2024,21-46-26,32,VR_target_stimuli/s13_0.75x_2.4_308.png,1000,0.75x,2.4,6.0,4705,999,meters,jsons/MX_seq33_2_VE1000.json,385961,742273,30,Woman
32,110972,final-intermixed-textured,v2,jsons/MX_seq33_2_VE1000.json,http://54.235.29.9/FacialAge/BNav_EC2/DepthDuration/MX_fS_VE_MTurk/MX_fS_HTML.html#175,175,1280,632,1280,720,1-8-2024,21-46-26,33,VR_target_stimuli/s14_1x_ 3.83_357.png,1000,1x,3.83,8.0,4460,998,meters,jsons/MX_seq33_2_VE1000.json,385961,742273,30,Woman
33,110972,final-intermixed-textured,v2,jsons/MX_seq33_2_VE1000.json,http://54.235.29.9/FacialAge/BNav_EC2/DepthDuration/MX_fS_VE_MTurk/MX_fS_HTML.html#175,175,1280,632,1280,720,1-8-2024,21-46-26,34,catch_stimuli/c3.png,1000,,,0.0,4515,999,meters,jsons/MX_seq33_2_VE1000.json,385961,742273,30,Woman
34,110972,final-intermixed-textured,v2,jsons/MX_seq33_2_VE1000.json,http://54.235.29.9/FacialAge/BNav_EC2/DepthDuration/MX_fS_VE_MTurk/MX_fS_HTML.html#175,175,1280,632,1280,720,1-8-2024,21-46-26,35,VR_target_stimuli/s47_0.75x_3.45_366_BC.png,1000,0.75x,3.45,4.0,7776,1000,meters,jsons/MX_seq33_2_VE1000.json,385961,742273,30,Woman
35,110972,final-intermixed-textured,v2,jsons/MX_seq33_2_VE1000.json,http://54.235.29.9/FacialAge/BNav_EC2/DepthDuration/MX_fS_VE_MTurk/MX_fS_HTML.html#175,175,1280,632,1280,720,1-8-2024,21-46-26,36,VR_target_stimuli/s29_1.3x_1.3_253.png,1000,1.3x,1.3,2.0,4964,999,meters,jsons/MX_seq33_2_VE1000.json,385961,742273,30,Woman
36,110972,final-intermixed-textured,v2,jsons/MX_seq33_2_VE1000.json,http://54.235.29.9/FacialAge/BNav_EC2/DepthDuration/MX_fS_VE_MTurk/MX_fS_HTML.html#175,175,1280,632,1280,720,1-8-2024,21-46-26,37,VR_target_stimuli/s28_1x_3.2_362.png,1000,1x,3.2,6.0,5909,1000,meters,jsons/MX_seq33_2_VE1000.json,385961,742273,30,Woman
37,110972,final-intermixed-textured,v2,jsons/MX_seq33_2_VE1000.json,http://54.235.29.9/FacialAge/BNav_EC2/DepthDuration/MX_fS_VE_MTurk/MX_fS_HTML.html#175,175,1280,632,1280,720,1-8-2024,21-46-26,38,VR_target_stimuli/s48_1x_2.55_256_BC.png,1000,1x,2.55,3.0,5111,1000,meters,jsons/MX_seq33_2_VE1000.json,385961,742273,30,Woman
38,110972,final-intermixed-textured,v2,jsons/MX_seq33_2_VE1000.json,http://54.235.29.9/FacialAge/BNav_EC2/DepthDuration/MX_fS_VE_MTurk/MX_fS_HTML.html#175,175,1280,632,1280,720,1-8-2024,21-46-26,39,VR_target_stimuli/s19_0.75x_1.21_257.png,1000,0.75x,1.21,1.0,4868,999,meters,jsons/MX_seq33_2_VE1000.json,385961,742273,30,Woman
39,110972,final-intermixed-textured,v2,jsons/MX_seq33_2_VE1000.json,http://54.235.29.9/FacialAge/BNav_EC2/DepthDuration/MX_fS_VE_MTurk/MX_fS_HTML.html#175,175,1280,632,1280,720,1-8-2024,21-46-26,40,VR_target_stimuli/s21_1.3x_4.22_384_BC.png,1000,1.3x,4.22,5.0,4901,1000,meters,jsons/MX_seq33_2_VE1000.json,385961,742273,30,Woman
40,110972,final-intermixed-textured,v2,jsons/MX_seq33_2_VE1000.json,http://54.235.29.9/FacialAge/BNav_EC2/DepthDuration/MX_fS_VE_MTurk/MX_fS_HTML.html#175,175,1280,632,1280,720,1-8-2024,21-46-26,41,VR_target_stimuli/s8_0.75x_3.1_325.png,1000,0.75x,3.1,7.0,5131,1000,meters,jsons/MX_seq33_2_VE1000.json,385961,742273,30,Woman
41,110972,final-intermixed-textured,v2,jsons/MX_seq33_2_VE1000.json,http://54.235.29.9/FacialAge/BNav_EC2/DepthDuration/MX_fS_VE_MTurk/MX_fS_HTML.html#175,175,1280,632,1280,720,1-8-2024,21-46-26,42,VR_target_stimuli/s27_1x_1.76_248_BC.png,1000,1x,1.76,3.0,4521,998,meters,jsons/MX_seq33_2_VE1000.json,385961,742273,30,Woman
42,110972,final-intermixed-textured,v2,jsons/MX_seq33_2_VE1000.json,http://54.235.29.9/FacialAge/BNav_EC2/DepthDuration/MX_fS_VE_MTurk/MX_fS_HTML.html#175,175,1280,632,1280,720,1-8-2024,21-46-26,43,VR_target_stimuli/s15_1.3x_4.2_389.png,1000,1.3x,4.2,9.0,4899,999,meters,jsons/MX_seq33_2_VE1000.json,385961,742273,30,Woman
43,110972,final-intermixed-textured,v2,jsons/MX_seq33_2_VE1000.json,http://54.235.29.9/FacialAge/BNav_EC2/DepthDuration/MX_fS_VE_MTurk/MX_fS_HTML.html#175,175,1280,632,1280,720,1-8-2024,21-46-26,44,VR_target_stimuli/s4_1x_1.4_313.png,1000,1x,1.4,2.0,4750,999,meters,jsons/MX_seq33_2_VE1000.json,385961,742273,30,Woman
44,110972,final-intermixed-textured,v2,jsons/MX_seq33_2_VE1000.json,http://54.235.29.9/FacialAge/BNav_EC2/DepthDuration/MX_fS_VE_MTurk/MX_fS_HTML.html#175,175,1280,632,1280,720,1-8-2024,21-46-26,45,catch_stimuli/c4.png,1000,,,0.0,4504,999,meters,jsons/MX_seq33_2_VE1000.json,385961,742273,30,Woman
45,110972,final-intermixed-textured,v2,jsons/MX_seq33_2_VE1000.json,http://54.235.29.9/FacialAge/BNav_EC2/DepthDuration/MX_fS_VE_MTurk/MX_fS_HTML.html#175,175,1280,632,1280,720,1-8-2024,21-46-26,46,VR_target_stimuli/s35_0.75x_2_323_BC.png,1000,0.75x,2.0,3.0,4580,999,meters,jsons/MX_seq33_2_VE1000.json,385961,742273,30,Woman
46,110972,final-intermixed-textured,v2,jsons/MX_seq33_2_VE1000.json,http://54.235.29.9/FacialAge/BNav_EC2/DepthDuration/MX_fS_VE_MTurk/MX_fS_HTML.html#175,175,1280,632,1280,720,1-8-2024,21-46-26,47,VR_target_stimuli/s49_1.3x_4.67_354_BC.png,1000,1.3x,4.67,7.0,4832,1000,meters,jsons/MX_seq33_2_VE1000.json,385961,742273,30,Woman
47,110972,final-intermixed-textured,v2,jsons/MX_seq33_2_VE1000.json,http://54.235.29.9/FacialAge/BNav_EC2/DepthDuration/MX_fS_VE_MTurk/MX_fS_HTML.html#175,175,1280,632,1280,720,1-8-2024,21-46-26,48,VR_target_stimuli/s7_1.3x_1.5_256.png,1000,1.3x,1.5,2.0,5839,999,meters,jsons/MX_seq33_2_VE1000.json,385961,742273,30,Woman
48,110972,final-intermixed-textured,v2,jsons/MX_seq33_2_VE1000.json,http://54.235.29.9/FacialAge/BNav_EC2/DepthDuration/MX_fS_VE_MTurk/MX_fS_HTML.html#175,175,1280,632,1280,720,1-8-2024,21-46-26,49,VR_target_stimuli/s20_1x_4.99_398_BC.png,1000,1x,4.99,13.0,5522,999,meters,jsons/MX_seq33_2_VE1000.json,385961,742273,30,Woman
49,110972,final-intermixed-textured,v2,jsons/MX_seq33_2_VE1000.json,http://54.235.29.9/FacialAge/BNav_EC2/DepthDuration/MX_fS_VE_MTurk/MX_fS_HTML.html#175,175,1280,632,1280,720,1-8-2024,21-46-26,50,VR_target_stimuli/s31_0.75x_4.96_329.png,1000,0.75x,4.96,7.0,6190,1000,meters,jsons/MX_seq33_2_VE1000.json,385961,742273,30,Woman
50,110972,final-intermixed-textured,v2,jsons/MX_seq33_2_VE1000.json,http://54.235.29.9/FacialAge/BNav_EC2/DepthDuration/MX_fS_VE_MTurk/MX_fS_HTML.html#175,175,1280,632,1280,720,1-8-2024,21-46-26,51,VR_target_stimuli/s33_1x_3.1_366.png,1000,1x,3.1,5.0,6080,1000,meters,jsons/MX_seq33_2_VE1000.json,385961,742273,30,Woman
51,110972,final-intermixed-textured,v2,jsons/MX_seq33_2_VE1000.json,http://54.235.29.9/FacialAge/BNav_EC2/DepthDuration/MX_fS_VE_MTurk/MX_fS_HTML.html#175,175,1280,632,1280,720,1-8-2024,21-46-26,52,VR_target_stimuli/s52_1.3x_3.2_280_BC.png,1000,1.3x,3.2,4.0,5194,999,meters,jsons/MX_seq33_2_VE1000.json,385961,742273,30,Woman
52,110972,final-intermixed-textured,v2,jsons/MX_seq33_2_VE1000.json,http://54.235.29.9/FacialAge/BNav_EC2/DepthDuration/MX_fS_VE_MTurk/MX_fS_HTML.html#175,175,1280,632,1280,720,1-8-2024,21-46-26,53,catch_stimuli/c5.png,1000,,,0.0,4757,1000,meters,jsons/MX_seq33_2_VE1000.json,385961,742273,30,Woman
53,110972,final-intermixed-textured,v2,jsons/MX_seq33_2_VE1000.json,http://54.235.29.9/FacialAge/BNav_EC2/DepthDuration/MX_fS_VE_MTurk/MX_fS_HTML.html#175,175,1280,632,1280,720,1-8-2024,21-46-26,54,VR_target_stimuli/s32_0.75x_1.5_213_BC.png,1000,0.75x,1.5,3.0,4652,999,meters,jsons/MX_seq33_2_VE1000.json,385961,742273,30,Woman
54,110972,final-intermixed-textured,v2,jsons/MX_seq33_2_VE1000.json,http://54.235.29.9/FacialAge/BNav_EC2/DepthDuration/MX_fS_VE_MTurk/MX_fS_HTML.html#175,175,1280,632,1280,720,1-8-2024,21-46-26,55,VR_target_stimuli/s18_1.3x_2.25_368_BC.png,1000,1.3x,2.25,5.0,5679,1001,meters,jsons/MX_seq33_2_VE1000.json,385961,742273,30,Woman
55,110972,final-intermixed-textured,v2,jsons/MX_seq33_2_VE1000.json,http://54.235.29.9/FacialAge/BNav_EC2/DepthDuration/MX_fS_VE_MTurk/MX_fS_HTML.html#175,175,1280,632,1280,720,1-8-2024,21-46-26,56,VR_target_stimuli/s39_1x_1_207_BC.png,1000,1x,1.0,2.0,5894,1001,meters,jsons/MX_seq33_2_VE1000.json,385961,742273,30,Woman
56,110972,final-intermixed-textured,v2,jsons/MX_seq33_2_VE1000.json,http://54.235.29.9/FacialAge/BNav_EC2/DepthDuration/MX_fS_VE_MTurk/MX_fS_HTML.html#175,175,1280,632,1280,720,1-8-2024,21-46-26,57,VR_target_stimuli/s51_0.75x_3.64_460_BC.png,1000,0.75x,3.64,4.0,5100,999,meters,jsons/MX_seq33_2_VE1000.json,385961,742273,30,Woman
57,110972,final-intermixed-textured,v2,jsons/MX_seq33_2_VE1000.json,http://54.235.29.9/FacialAge/BNav_EC2/DepthDuration/MX_fS_VE_MTurk/MX_fS_HTML.html#175,175,1280,632,1280,720,1-8-2024,21-46-26,58,VR_target_stimuli/s43_0.75x_2.2_348.png,1000,0.75x,2.2,3.0,5764,999,meters,jsons/MX_seq33_2_VE1000.json,385961,742273,30,Woman
58,110972,final-intermixed-textured,v2,jsons/MX_seq33_2_VE1000.json,http://54.235.29.9/FacialAge/BNav_EC2/DepthDuration/MX_fS_VE_MTurk/MX_fS_HTML.html#175,175,1280,632,1280,720,1-8-2024,21-46-26,59,VR_target_stimuli/s24_1.3x_3.3_352.png,1000,1.3x,3.3,7.0,5686,1000,meters,jsons/MX_seq33_2_VE1000.json,385961,742273,30,Woman
59,110972,final-intermixed-textured,v2,jsons/MX_seq33_2_VE1000.json,http://54.235.29.9/FacialAge/BNav_EC2/DepthDuration/MX_fS_VE_MTurk/MX_fS_HTML.html#175,175,1280,632,1280,720,1-8-2024,21-46-26,60,VR_target_stimuli/s10_1x_2.7_324.png,1000,1x,2.7,5.0,5250,999,meters,jsons/MX_seq33_2_VE1000.json,385961,742273,30,Woman
