,subjID,experimentName,versionName,sequenceName,url,selected_row,windowWidth,windowHeight,screenWidth,screenHeight,startDate,startTime,trial,stimulus,duration,scale,actual_depth,depth_estimate,trial_RT,log_sceneDuration,unitSelection,seq_filepath,experimentTime,totalTime,age,gender
0,127060,final-intermixed-textured,v2,jsons/MX_seq6_2_VE1000.json,http://54.235.29.9/FacialAge/BNav_EC2/DepthDuration/MX_fS_VE_MTurk/MX_fS_HTML.html#12,12,1536,864,1536,864,1-8-2024,13-31-34,1,VR_target_stimuli/s34_1x_2.8_283_BC.png,1000,1x,2.8,4.0,5039,1011,meters,jsons/MX_seq6_2_VE1000.json,361203,778478,33,Woman
1,127060,final-intermixed-textured,v2,jsons/MX_seq6_2_VE1000.json,http://54.235.29.9/FacialAge/BNav_EC2/DepthDuration/MX_fS_VE_MTurk/MX_fS_HTML.html#12,12,1536,864,1536,864,1-8-2024,13-31-34,2,VR_target_stimuli/s13_1.3x_2.4_313.png,1000,1.3x,2.4,3.0,4460,1001,meters,jsons/MX_seq6_2_VE1000.json,361203,778478,33,Woman
2,127060,final-intermixed-textured,v2,jsons/MX_seq6_2_VE1000.json,http://54.235.29.9/FacialAge/BNav_EC2/DepthDuration/MX_fS_VE_MTurk/MX_fS_HTML.html#12,12,1536,864,1536,864,1-8-2024,13-31-34,3,VR_target_stimuli/s14_0.75x_3.83_355_BC.png,1000,0.75x,3.83,5.0,5479,998,meters,jsons/MX_seq6_2_VE1000.json,361203,778478,33,Woman
3,127060,final-intermixed-textured,v2,jsons/MX_seq6_2_VE1000.json,http://54.235.29.9/FacialAge/BNav_EC2/DepthDuration/MX_fS_VE_MTurk/MX_fS_HTML.html#12,12,1536,864,1536,864,1-8-2024,13-31-34,4,VR_target_stimuli/s47_1.3x_3.45_373_BC.png,1000,1.3x,3.45,5.0,4220,1010,meters,jsons/MX_seq6_2_VE1000.json,361203,778478,33,Woman
4,127060,final-intermixed-textured,v2,jsons/MX_seq6_2_VE1000.json,http://54.235.29.9/FacialAge/BNav_EC2/DepthDuration/MX_fS_VE_MTurk/MX_fS_HTML.html#12,12,1536,864,1536,864,1-8-2024,13-31-34,5,VR_target_stimuli/s29_1x_1.3_250.png,1000,1x,1.3,3.0,4011,1000,meters,jsons/MX_seq6_2_VE1000.json,361203,778478,33,Woman
5,127060,final-intermixed-textured,v2,jsons/MX_seq6_2_VE1000.json,http://54.235.29.9/FacialAge/BNav_EC2/DepthDuration/MX_fS_VE_MTurk/MX_fS_HTML.html#12,12,1536,864,1536,864,1-8-2024,13-31-34,6,VR_target_stimuli/s28_0.75x_3.2_357.png,1000,0.75x,3.2,4.0,4689,1005,meters,jsons/MX_seq6_2_VE1000.json,361203,778478,33,Woman
6,127060,final-intermixed-textured,v2,jsons/MX_seq6_2_VE1000.json,http://54.235.29.9/FacialAge/BNav_EC2/DepthDuration/MX_fS_VE_MTurk/MX_fS_HTML.html#12,12,1536,864,1536,864,1-8-2024,13-31-34,7,catch_stimuli/c0.png,1000,,,0.0,4137,1010,meters,jsons/MX_seq6_2_VE1000.json,361203,778478,33,Woman
7,127060,final-intermixed-textured,v2,jsons/MX_seq6_2_VE1000.json,http://54.235.29.9/FacialAge/BNav_EC2/DepthDuration/MX_fS_VE_MTurk/MX_fS_HTML.html#12,12,1536,864,1536,864,1-8-2024,13-31-34,8,VR_target_stimuli/s48_0.75x_2.55_243.png,1000,0.75x,2.55,4.0,4688,1002,meters,jsons/MX_seq6_2_VE1000.json,361203,778478,33,Woman
8,127060,final-intermixed-textured,v2,jsons/MX_seq6_2_VE1000.json,http://54.235.29.9/FacialAge/BNav_EC2/DepthDuration/MX_fS_VE_MTurk/MX_fS_HTML.html#12,12,1536,864,1536,864,1-8-2024,13-31-34,9,VR_target_stimuli/s19_1.3x_1.21_270.png,1000,1.3x,1.21,2.5,8640,995,meters,jsons/MX_seq6_2_VE1000.json,361203,778478,33,Woman
9,127060,final-intermixed-textured,v2,jsons/MX_seq6_2_VE1000.json,http://54.235.29.9/FacialAge/BNav_EC2/DepthDuration/MX_fS_VE_MTurk/MX_fS_HTML.html#12,12,1536,864,1536,864,1-8-2024,13-31-34,10,VR_target_stimuli/s21_1x_4.22_379_BC.png,1000,1x,4.22,7.0,4379,994,meters,jsons/MX_seq6_2_VE1000.json,361203,778478,33,Woman
10,127060,final-intermixed-textured,v2,jsons/MX_seq6_2_VE1000.json,http://54.235.29.9/FacialAge/BNav_EC2/DepthDuration/MX_fS_VE_MTurk/MX_fS_HTML.html#12,12,1536,864,1536,864,1-8-2024,13-31-34,11,VR_target_stimuli/s8_1.3x_3.1_345_BC.png,1000,1.3x,3.1,4.0,3979,1001,meters,jsons/MX_seq6_2_VE1000.json,361203,778478,33,Woman
11,127060,final-intermixed-textured,v2,jsons/MX_seq6_2_VE1000.json,http://54.235.29.9/FacialAge/BNav_EC2/DepthDuration/MX_fS_VE_MTurk/MX_fS_HTML.html#12,12,1536,864,1536,864,1-8-2024,13-31-34,12,VR_target_stimuli/s27_0.75x_1.76_243_BC.png,1000,0.75x,1.76,3.5,6333,992,meters,jsons/MX_seq6_2_VE1000.json,361203,778478,33,Woman
12,127060,final-intermixed-textured,v2,jsons/MX_seq6_2_VE1000.json,http://54.235.29.9/FacialAge/BNav_EC2/DepthDuration/MX_fS_VE_MTurk/MX_fS_HTML.html#12,12,1536,864,1536,864,1-8-2024,13-31-34,13,VR_target_stimuli/s15_1x_4.2_390.png,1000,1x,4.2,6.0,4405,987,meters,jsons/MX_seq6_2_VE1000.json,361203,778478,33,Woman
13,127060,final-intermixed-textured,v2,jsons/MX_seq6_2_VE1000.json,http://54.235.29.9/FacialAge/BNav_EC2/DepthDuration/MX_fS_VE_MTurk/MX_fS_HTML.html#12,12,1536,864,1536,864,1-8-2024,13-31-34,14,VR_target_stimuli/s4_0.75x_1.4_301_BC.png,1000,0.75x,1.4,2.5,6982,1001,meters,jsons/MX_seq6_2_VE1000.json,361203,778478,33,Woman
14,127060,final-intermixed-textured,v2,jsons/MX_seq6_2_VE1000.json,http://54.235.29.9/FacialAge/BNav_EC2/DepthDuration/MX_fS_VE_MTurk/MX_fS_HTML.html#12,12,1536,864,1536,864,1-8-2024,13-31-34,15,VR_target_stimuli/s35_1.3x_2_338.png,1000,1.3x,2.0,3.0,5501,1003,meters,jsons/MX_seq6_2_VE1000.json,361203,778478,33,Woman
15,127060,final-intermixed-textured,v2,jsons/MX_seq6_2_VE1000.json,http://54.235.29.9/FacialAge/BNav_EC2/DepthDuration/MX_fS_VE_MTurk/MX_fS_HTML.html#12,12,1536,864,1536,864,1-8-2024,13-31-34,16,VR_target_stimuli/s49_1x_4.67_341.png,1000,1x,4.67,7.0,5017,990,meters,jsons/MX_seq6_2_VE1000.json,361203,778478,33,Woman
16,127060,final-intermixed-textured,v2,jsons/MX_seq6_2_VE1000.json,http://54.235.29.9/FacialAge/BNav_EC2/DepthDuration/MX_fS_VE_MTurk/MX_fS_HTML.html#12,12,1536,864,1536,864,1-8-2024,13-31-34,17,catch_stimuli/c1.png,1000,,,0.0,4025,997,meters,jsons/MX_seq6_2_VE1000.json,361203,778478,33,Woman
17,127060,final-intermixed-textured,v2,jsons/MX_seq6_2_VE1000.json,http://54.235.29.9/FacialAge/BNav_EC2/DepthDuration/MX_fS_VE_MTurk/MX_fS_HTML.html#12,12,1536,864,1536,864,1-8-2024,13-31-34,18,VR_target_stimuli/s7_1x_1.5_255_BC.png,1000,1x,1.5,3.5,5816,1008,meters,jsons/MX_seq6_2_VE1000.json,361203,778478,33,Woman
18,127060,final-intermixed-textured,v2,jsons/MX_seq6_2_VE1000.json,http://54.235.29.9/FacialAge/BNav_EC2/DepthDuration/MX_fS_VE_MTurk/MX_fS_HTML.html#12,12,1536,864,1536,864,1-8-2024,13-31-34,19,VR_target_stimuli/s20_0.75x_4.99_390.png,1000,0.75x,4.99,8.0,4694,994,meters,jsons/MX_seq6_2_VE1000.json,361203,778478,33,Woman
19,127060,final-intermixed-textured,v2,jsons/MX_seq6_2_VE1000.json,http://54.235.29.9/FacialAge/BNav_EC2/DepthDuration/MX_fS_VE_MTurk/MX_fS_HTML.html#12,12,1536,864,1536,864,1-8-2024,13-31-34,20,VR_target_stimuli/s31_1.3x_4.96_342_BC.png,1000,1.3x,4.96,7.0,4327,1005,meters,jsons/MX_seq6_2_VE1000.json,361203,778478,33,Woman
20,127060,final-intermixed-textured,v2,jsons/MX_seq6_2_VE1000.json,http://54.235.29.9/FacialAge/BNav_EC2/DepthDuration/MX_fS_VE_MTurk/MX_fS_HTML.html#12,12,1536,864,1536,864,1-8-2024,13-31-34,21,VR_target_stimuli/s33_0.75x_3.1_361_BC.png,1000,0.75x,3.1,4.5,5147,1003,meters,jsons/MX_seq6_2_VE1000.json,361203,778478,33,Woman
21,127060,final-intermixed-textured,v2,jsons/MX_seq6_2_VE1000.json,http://54.235.29.9/FacialAge/BNav_EC2/DepthDuration/MX_fS_VE_MTurk/MX_fS_HTML.html#12,12,1536,864,1536,864,1-8-2024,13-31-34,22,VR_target_stimuli/s52_1x_3.2_275_BC.png,1000,1x,3.2,6.5,6224,987,meters,jsons/MX_seq6_2_VE1000.json,361203,778478,33,Woman
22,127060,final-intermixed-textured,v2,jsons/MX_seq6_2_VE1000.json,http://54.235.29.9/FacialAge/BNav_EC2/DepthDuration/MX_fS_VE_MTurk/MX_fS_HTML.html#12,12,1536,864,1536,864,1-8-2024,13-31-34,23,VR_target_stimuli/s32_1.3x_1.5_224_BC.png,1000,1.3x,1.5,4.0,4676,974,meters,jsons/MX_seq6_2_VE1000.json,361203,778478,33,Woman
23,127060,final-intermixed-textured,v2,jsons/MX_seq6_2_VE1000.json,http://54.235.29.9/FacialAge/BNav_EC2/DepthDuration/MX_fS_VE_MTurk/MX_fS_HTML.html#12,12,1536,864,1536,864,1-8-2024,13-31-34,24,VR_target_stimuli/s18_1x_2.25_353.png,1000,1x,2.25,3.0,4181,1003,meters,jsons/MX_seq6_2_VE1000.json,361203,778478,33,Woman
24,127060,final-intermixed-textured,v2,jsons/MX_seq6_2_VE1000.json,http://54.235.29.9/FacialAge/BNav_EC2/DepthDuration/MX_fS_VE_MTurk/MX_fS_HTML.html#12,12,1536,864,1536,864,1-8-2024,13-31-34,25,VR_target_stimuli/s39_0.75x_1_205.png,1000,0.75x,1.0,3.0,4157,998,meters,jsons/MX_seq6_2_VE1000.json,361203,778478,33,Woman
25,127060,final-intermixed-textured,v2,jsons/MX_seq6_2_VE1000.json,http://54.235.29.9/FacialAge/BNav_EC2/DepthDuration/MX_fS_VE_MTurk/MX_fS_HTML.html#12,12,1536,864,1536,864,1-8-2024,13-31-34,26,catch_stimuli/c2.png,1000,,,0.0,5434,1011,meters,jsons/MX_seq6_2_VE1000.json,361203,778478,33,Woman
26,127060,final-intermixed-textured,v2,jsons/MX_seq6_2_VE1000.json,http://54.235.29.9/FacialAge/BNav_EC2/DepthDuration/MX_fS_VE_MTurk/MX_fS_HTML.html#12,12,1536,864,1536,864,1-8-2024,13-31-34,27,VR_target_stimuli/s51_1.3x_3.64_479.png,1000,1.3x,3.64,2.5,7440,1007,meters,jsons/MX_seq6_2_VE1000.json,361203,778478,33,Woman
27,127060,final-intermixed-textured,v2,jsons/MX_seq6_2_VE1000.json,http://54.235.29.9/FacialAge/BNav_EC2/DepthDuration/MX_fS_VE_MTurk/MX_fS_HTML.html#12,12,1536,864,1536,864,1-8-2024,13-31-34,28,VR_target_stimuli/s43_1.3x_2.2_363_BC.png,1000,1.3x,2.2,3.5,10044,1003,meters,jsons/MX_seq6_2_VE1000.json,361203,778478,33,Woman
28,127060,final-intermixed-textured,v2,jsons/MX_seq6_2_VE1000.json,http://54.235.29.9/FacialAge/BNav_EC2/DepthDuration/MX_fS_VE_MTurk/MX_fS_HTML.html#12,12,1536,864,1536,864,1-8-2024,13-31-34,29,VR_target_stimuli/s24_1x_3.3_349_BC.png,1000,1x,3.3,5.0,4372,1002,meters,jsons/MX_seq6_2_VE1000.json,361203,778478,33,Woman
29,127060,final-intermixed-textured,v2,jsons/MX_seq6_2_VE1000.json,http://54.235.29.9/FacialAge/BNav_EC2/DepthDuration/MX_fS_VE_MTurk/MX_fS_HTML.html#12,12,1536,864,1536,864,1-8-2024,13-31-34,30,VR_target_stimuli/s10_0.75x_2.7_321.png,1000,0.75x,2.7,4.0,4916,1012,meters,jsons/MX_seq6_2_VE1000.json,361203,778478,33,Woman
30,127060,final-intermixed-textured,v2,jsons/MX_seq6_2_VE1000.json,http://54.235.29.9/FacialAge/BNav_EC2/DepthDuration/MX_fS_VE_MTurk/MX_fS_HTML.html#12,12,1536,864,1536,864,1-8-2024,13-31-34,31,VR_target_stimuli/s36_1.3x_4.1_442.png,1000,1.3x,4.1,6.0,4841,1010,meters,jsons/MX_seq6_2_VE1000.json,361203,778478,33,Woman
31,127060,final-intermixed-textured,v2,jsons/MX_seq6_2_VE1000.json,http://54.235.29.9/FacialAge/BNav_EC2/DepthDuration/MX_fS_VE_MTurk/MX_fS_HTML.html#12,12,1536,864,1536,864,1-8-2024,13-31-34,32,VR_target_stimuli/s40_0.75x_1.2_308_BC.png,1000,0.75x,1.2,2.5,10128,998,meters,jsons/MX_seq6_2_VE1000.json,361203,778478,33,Woman
32,127060,final-intermixed-textured,v2,jsons/MX_seq6_2_VE1000.json,http://54.235.29.9/FacialAge/BNav_EC2/DepthDuration/MX_fS_VE_MTurk/MX_fS_HTML.html#12,12,1536,864,1536,864,1-8-2024,13-31-34,33,VR_target_stimuli/s41_1x_2.1_286.png,1000,1x,2.1,3.0,4403,1000,meters,jsons/MX_seq6_2_VE1000.json,361203,778478,33,Woman
33,127060,final-intermixed-textured,v2,jsons/MX_seq6_2_VE1000.json,http://54.235.29.9/FacialAge/BNav_EC2/DepthDuration/MX_fS_VE_MTurk/MX_fS_HTML.html#12,12,1536,864,1536,864,1-8-2024,13-31-34,34,catch_stimuli/c3.png,1000,,,0.0,6399,1010,meters,jsons/MX_seq6_2_VE1000.json,361203,778478,33,Woman
34,127060,final-intermixed-textured,v2,jsons/MX_seq6_2_VE1000.json,http://54.235.29.9/FacialAge/BNav_EC2/DepthDuration/MX_fS_VE_MTurk/MX_fS_HTML.html#12,12,1536,864,1536,864,1-8-2024,13-31-34,35,VR_target_stimuli/s45_0.75x_3.5_362.png,1000,0.75x,3.5,3.0,4077,1007,meters,jsons/MX_seq6_2_VE1000.json,361203,778478,33,Woman
35,127060,final-intermixed-textured,v2,jsons/MX_seq6_2_VE1000.json,http://54.235.29.9/FacialAge/BNav_EC2/DepthDuration/MX_fS_VE_MTurk/MX_fS_HTML.html#12,12,1536,864,1536,864,1-8-2024,13-31-34,36,VR_target_stimuli/s23_1.3x_3.65_354_BC.png,1000,1.3x,3.65,3.0,7924,1003,meters,jsons/MX_seq6_2_VE1000.json,361203,778478,33,Woman
36,127060,final-intermixed-textured,v2,jsons/MX_seq6_2_VE1000.json,http://54.235.29.9/FacialAge/BNav_EC2/DepthDuration/MX_fS_VE_MTurk/MX_fS_HTML.html#12,12,1536,864,1536,864,1-8-2024,13-31-34,37,VR_target_stimuli/s26_1x_4_433_BC.png,1000,1x,4.0,3.5,6757,1005,meters,jsons/MX_seq6_2_VE1000.json,361203,778478,33,Woman
37,127060,final-intermixed-textured,v2,jsons/MX_seq6_2_VE1000.json,http://54.235.29.9/FacialAge/BNav_EC2/DepthDuration/MX_fS_VE_MTurk/MX_fS_HTML.html#12,12,1536,864,1536,864,1-8-2024,13-31-34,38,VR_target_stimuli/s12_1x_3.1_372.png,1000,1x,3.1,4.0,6822,1004,meters,jsons/MX_seq6_2_VE1000.json,361203,778478,33,Woman
38,127060,final-intermixed-textured,v2,jsons/MX_seq6_2_VE1000.json,http://54.235.29.9/FacialAge/BNav_EC2/DepthDuration/MX_fS_VE_MTurk/MX_fS_HTML.html#12,12,1536,864,1536,864,1-8-2024,13-31-34,39,VR_target_stimuli/s30_0.75x_2.3_332_BC.png,1000,0.75x,2.3,2.5,5541,1005,meters,jsons/MX_seq6_2_VE1000.json,361203,778478,33,Woman
39,127060,final-intermixed-textured,v2,jsons/MX_seq6_2_VE1000.json,http://54.235.29.9/FacialAge/BNav_EC2/DepthDuration/MX_fS_VE_MTurk/MX_fS_HTML.html#12,12,1536,864,1536,864,1-8-2024,13-31-34,40,VR_target_stimuli/s16_1.3x_1_223.png,1000,1.3x,1.0,1.5,5042,1005,meters,jsons/MX_seq6_2_VE1000.json,361203,778478,33,Woman
40,127060,final-intermixed-textured,v2,jsons/MX_seq6_2_VE1000.json,http://54.235.29.9/FacialAge/BNav_EC2/DepthDuration/MX_fS_VE_MTurk/MX_fS_HTML.html#12,12,1536,864,1536,864,1-8-2024,13-31-34,41,VR_target_stimuli/s17_0.75x_1.8_285_BC.png,1000,0.75x,1.8,2.5,9522,995,meters,jsons/MX_seq6_2_VE1000.json,361203,778478,33,Woman
41,127060,final-intermixed-textured,v2,jsons/MX_seq6_2_VE1000.json,http://54.235.29.9/FacialAge/BNav_EC2/DepthDuration/MX_fS_VE_MTurk/MX_fS_HTML.html#12,12,1536,864,1536,864,1-8-2024,13-31-34,42,VR_target_stimuli/s5_1x_4_378_BC.png,1000,1x,4.0,4.0,4133,990,meters,jsons/MX_seq6_2_VE1000.json,361203,778478,33,Woman
42,127060,final-intermixed-textured,v2,jsons/MX_seq6_2_VE1000.json,http://54.235.29.9/FacialAge/BNav_EC2/DepthDuration/MX_fS_VE_MTurk/MX_fS_HTML.html#12,12,1536,864,1536,864,1-8-2024,13-31-34,43,VR_target_stimuli/s37_1.3x_3.3_555.png,1000,1.3x,3.3,0.0,4185,993,meters,jsons/MX_seq6_2_VE1000.json,361203,778478,33,Woman
43,127060,final-intermixed-textured,v2,jsons/MX_seq6_2_VE1000.json,http://54.235.29.9/FacialAge/BNav_EC2/DepthDuration/MX_fS_VE_MTurk/MX_fS_HTML.html#12,12,1536,864,1536,864,1-8-2024,13-31-34,44,VR_target_stimuli/s46_1x_2.42_348.png,1000,1x,2.42,3.5,5694,998,meters,jsons/MX_seq6_2_VE1000.json,361203,778478,33,Woman
44,127060,final-intermixed-textured,v2,jsons/MX_seq6_2_VE1000.json,http://54.235.29.9/FacialAge/BNav_EC2/DepthDuration/MX_fS_VE_MTurk/MX_fS_HTML.html#12,12,1536,864,1536,864,1-8-2024,13-31-34,45,catch_stimuli/c4.png,1000,,,0.0,3950,1002,meters,jsons/MX_seq6_2_VE1000.json,361203,778478,33,Woman
45,127060,final-intermixed-textured,v2,jsons/MX_seq6_2_VE1000.json,http://54.235.29.9/FacialAge/BNav_EC2/DepthDuration/MX_fS_VE_MTurk/MX_fS_HTML.html#12,12,1536,864,1536,864,1-8-2024,13-31-34,46,VR_target_stimuli/s22_0.75x_4.29_348.png,1000,0.75x,4.29,4.0,4154,999,meters,jsons/MX_seq6_2_VE1000.json,361203,778478,33,Woman
46,127060,final-intermixed-textured,v2,jsons/MX_seq6_2_VE1000.json,http://54.235.29.9/FacialAge/BNav_EC2/DepthDuration/MX_fS_VE_MTurk/MX_fS_HTML.html#12,12,1536,864,1536,864,1-8-2024,13-31-34,47,VR_target_stimuli/s42_1.3x_3.2_305_BC.png,1000,1.3x,3.2,3.5,6630,993,meters,jsons/MX_seq6_2_VE1000.json,361203,778478,33,Woman
47,127060,final-intermixed-textured,v2,jsons/MX_seq6_2_VE1000.json,http://54.235.29.9/FacialAge/BNav_EC2/DepthDuration/MX_fS_VE_MTurk/MX_fS_HTML.html#12,12,1536,864,1536,864,1-8-2024,13-31-34,48,VR_target_stimuli/s25_1.3x_1.4_299.png,1000,1.3x,1.4,2.0,4434,1007,meters,jsons/MX_seq6_2_VE1000.json,361203,778478,33,Woman
48,127060,final-intermixed-textured,v2,jsons/MX_seq6_2_VE1000.json,http://54.235.29.9/FacialAge/BNav_EC2/DepthDuration/MX_fS_VE_MTurk/MX_fS_HTML.html#12,12,1536,864,1536,864,1-8-2024,13-31-34,49,VR_target_stimuli/s50_1x_4.53_518_BC.png,1000,1x,4.53,3.5,5587,1001,meters,jsons/MX_seq6_2_VE1000.json,361203,778478,33,Woman
49,127060,final-intermixed-textured,v2,jsons/MX_seq6_2_VE1000.json,http://54.235.29.9/FacialAge/BNav_EC2/DepthDuration/MX_fS_VE_MTurk/MX_fS_HTML.html#12,12,1536,864,1536,864,1-8-2024,13-31-34,50,VR_target_stimuli/s53_0.75x_1.6_403_BC.png,1000,0.75x,1.6,1.5,9432,999,meters,jsons/MX_seq6_2_VE1000.json,361203,778478,33,Woman
50,127060,final-intermixed-textured,v2,jsons/MX_seq6_2_VE1000.json,http://54.235.29.9/FacialAge/BNav_EC2/DepthDuration/MX_fS_VE_MTurk/MX_fS_HTML.html#12,12,1536,864,1536,864,1-8-2024,13-31-34,51,VR_target_stimuli/s38_1x_3.55_353.png,1000,1x,3.55,2.5,5143,993,meters,jsons/MX_seq6_2_VE1000.json,361203,778478,33,Woman
51,127060,final-intermixed-textured,v2,jsons/MX_seq6_2_VE1000.json,http://54.235.29.9/FacialAge/BNav_EC2/DepthDuration/MX_fS_VE_MTurk/MX_fS_HTML.html#12,12,1536,864,1536,864,1-8-2024,13-31-34,52,VR_target_stimuli/s9_1.3x_1.2_276_BC.png,1000,1.3x,1.2,1.5,6872,993,meters,jsons/MX_seq6_2_VE1000.json,361203,778478,33,Woman
52,127060,final-intermixed-textured,v2,jsons/MX_seq6_2_VE1000.json,http://54.235.29.9/FacialAge/BNav_EC2/DepthDuration/MX_fS_VE_MTurk/MX_fS_HTML.html#12,12,1536,864,1536,864,1-8-2024,13-31-34,53,catch_stimuli/c5.png,1000,,,0.0,4301,1011,meters,jsons/MX_seq6_2_VE1000.json,361203,778478,33,Woman
53,127060,final-intermixed-textured,v2,jsons/MX_seq6_2_VE1000.json,http://54.235.29.9/FacialAge/BNav_EC2/DepthDuration/MX_fS_VE_MTurk/MX_fS_HTML.html#12,12,1536,864,1536,864,1-8-2024,13-31-34,54,VR_target_stimuli/s44_0.75x_4.4_314.png,1000,0.75x,4.4,5.5,5430,994,meters,jsons/MX_seq6_2_VE1000.json,361203,778478,33,Woman
54,127060,final-intermixed-textured,v2,jsons/MX_seq6_2_VE1000.json,http://54.235.29.9/FacialAge/BNav_EC2/DepthDuration/MX_fS_VE_MTurk/MX_fS_HTML.html#12,12,1536,864,1536,864,1-8-2024,13-31-34,55,VR_target_stimuli/s3_1.3x_5_390_BC.png,1000,1.3x,5.0,6.0,4639,996,meters,jsons/MX_seq6_2_VE1000.json,361203,778478,33,Woman
55,127060,final-intermixed-textured,v2,jsons/MX_seq6_2_VE1000.json,http://54.235.29.9/FacialAge/BNav_EC2/DepthDuration/MX_fS_VE_MTurk/MX_fS_HTML.html#12,12,1536,864,1536,864,1-8-2024,13-31-34,56,VR_target_stimuli/s1_1x_1.7_262_BC.png,1000,1x,1.7,3.5,5967,1004,meters,jsons/MX_seq6_2_VE1000.json,361203,778478,33,Woman
56,127060,final-intermixed-textured,v2,jsons/MX_seq6_2_VE1000.json,http://54.235.29.9/FacialAge/BNav_EC2/DepthDuration/MX_fS_VE_MTurk/MX_fS_HTML.html#12,12,1536,864,1536,864,1-8-2024,13-31-34,57,VR_target_stimuli/s11_0.75x_5_359_BC.png,1000,0.75x,5.0,6.0,4546,993,meters,jsons/MX_seq6_2_VE1000.json,361203,778478,33,Woman
57,127060,final-intermixed-textured,v2,jsons/MX_seq6_2_VE1000.json,http://54.235.29.9/FacialAge/BNav_EC2/DepthDuration/MX_fS_VE_MTurk/MX_fS_HTML.html#12,12,1536,864,1536,864,1-8-2024,13-31-34,58,VR_target_stimuli/s2_0.75x_2.7_384.png,1000,0.75x,2.7,3.5,5765,992,meters,jsons/MX_seq6_2_VE1000.json,361203,778478,33,Woman
58,127060,final-intermixed-textured,v2,jsons/MX_seq6_2_VE1000.json,http://54.235.29.9/FacialAge/BNav_EC2/DepthDuration/MX_fS_VE_MTurk/MX_fS_HTML.html#12,12,1536,864,1536,864,1-8-2024,13-31-34,59,VR_target_stimuli/s6_1.3x_2.1_298.png,1000,1.3x,2.1,3.5,5888,1000,meters,jsons/MX_seq6_2_VE1000.json,361203,778478,33,Woman
59,127060,final-intermixed-textured,v2,jsons/MX_seq6_2_VE1000.json,http://54.235.29.9/FacialAge/BNav_EC2/DepthDuration/MX_fS_VE_MTurk/MX_fS_HTML.html#12,12,1536,864,1536,864,1-8-2024,13-31-34,60,VR_target_stimuli/s0_1x_2.6_351.png,1000,1x,2.6,3.0,4995,1001,meters,jsons/MX_seq6_2_VE1000.json,361203,778478,33,Woman
