,subjID,experimentName,versionName,sequenceName,url,selected_row,windowWidth,windowHeight,screenWidth,screenHeight,startDate,startTime,trial,stimulus,duration,scale,actual_depth,depth_estimate,trial_RT,log_sceneDuration,unitSelection,seq_filepath,experimentTime,totalTime,age,gender
0,142481,final-intermixed-textured,v2,jsons/MX_seq22_2_VE1000_flipped.json,http://54.235.29.9/FacialAge/BNav_EC2/DepthDuration/MX_fS_VE_MTurk/MX_fS_HTML.html#134,134,1536,730,1536,864,1-8-2024,14-58-38,1,VR_target_stimuli/s20_1x_4.99_398.png,1000,1x,4.99,5.0,4394,1004,meters,jsons/MX_seq22_2_VE1000_flipped.json,317320,641768,26,Woman
1,142481,final-intermixed-textured,v2,jsons/MX_seq22_2_VE1000_flipped.json,http://54.235.29.9/FacialAge/BNav_EC2/DepthDuration/MX_fS_VE_MTurk/MX_fS_HTML.html#134,134,1536,730,1536,864,1-8-2024,14-58-38,2,VR_target_stimuli/s31_1.3x_4.96_342_BC.png,1000,1.3x,4.96,4.0,3966,1008,meters,jsons/MX_seq22_2_VE1000_flipped.json,317320,641768,26,Woman
2,142481,final-intermixed-textured,v2,jsons/MX_seq22_2_VE1000_flipped.json,http://54.235.29.9/FacialAge/BNav_EC2/DepthDuration/MX_fS_VE_MTurk/MX_fS_HTML.html#134,134,1536,730,1536,864,1-8-2024,14-58-38,3,VR_target_stimuli/s33_0.75x_3.1_361_BC.png,1000,0.75x,3.1,3.0,4065,1004,meters,jsons/MX_seq22_2_VE1000_flipped.json,317320,641768,26,Woman
3,142481,final-intermixed-textured,v2,jsons/MX_seq22_2_VE1000_flipped.json,http://54.235.29.9/FacialAge/BNav_EC2/DepthDuration/MX_fS_VE_MTurk/MX_fS_HTML.html#134,134,1536,730,1536,864,1-8-2024,14-58-38,4,VR_target_stimuli/s52_1.3x_3.2_280.png,1000,1.3x,3.2,3.0,5115,1006,meters,jsons/MX_seq22_2_VE1000_flipped.json,317320,641768,26,Woman
4,142481,final-intermixed-textured,v2,jsons/MX_seq22_2_VE1000_flipped.json,http://54.235.29.9/FacialAge/BNav_EC2/DepthDuration/MX_fS_VE_MTurk/MX_fS_HTML.html#134,134,1536,730,1536,864,1-8-2024,14-58-38,5,VR_target_stimuli/s32_1x_1.5_218_BC.png,1000,1x,1.5,2.0,3514,1002,meters,jsons/MX_seq22_2_VE1000_flipped.json,317320,641768,26,Woman
5,142481,final-intermixed-textured,v2,jsons/MX_seq22_2_VE1000_flipped.json,http://54.235.29.9/FacialAge/BNav_EC2/DepthDuration/MX_fS_VE_MTurk/MX_fS_HTML.html#134,134,1536,730,1536,864,1-8-2024,14-58-38,6,VR_target_stimuli/s18_0.75x_2.25_341.png,1000,0.75x,2.25,1.0,3351,1002,meters,jsons/MX_seq22_2_VE1000_flipped.json,317320,641768,26,Woman
6,142481,final-intermixed-textured,v2,jsons/MX_seq22_2_VE1000_flipped.json,http://54.235.29.9/FacialAge/BNav_EC2/DepthDuration/MX_fS_VE_MTurk/MX_fS_HTML.html#134,134,1536,730,1536,864,1-8-2024,14-58-38,7,catch_stimuli/c0_BC.png,1000,,,0.0,3925,989,meters,jsons/MX_seq22_2_VE1000_flipped.json,317320,641768,26,Woman
7,142481,final-intermixed-textured,v2,jsons/MX_seq22_2_VE1000_flipped.json,http://54.235.29.9/FacialAge/BNav_EC2/DepthDuration/MX_fS_VE_MTurk/MX_fS_HTML.html#134,134,1536,730,1536,864,1-8-2024,14-58-38,8,VR_target_stimuli/s39_0.75x_1_205.png,1000,0.75x,1.0,0.5,5437,1000,meters,jsons/MX_seq22_2_VE1000_flipped.json,317320,641768,26,Woman
8,142481,final-intermixed-textured,v2,jsons/MX_seq22_2_VE1000_flipped.json,http://54.235.29.9/FacialAge/BNav_EC2/DepthDuration/MX_fS_VE_MTurk/MX_fS_HTML.html#134,134,1536,730,1536,864,1-8-2024,14-58-38,9,VR_target_stimuli/s51_1.3x_3.64_479.png,1000,1.3x,3.64,1.5,6412,987,meters,jsons/MX_seq22_2_VE1000_flipped.json,317320,641768,26,Woman
9,142481,final-intermixed-textured,v2,jsons/MX_seq22_2_VE1000_flipped.json,http://54.235.29.9/FacialAge/BNav_EC2/DepthDuration/MX_fS_VE_MTurk/MX_fS_HTML.html#134,134,1536,730,1536,864,1-8-2024,14-58-38,10,VR_target_stimuli/s43_1x_2.2_354_BC.png,1000,1x,2.2,1.0,3577,999,meters,jsons/MX_seq22_2_VE1000_flipped.json,317320,641768,26,Woman
10,142481,final-intermixed-textured,v2,jsons/MX_seq22_2_VE1000_flipped.json,http://54.235.29.9/FacialAge/BNav_EC2/DepthDuration/MX_fS_VE_MTurk/MX_fS_HTML.html#134,134,1536,730,1536,864,1-8-2024,14-58-38,11,VR_target_stimuli/s24_1.3x_3.3_352_BC.png,1000,1.3x,3.3,2.0,3372,993,meters,jsons/MX_seq22_2_VE1000_flipped.json,317320,641768,26,Woman
11,142481,final-intermixed-textured,v2,jsons/MX_seq22_2_VE1000_flipped.json,http://54.235.29.9/FacialAge/BNav_EC2/DepthDuration/MX_fS_VE_MTurk/MX_fS_HTML.html#134,134,1536,730,1536,864,1-8-2024,14-58-38,12,VR_target_stimuli/s10_0.75x_2.7_321_BC.png,1000,0.75x,2.7,3.0,3906,1003,meters,jsons/MX_seq22_2_VE1000_flipped.json,317320,641768,26,Woman
12,142481,final-intermixed-textured,v2,jsons/MX_seq22_2_VE1000_flipped.json,http://54.235.29.9/FacialAge/BNav_EC2/DepthDuration/MX_fS_VE_MTurk/MX_fS_HTML.html#134,134,1536,730,1536,864,1-8-2024,14-58-38,13,VR_target_stimuli/s36_1x_4.1_423.png,1000,1x,4.1,3.5,5712,997,meters,jsons/MX_seq22_2_VE1000_flipped.json,317320,641768,26,Woman
13,142481,final-intermixed-textured,v2,jsons/MX_seq22_2_VE1000_flipped.json,http://54.235.29.9/FacialAge/BNav_EC2/DepthDuration/MX_fS_VE_MTurk/MX_fS_HTML.html#134,134,1536,730,1536,864,1-8-2024,14-58-38,14,VR_target_stimuli/s40_0.75x_1.2_308.png,1000,0.75x,1.2,0.5,5990,1001,meters,jsons/MX_seq22_2_VE1000_flipped.json,317320,641768,26,Woman
14,142481,final-intermixed-textured,v2,jsons/MX_seq22_2_VE1000_flipped.json,http://54.235.29.9/FacialAge/BNav_EC2/DepthDuration/MX_fS_VE_MTurk/MX_fS_HTML.html#134,134,1536,730,1536,864,1-8-2024,14-58-38,15,VR_target_stimuli/s41_1.3x_2.1_294_BC.png,1000,1.3x,2.1,1.5,5498,1006,meters,jsons/MX_seq22_2_VE1000_flipped.json,317320,641768,26,Woman
15,142481,final-intermixed-textured,v2,jsons/MX_seq22_2_VE1000_flipped.json,http://54.235.29.9/FacialAge/BNav_EC2/DepthDuration/MX_fS_VE_MTurk/MX_fS_HTML.html#134,134,1536,730,1536,864,1-8-2024,14-58-38,16,VR_target_stimuli/s45_1x_3.5_368_BC.png,1000,1x,3.5,3.0,3892,1005,meters,jsons/MX_seq22_2_VE1000_flipped.json,317320,641768,26,Woman
16,142481,final-intermixed-textured,v2,jsons/MX_seq22_2_VE1000_flipped.json,http://54.235.29.9/FacialAge/BNav_EC2/DepthDuration/MX_fS_VE_MTurk/MX_fS_HTML.html#134,134,1536,730,1536,864,1-8-2024,14-58-38,17,catch_stimuli/c1_BC.png,1000,,,0.0,5091,1001,meters,jsons/MX_seq22_2_VE1000_flipped.json,317320,641768,26,Woman
17,142481,final-intermixed-textured,v2,jsons/MX_seq22_2_VE1000_flipped.json,http://54.235.29.9/FacialAge/BNav_EC2/DepthDuration/MX_fS_VE_MTurk/MX_fS_HTML.html#134,134,1536,730,1536,864,1-8-2024,14-58-38,18,VR_target_stimuli/s23_1x_3.65_353.png,1000,1x,3.65,2.5,6074,1004,meters,jsons/MX_seq22_2_VE1000_flipped.json,317320,641768,26,Woman
18,142481,final-intermixed-textured,v2,jsons/MX_seq22_2_VE1000_flipped.json,http://54.235.29.9/FacialAge/BNav_EC2/DepthDuration/MX_fS_VE_MTurk/MX_fS_HTML.html#134,134,1536,730,1536,864,1-8-2024,14-58-38,19,VR_target_stimuli/s26_0.75x_4_430_BC.png,1000,0.75x,4.0,1.5,5554,1000,meters,jsons/MX_seq22_2_VE1000_flipped.json,317320,641768,26,Woman
19,142481,final-intermixed-textured,v2,jsons/MX_seq22_2_VE1000_flipped.json,http://54.235.29.9/FacialAge/BNav_EC2/DepthDuration/MX_fS_VE_MTurk/MX_fS_HTML.html#134,134,1536,730,1536,864,1-8-2024,14-58-38,20,VR_target_stimuli/s12_1.3x_3.1_375.png,1000,1.3x,3.1,1.0,3662,994,meters,jsons/MX_seq22_2_VE1000_flipped.json,317320,641768,26,Woman
20,142481,final-intermixed-textured,v2,jsons/MX_seq22_2_VE1000_flipped.json,http://54.235.29.9/FacialAge/BNav_EC2/DepthDuration/MX_fS_VE_MTurk/MX_fS_HTML.html#134,134,1536,730,1536,864,1-8-2024,14-58-38,21,VR_target_stimuli/s30_0.75x_2.3_332.png,1000,0.75x,2.3,1.0,4023,996,meters,jsons/MX_seq22_2_VE1000_flipped.json,317320,641768,26,Woman
21,142481,final-intermixed-textured,v2,jsons/MX_seq22_2_VE1000_flipped.json,http://54.235.29.9/FacialAge/BNav_EC2/DepthDuration/MX_fS_VE_MTurk/MX_fS_HTML.html#134,134,1536,730,1536,864,1-8-2024,14-58-38,22,VR_target_stimuli/s16_1x_1_219_BC.png,1000,1x,1.0,0.75,10166,994,meters,jsons/MX_seq22_2_VE1000_flipped.json,317320,641768,26,Woman
22,142481,final-intermixed-textured,v2,jsons/MX_seq22_2_VE1000_flipped.json,http://54.235.29.9/FacialAge/BNav_EC2/DepthDuration/MX_fS_VE_MTurk/MX_fS_HTML.html#134,134,1536,730,1536,864,1-8-2024,14-58-38,23,VR_target_stimuli/s17_1.3x_1.8_300.png,1000,1.3x,1.8,1.0,3872,995,meters,jsons/MX_seq22_2_VE1000_flipped.json,317320,641768,26,Woman
23,142481,final-intermixed-textured,v2,jsons/MX_seq22_2_VE1000_flipped.json,http://54.235.29.9/FacialAge/BNav_EC2/DepthDuration/MX_fS_VE_MTurk/MX_fS_HTML.html#134,134,1536,730,1536,864,1-8-2024,14-58-38,24,VR_target_stimuli/s5_1x_4_378.png,1000,1x,4.0,2.5,5999,1002,meters,jsons/MX_seq22_2_VE1000_flipped.json,317320,641768,26,Woman
24,142481,final-intermixed-textured,v2,jsons/MX_seq22_2_VE1000_flipped.json,http://54.235.29.9/FacialAge/BNav_EC2/DepthDuration/MX_fS_VE_MTurk/MX_fS_HTML.html#134,134,1536,730,1536,864,1-8-2024,14-58-38,25,VR_target_stimuli/s37_0.75x_3.3_567_BC.png,1000,0.75x,3.3,2.0,6609,1006,meters,jsons/MX_seq22_2_VE1000_flipped.json,317320,641768,26,Woman
25,142481,final-intermixed-textured,v2,jsons/MX_seq22_2_VE1000_flipped.json,http://54.235.29.9/FacialAge/BNav_EC2/DepthDuration/MX_fS_VE_MTurk/MX_fS_HTML.html#134,134,1536,730,1536,864,1-8-2024,14-58-38,26,catch_stimuli/c2_BC.png,1000,,,0.0,4404,1005,meters,jsons/MX_seq22_2_VE1000_flipped.json,317320,641768,26,Woman
26,142481,final-intermixed-textured,v2,jsons/MX_seq22_2_VE1000_flipped.json,http://54.235.29.9/FacialAge/BNav_EC2/DepthDuration/MX_fS_VE_MTurk/MX_fS_HTML.html#134,134,1536,730,1536,864,1-8-2024,14-58-38,27,VR_target_stimuli/s46_1.3x_2.42_354_BC.png,1000,1.3x,2.42,2.0,3249,1004,meters,jsons/MX_seq22_2_VE1000_flipped.json,317320,641768,26,Woman
27,142481,final-intermixed-textured,v2,jsons/MX_seq22_2_VE1000_flipped.json,http://54.235.29.9/FacialAge/BNav_EC2/DepthDuration/MX_fS_VE_MTurk/MX_fS_HTML.html#134,134,1536,730,1536,864,1-8-2024,14-58-38,28,VR_target_stimuli/s22_1.3x_4.29_364.png,1000,1.3x,4.29,2.5,5178,1001,meters,jsons/MX_seq22_2_VE1000_flipped.json,317320,641768,26,Woman
28,142481,final-intermixed-textured,v2,jsons/MX_seq22_2_VE1000_flipped.json,http://54.235.29.9/FacialAge/BNav_EC2/DepthDuration/MX_fS_VE_MTurk/MX_fS_HTML.html#134,134,1536,730,1536,864,1-8-2024,14-58-38,29,VR_target_stimuli/s42_1x_3.2_303_BC.png,1000,1x,3.2,2.0,4486,1001,meters,jsons/MX_seq22_2_VE1000_flipped.json,317320,641768,26,Woman
29,142481,final-intermixed-textured,v2,jsons/MX_seq22_2_VE1000_flipped.json,http://54.235.29.9/FacialAge/BNav_EC2/DepthDuration/MX_fS_VE_MTurk/MX_fS_HTML.html#134,134,1536,730,1536,864,1-8-2024,14-58-38,30,VR_target_stimuli/s25_0.75x_1.4_281.png,1000,0.75x,1.4,1.0,7039,1001,meters,jsons/MX_seq22_2_VE1000_flipped.json,317320,641768,26,Woman
30,142481,final-intermixed-textured,v2,jsons/MX_seq22_2_VE1000_flipped.json,http://54.235.29.9/FacialAge/BNav_EC2/DepthDuration/MX_fS_VE_MTurk/MX_fS_HTML.html#134,134,1536,730,1536,864,1-8-2024,14-58-38,31,VR_target_stimuli/s50_1.3x_4.53_518_BC.png,1000,1.3x,4.53,1.5,5104,1003,meters,jsons/MX_seq22_2_VE1000_flipped.json,317320,641768,26,Woman
31,142481,final-intermixed-textured,v2,jsons/MX_seq22_2_VE1000_flipped.json,http://54.235.29.9/FacialAge/BNav_EC2/DepthDuration/MX_fS_VE_MTurk/MX_fS_HTML.html#134,134,1536,730,1536,864,1-8-2024,14-58-38,32,VR_target_stimuli/s53_0.75x_1.6_403_BC.png,1000,0.75x,1.6,0.6,6456,989,meters,jsons/MX_seq22_2_VE1000_flipped.json,317320,641768,26,Woman
32,142481,final-intermixed-textured,v2,jsons/MX_seq22_2_VE1000_flipped.json,http://54.235.29.9/FacialAge/BNav_EC2/DepthDuration/MX_fS_VE_MTurk/MX_fS_HTML.html#134,134,1536,730,1536,864,1-8-2024,14-58-38,33,VR_target_stimuli/s38_1x_3.55_353.png,1000,1x,3.55,2.5,5305,993,meters,jsons/MX_seq22_2_VE1000_flipped.json,317320,641768,26,Woman
33,142481,final-intermixed-textured,v2,jsons/MX_seq22_2_VE1000_flipped.json,http://54.235.29.9/FacialAge/BNav_EC2/DepthDuration/MX_fS_VE_MTurk/MX_fS_HTML.html#134,134,1536,730,1536,864,1-8-2024,14-58-38,34,catch_stimuli/c3_BC.png,1000,,,0.0,4736,997,meters,jsons/MX_seq22_2_VE1000_flipped.json,317320,641768,26,Woman
34,142481,final-intermixed-textured,v2,jsons/MX_seq22_2_VE1000_flipped.json,http://54.235.29.9/FacialAge/BNav_EC2/DepthDuration/MX_fS_VE_MTurk/MX_fS_HTML.html#134,134,1536,730,1536,864,1-8-2024,14-58-38,35,VR_target_stimuli/s9_0.75x_1.2_260_BC.png,1000,0.75x,1.2,0.6,5592,997,meters,jsons/MX_seq22_2_VE1000_flipped.json,317320,641768,26,Woman
35,142481,final-intermixed-textured,v2,jsons/MX_seq22_2_VE1000_flipped.json,http://54.235.29.9/FacialAge/BNav_EC2/DepthDuration/MX_fS_VE_MTurk/MX_fS_HTML.html#134,134,1536,730,1536,864,1-8-2024,14-58-38,36,VR_target_stimuli/s44_1.3x_4.4_325_BC.png,1000,1.3x,4.4,3.0,3528,1001,meters,jsons/MX_seq22_2_VE1000_flipped.json,317320,641768,26,Woman
36,142481,final-intermixed-textured,v2,jsons/MX_seq22_2_VE1000_flipped.json,http://54.235.29.9/FacialAge/BNav_EC2/DepthDuration/MX_fS_VE_MTurk/MX_fS_HTML.html#134,134,1536,730,1536,864,1-8-2024,14-58-38,37,VR_target_stimuli/s3_1x_5_385_BC.png,1000,1x,5.0,3.0,4007,1005,meters,jsons/MX_seq22_2_VE1000_flipped.json,317320,641768,26,Woman
37,142481,final-intermixed-textured,v2,jsons/MX_seq22_2_VE1000_flipped.json,http://54.235.29.9/FacialAge/BNav_EC2/DepthDuration/MX_fS_VE_MTurk/MX_fS_HTML.html#134,134,1536,730,1536,864,1-8-2024,14-58-38,38,VR_target_stimuli/s1_1x_1.7_262.png,1000,1x,1.7,1.0,3098,997,meters,jsons/MX_seq22_2_VE1000_flipped.json,317320,641768,26,Woman
38,142481,final-intermixed-textured,v2,jsons/MX_seq22_2_VE1000_flipped.json,http://54.235.29.9/FacialAge/BNav_EC2/DepthDuration/MX_fS_VE_MTurk/MX_fS_HTML.html#134,134,1536,730,1536,864,1-8-2024,14-58-38,39,VR_target_stimuli/s11_0.75x_5_359.png,1000,0.75x,5.0,3.0,3409,1012,meters,jsons/MX_seq22_2_VE1000_flipped.json,317320,641768,26,Woman
39,142481,final-intermixed-textured,v2,jsons/MX_seq22_2_VE1000_flipped.json,http://54.235.29.9/FacialAge/BNav_EC2/DepthDuration/MX_fS_VE_MTurk/MX_fS_HTML.html#134,134,1536,730,1536,864,1-8-2024,14-58-38,40,VR_target_stimuli/s2_1.3x_2.7_397.png,1000,1.3x,2.7,1.0,3790,1004,meters,jsons/MX_seq22_2_VE1000_flipped.json,317320,641768,26,Woman
40,142481,final-intermixed-textured,v2,jsons/MX_seq22_2_VE1000_flipped.json,http://54.235.29.9/FacialAge/BNav_EC2/DepthDuration/MX_fS_VE_MTurk/MX_fS_HTML.html#134,134,1536,730,1536,864,1-8-2024,14-58-38,41,VR_target_stimuli/s6_0.75x_2.1_290_BC.png,1000,0.75x,2.1,1.0,3497,1005,meters,jsons/MX_seq22_2_VE1000_flipped.json,317320,641768,26,Woman
41,142481,final-intermixed-textured,v2,jsons/MX_seq22_2_VE1000_flipped.json,http://54.235.29.9/FacialAge/BNav_EC2/DepthDuration/MX_fS_VE_MTurk/MX_fS_HTML.html#134,134,1536,730,1536,864,1-8-2024,14-58-38,42,VR_target_stimuli/s0_1x_2.6_351.png,1000,1x,2.6,2.0,2976,1006,meters,jsons/MX_seq22_2_VE1000_flipped.json,317320,641768,26,Woman
42,142481,final-intermixed-textured,v2,jsons/MX_seq22_2_VE1000_flipped.json,http://54.235.29.9/FacialAge/BNav_EC2/DepthDuration/MX_fS_VE_MTurk/MX_fS_HTML.html#134,134,1536,730,1536,864,1-8-2024,14-58-38,43,VR_target_stimuli/s34_1.3x_2.8_294_BC.png,1000,1.3x,2.8,2.0,3581,1004,meters,jsons/MX_seq22_2_VE1000_flipped.json,317320,641768,26,Woman
43,142481,final-intermixed-textured,v2,jsons/MX_seq22_2_VE1000_flipped.json,http://54.235.29.9/FacialAge/BNav_EC2/DepthDuration/MX_fS_VE_MTurk/MX_fS_HTML.html#134,134,1536,730,1536,864,1-8-2024,14-58-38,44,VR_target_stimuli/s13_1x_2.4_310_BC.png,1000,1x,2.4,2.0,3377,1008,meters,jsons/MX_seq22_2_VE1000_flipped.json,317320,641768,26,Woman
44,142481,final-intermixed-textured,v2,jsons/MX_seq22_2_VE1000_flipped.json,http://54.235.29.9/FacialAge/BNav_EC2/DepthDuration/MX_fS_VE_MTurk/MX_fS_HTML.html#134,134,1536,730,1536,864,1-8-2024,14-58-38,45,catch_stimuli/c4_BC.png,1000,,,0.0,3678,1003,meters,jsons/MX_seq22_2_VE1000_flipped.json,317320,641768,26,Woman
45,142481,final-intermixed-textured,v2,jsons/MX_seq22_2_VE1000_flipped.json,http://54.235.29.9/FacialAge/BNav_EC2/DepthDuration/MX_fS_VE_MTurk/MX_fS_HTML.html#134,134,1536,730,1536,864,1-8-2024,14-58-38,46,VR_target_stimuli/s14_0.75x_3.83_355.png,1000,0.75x,3.83,2.0,3644,1000,meters,jsons/MX_seq22_2_VE1000_flipped.json,317320,641768,26,Woman
46,142481,final-intermixed-textured,v2,jsons/MX_seq22_2_VE1000_flipped.json,http://54.235.29.9/FacialAge/BNav_EC2/DepthDuration/MX_fS_VE_MTurk/MX_fS_HTML.html#134,134,1536,730,1536,864,1-8-2024,14-58-38,47,VR_target_stimuli/s47_1.3x_3.45_373.png,1000,1.3x,3.45,2.0,3326,992,meters,jsons/MX_seq22_2_VE1000_flipped.json,317320,641768,26,Woman
47,142481,final-intermixed-textured,v2,jsons/MX_seq22_2_VE1000_flipped.json,http://54.235.29.9/FacialAge/BNav_EC2/DepthDuration/MX_fS_VE_MTurk/MX_fS_HTML.html#134,134,1536,730,1536,864,1-8-2024,14-58-38,48,VR_target_stimuli/s29_1.3x_1.3_253_BC.png,1000,1.3x,1.3,1.0,3504,1002,meters,jsons/MX_seq22_2_VE1000_flipped.json,317320,641768,26,Woman
48,142481,final-intermixed-textured,v2,jsons/MX_seq22_2_VE1000_flipped.json,http://54.235.29.9/FacialAge/BNav_EC2/DepthDuration/MX_fS_VE_MTurk/MX_fS_HTML.html#134,134,1536,730,1536,864,1-8-2024,14-58-38,49,VR_target_stimuli/s28_1x_3.2_362.png,1000,1x,3.2,2.5,6096,991,meters,jsons/MX_seq22_2_VE1000_flipped.json,317320,641768,26,Woman
49,142481,final-intermixed-textured,v2,jsons/MX_seq22_2_VE1000_flipped.json,http://54.235.29.9/FacialAge/BNav_EC2/DepthDuration/MX_fS_VE_MTurk/MX_fS_HTML.html#134,134,1536,730,1536,864,1-8-2024,14-58-38,50,VR_target_stimuli/s48_0.75x_2.55_243_BC.png,1000,0.75x,2.55,2.0,5372,997,meters,jsons/MX_seq22_2_VE1000_flipped.json,317320,641768,26,Woman
50,142481,final-intermixed-textured,v2,jsons/MX_seq22_2_VE1000_flipped.json,http://54.235.29.9/FacialAge/BNav_EC2/DepthDuration/MX_fS_VE_MTurk/MX_fS_HTML.html#134,134,1536,730,1536,864,1-8-2024,14-58-38,51,VR_target_stimuli/s19_1x_1.21_263_BC.png,1000,1x,1.21,1.0,6252,1005,meters,jsons/MX_seq22_2_VE1000_flipped.json,317320,641768,26,Woman
51,142481,final-intermixed-textured,v2,jsons/MX_seq22_2_VE1000_flipped.json,http://54.235.29.9/FacialAge/BNav_EC2/DepthDuration/MX_fS_VE_MTurk/MX_fS_HTML.html#134,134,1536,730,1536,864,1-8-2024,14-58-38,52,VR_target_stimuli/s21_1.3x_4.22_384.png,1000,1.3x,4.22,0.0,10363,991,meters,jsons/MX_seq22_2_VE1000_flipped.json,317320,641768,26,Woman
52,142481,final-intermixed-textured,v2,jsons/MX_seq22_2_VE1000_flipped.json,http://54.235.29.9/FacialAge/BNav_EC2/DepthDuration/MX_fS_VE_MTurk/MX_fS_HTML.html#134,134,1536,730,1536,864,1-8-2024,14-58-38,53,catch_stimuli/c5_BC.png,1000,,,0.0,4512,990,meters,jsons/MX_seq22_2_VE1000_flipped.json,317320,641768,26,Woman
53,142481,final-intermixed-textured,v2,jsons/MX_seq22_2_VE1000_flipped.json,http://54.235.29.9/FacialAge/BNav_EC2/DepthDuration/MX_fS_VE_MTurk/MX_fS_HTML.html#134,134,1536,730,1536,864,1-8-2024,14-58-38,54,VR_target_stimuli/s8_0.75x_3.1_325.png,1000,0.75x,3.1,2.0,3398,1007,meters,jsons/MX_seq22_2_VE1000_flipped.json,317320,641768,26,Woman
54,142481,final-intermixed-textured,v2,jsons/MX_seq22_2_VE1000_flipped.json,http://54.235.29.9/FacialAge/BNav_EC2/DepthDuration/MX_fS_VE_MTurk/MX_fS_HTML.html#134,134,1536,730,1536,864,1-8-2024,14-58-38,55,VR_target_stimuli/s27_1.3x_1.76_250_BC.png,1000,1.3x,1.76,2.0,4313,1009,meters,jsons/MX_seq22_2_VE1000_flipped.json,317320,641768,26,Woman
55,142481,final-intermixed-textured,v2,jsons/MX_seq22_2_VE1000_flipped.json,http://54.235.29.9/FacialAge/BNav_EC2/DepthDuration/MX_fS_VE_MTurk/MX_fS_HTML.html#134,134,1536,730,1536,864,1-8-2024,14-58-38,56,VR_target_stimuli/s15_1x_4.2_390.png,1000,1x,4.2,2.5,7559,997,meters,jsons/MX_seq22_2_VE1000_flipped.json,317320,641768,26,Woman
56,142481,final-intermixed-textured,v2,jsons/MX_seq22_2_VE1000_flipped.json,http://54.235.29.9/FacialAge/BNav_EC2/DepthDuration/MX_fS_VE_MTurk/MX_fS_HTML.html#134,134,1536,730,1536,864,1-8-2024,14-58-38,57,VR_target_stimuli/s4_0.75x_1.4_301.png,1000,0.75x,1.4,1.0,3948,1000,meters,jsons/MX_seq22_2_VE1000_flipped.json,317320,641768,26,Woman
57,142481,final-intermixed-textured,v2,jsons/MX_seq22_2_VE1000_flipped.json,http://54.235.29.9/FacialAge/BNav_EC2/DepthDuration/MX_fS_VE_MTurk/MX_fS_HTML.html#134,134,1536,730,1536,864,1-8-2024,14-58-38,58,VR_target_stimuli/s35_0.75x_2_323_BC.png,1000,0.75x,2.0,1.5,6596,1004,meters,jsons/MX_seq22_2_VE1000_flipped.json,317320,641768,26,Woman
58,142481,final-intermixed-textured,v2,jsons/MX_seq22_2_VE1000_flipped.json,http://54.235.29.9/FacialAge/BNav_EC2/DepthDuration/MX_fS_VE_MTurk/MX_fS_HTML.html#134,134,1536,730,1536,864,1-8-2024,14-58-38,59,VR_target_stimuli/s49_1.3x_4.67_354.png,1000,1.3x,4.67,2.0,4222,998,meters,jsons/MX_seq22_2_VE1000_flipped.json,317320,641768,26,Woman
59,142481,final-intermixed-textured,v2,jsons/MX_seq22_2_VE1000_flipped.json,http://54.235.29.9/FacialAge/BNav_EC2/DepthDuration/MX_fS_VE_MTurk/MX_fS_HTML.html#134,134,1536,730,1536,864,1-8-2024,14-58-38,60,VR_target_stimuli/s7_1x_1.5_255_BC.png,1000,1x,1.5,1.0,4066,990,meters,jsons/MX_seq22_2_VE1000_flipped.json,317320,641768,26,Woman
