,subjID,experimentName,versionName,sequenceName,url,selected_row,windowWidth,windowHeight,screenWidth,screenHeight,startDate,startTime,trial,stimulus,duration,scale,actual_depth,depth_estimate,trial_RT,log_sceneDuration,unitSelection,seq_filepath,experimentTime,totalTime,age,gender
0,143976,final-intermixed-textured,v2,jsons/MX_seq40_1_VE1000_flipped.json,http://54.235.29.9/FacialAge/BNav_EC2/DepthDuration/MX_fS_VE_MTurk/MX_fS_HTML.html#62,62,1280,585,1280,720,1-8-2024,11-35-34,1,VR_target_stimuli/s30_1.3x_2.3_337.png,1000,1.3x,2.3,2.0,4292,1004,meters,jsons/MX_seq40_1_VE1000_flipped.json,314483,518140,25,Woman
1,143976,final-intermixed-textured,v2,jsons/MX_seq40_1_VE1000_flipped.json,http://54.235.29.9/FacialAge/BNav_EC2/DepthDuration/MX_fS_VE_MTurk/MX_fS_HTML.html#62,62,1280,585,1280,720,1-8-2024,11-35-34,2,VR_target_stimuli/s16_0.75x_1_217_BC.png,1000,0.75x,1.0,0.5,6915,991,meters,jsons/MX_seq40_1_VE1000_flipped.json,314483,518140,25,Woman
2,143976,final-intermixed-textured,v2,jsons/MX_seq40_1_VE1000_flipped.json,http://54.235.29.9/FacialAge/BNav_EC2/DepthDuration/MX_fS_VE_MTurk/MX_fS_HTML.html#62,62,1280,585,1280,720,1-8-2024,11-35-34,3,VR_target_stimuli/s17_1x_1.8_291.png,1000,1x,1.8,1.5,12719,1006,meters,jsons/MX_seq40_1_VE1000_flipped.json,314483,518140,25,Woman
3,143976,final-intermixed-textured,v2,jsons/MX_seq40_1_VE1000_flipped.json,http://54.235.29.9/FacialAge/BNav_EC2/DepthDuration/MX_fS_VE_MTurk/MX_fS_HTML.html#62,62,1280,585,1280,720,1-8-2024,11-35-34,4,VR_target_stimuli/s5_0.75x_4_375.png,1000,0.75x,4.0,3.0,10185,1002,meters,jsons/MX_seq40_1_VE1000_flipped.json,314483,518140,25,Woman
4,143976,final-intermixed-textured,v2,jsons/MX_seq40_1_VE1000_flipped.json,http://54.235.29.9/FacialAge/BNav_EC2/DepthDuration/MX_fS_VE_MTurk/MX_fS_HTML.html#62,62,1280,585,1280,720,1-8-2024,11-35-34,5,VR_target_stimuli/s37_1.3x_3.3_555_BC.png,1000,1.3x,3.3,2.0,5979,997,meters,jsons/MX_seq40_1_VE1000_flipped.json,314483,518140,25,Woman
5,143976,final-intermixed-textured,v2,jsons/MX_seq40_1_VE1000_flipped.json,http://54.235.29.9/FacialAge/BNav_EC2/DepthDuration/MX_fS_VE_MTurk/MX_fS_HTML.html#62,62,1280,585,1280,720,1-8-2024,11-35-34,6,VR_target_stimuli/s46_1x_2.42_348_BC.png,1000,1x,2.42,3.0,4495,1003,meters,jsons/MX_seq40_1_VE1000_flipped.json,314483,518140,25,Woman
6,143976,final-intermixed-textured,v2,jsons/MX_seq40_1_VE1000_flipped.json,http://54.235.29.9/FacialAge/BNav_EC2/DepthDuration/MX_fS_VE_MTurk/MX_fS_HTML.html#62,62,1280,585,1280,720,1-8-2024,11-35-34,7,catch_stimuli/c0_BC.png,1000,,,0.0,5329,993,meters,jsons/MX_seq40_1_VE1000_flipped.json,314483,518140,25,Woman
7,143976,final-intermixed-textured,v2,jsons/MX_seq40_1_VE1000_flipped.json,http://54.235.29.9/FacialAge/BNav_EC2/DepthDuration/MX_fS_VE_MTurk/MX_fS_HTML.html#62,62,1280,585,1280,720,1-8-2024,11-35-34,8,VR_target_stimuli/s22_1x_4.29_354.png,1000,1x,4.29,4.0,3801,1002,meters,jsons/MX_seq40_1_VE1000_flipped.json,314483,518140,25,Woman
8,143976,final-intermixed-textured,v2,jsons/MX_seq40_1_VE1000_flipped.json,http://54.235.29.9/FacialAge/BNav_EC2/DepthDuration/MX_fS_VE_MTurk/MX_fS_HTML.html#62,62,1280,585,1280,720,1-8-2024,11-35-34,9,VR_target_stimuli/s42_0.75x_3.2_301.png,1000,0.75x,3.2,3.0,3937,1005,meters,jsons/MX_seq40_1_VE1000_flipped.json,314483,518140,25,Woman
9,143976,final-intermixed-textured,v2,jsons/MX_seq40_1_VE1000_flipped.json,http://54.235.29.9/FacialAge/BNav_EC2/DepthDuration/MX_fS_VE_MTurk/MX_fS_HTML.html#62,62,1280,585,1280,720,1-8-2024,11-35-34,10,VR_target_stimuli/s25_1.3x_1.4_299_BC.png,1000,1.3x,1.4,3.0,3840,1000,meters,jsons/MX_seq40_1_VE1000_flipped.json,314483,518140,25,Woman
10,143976,final-intermixed-textured,v2,jsons/MX_seq40_1_VE1000_flipped.json,http://54.235.29.9/FacialAge/BNav_EC2/DepthDuration/MX_fS_VE_MTurk/MX_fS_HTML.html#62,62,1280,585,1280,720,1-8-2024,11-35-34,11,VR_target_stimuli/s50_0.75x_4.53_517_BC.png,1000,0.75x,4.53,1.0,3049,1002,meters,jsons/MX_seq40_1_VE1000_flipped.json,314483,518140,25,Woman
11,143976,final-intermixed-textured,v2,jsons/MX_seq40_1_VE1000_flipped.json,http://54.235.29.9/FacialAge/BNav_EC2/DepthDuration/MX_fS_VE_MTurk/MX_fS_HTML.html#62,62,1280,585,1280,720,1-8-2024,11-35-34,12,VR_target_stimuli/s53_1x_1.6_387_BC.png,1000,1x,1.6,0.5,5984,1012,meters,jsons/MX_seq40_1_VE1000_flipped.json,314483,518140,25,Woman
12,143976,final-intermixed-textured,v2,jsons/MX_seq40_1_VE1000_flipped.json,http://54.235.29.9/FacialAge/BNav_EC2/DepthDuration/MX_fS_VE_MTurk/MX_fS_HTML.html#62,62,1280,585,1280,720,1-8-2024,11-35-34,13,VR_target_stimuli/s38_1.3x_3.55_358.png,1000,1.3x,3.55,1.5,6180,1003,meters,jsons/MX_seq40_1_VE1000_flipped.json,314483,518140,25,Woman
13,143976,final-intermixed-textured,v2,jsons/MX_seq40_1_VE1000_flipped.json,http://54.235.29.9/FacialAge/BNav_EC2/DepthDuration/MX_fS_VE_MTurk/MX_fS_HTML.html#62,62,1280,585,1280,720,1-8-2024,11-35-34,14,VR_target_stimuli/s9_1x_1.2_263_BC.png,1000,1x,1.2,1.0,3597,991,meters,jsons/MX_seq40_1_VE1000_flipped.json,314483,518140,25,Woman
14,143976,final-intermixed-textured,v2,jsons/MX_seq40_1_VE1000_flipped.json,http://54.235.29.9/FacialAge/BNav_EC2/DepthDuration/MX_fS_VE_MTurk/MX_fS_HTML.html#62,62,1280,585,1280,720,1-8-2024,11-35-34,15,VR_target_stimuli/s44_0.75x_4.4_314_BC.png,1000,0.75x,4.4,3.0,7655,996,meters,jsons/MX_seq40_1_VE1000_flipped.json,314483,518140,25,Woman
15,143976,final-intermixed-textured,v2,jsons/MX_seq40_1_VE1000_flipped.json,http://54.235.29.9/FacialAge/BNav_EC2/DepthDuration/MX_fS_VE_MTurk/MX_fS_HTML.html#62,62,1280,585,1280,720,1-8-2024,11-35-34,16,VR_target_stimuli/s3_1.3x_5_390.png,1000,1.3x,5.0,4.0,3464,988,meters,jsons/MX_seq40_1_VE1000_flipped.json,314483,518140,25,Woman
16,143976,final-intermixed-textured,v2,jsons/MX_seq40_1_VE1000_flipped.json,http://54.235.29.9/FacialAge/BNav_EC2/DepthDuration/MX_fS_VE_MTurk/MX_fS_HTML.html#62,62,1280,585,1280,720,1-8-2024,11-35-34,17,catch_stimuli/c1_BC.png,1000,,,0.0,5477,999,meters,jsons/MX_seq40_1_VE1000_flipped.json,314483,518140,25,Woman
17,143976,final-intermixed-textured,v2,jsons/MX_seq40_1_VE1000_flipped.json,http://54.235.29.9/FacialAge/BNav_EC2/DepthDuration/MX_fS_VE_MTurk/MX_fS_HTML.html#62,62,1280,585,1280,720,1-8-2024,11-35-34,18,VR_target_stimuli/s1_1.3x_1.7_261_BC.png,1000,1.3x,1.7,2.0,3921,985,meters,jsons/MX_seq40_1_VE1000_flipped.json,314483,518140,25,Woman
18,143976,final-intermixed-textured,v2,jsons/MX_seq40_1_VE1000_flipped.json,http://54.235.29.9/FacialAge/BNav_EC2/DepthDuration/MX_fS_VE_MTurk/MX_fS_HTML.html#62,62,1280,585,1280,720,1-8-2024,11-35-34,19,VR_target_stimuli/s11_1x_5_361.png,1000,1x,5.0,4.0,3675,1008,meters,jsons/MX_seq40_1_VE1000_flipped.json,314483,518140,25,Woman
19,143976,final-intermixed-textured,v2,jsons/MX_seq40_1_VE1000_flipped.json,http://54.235.29.9/FacialAge/BNav_EC2/DepthDuration/MX_fS_VE_MTurk/MX_fS_HTML.html#62,62,1280,585,1280,720,1-8-2024,11-35-34,20,VR_target_stimuli/s2_0.75x_2.7_384.png,1000,0.75x,2.7,2.0,4076,999,meters,jsons/MX_seq40_1_VE1000_flipped.json,314483,518140,25,Woman
20,143976,final-intermixed-textured,v2,jsons/MX_seq40_1_VE1000_flipped.json,http://54.235.29.9/FacialAge/BNav_EC2/DepthDuration/MX_fS_VE_MTurk/MX_fS_HTML.html#62,62,1280,585,1280,720,1-8-2024,11-35-34,21,VR_target_stimuli/s6_1x_2.1_293_BC.png,1000,1x,2.1,2.0,4235,992,meters,jsons/MX_seq40_1_VE1000_flipped.json,314483,518140,25,Woman
21,143976,final-intermixed-textured,v2,jsons/MX_seq40_1_VE1000_flipped.json,http://54.235.29.9/FacialAge/BNav_EC2/DepthDuration/MX_fS_VE_MTurk/MX_fS_HTML.html#62,62,1280,585,1280,720,1-8-2024,11-35-34,22,VR_target_stimuli/s0_1.3x_2.6_356_BC.png,1000,1.3x,2.6,2.0,4804,1000,meters,jsons/MX_seq40_1_VE1000_flipped.json,314483,518140,25,Woman
22,143976,final-intermixed-textured,v2,jsons/MX_seq40_1_VE1000_flipped.json,http://54.235.29.9/FacialAge/BNav_EC2/DepthDuration/MX_fS_VE_MTurk/MX_fS_HTML.html#62,62,1280,585,1280,720,1-8-2024,11-35-34,23,VR_target_stimuli/s34_0.75x_2.8_269_BC.png,1000,0.75x,2.8,5.0,3442,1000,meters,jsons/MX_seq40_1_VE1000_flipped.json,314483,518140,25,Woman
23,143976,final-intermixed-textured,v2,jsons/MX_seq40_1_VE1000_flipped.json,http://54.235.29.9/FacialAge/BNav_EC2/DepthDuration/MX_fS_VE_MTurk/MX_fS_HTML.html#62,62,1280,585,1280,720,1-8-2024,11-35-34,24,VR_target_stimuli/s13_1.3x_2.4_313.png,1000,1.3x,2.4,2.0,3972,1014,meters,jsons/MX_seq40_1_VE1000_flipped.json,314483,518140,25,Woman
24,143976,final-intermixed-textured,v2,jsons/MX_seq40_1_VE1000_flipped.json,http://54.235.29.9/FacialAge/BNav_EC2/DepthDuration/MX_fS_VE_MTurk/MX_fS_HTML.html#62,62,1280,585,1280,720,1-8-2024,11-35-34,25,VR_target_stimuli/s14_1x_ 3.83_357.png,1000,1x,3.83,3.0,3757,1002,meters,jsons/MX_seq40_1_VE1000_flipped.json,314483,518140,25,Woman
25,143976,final-intermixed-textured,v2,jsons/MX_seq40_1_VE1000_flipped.json,http://54.235.29.9/FacialAge/BNav_EC2/DepthDuration/MX_fS_VE_MTurk/MX_fS_HTML.html#62,62,1280,585,1280,720,1-8-2024,11-35-34,26,catch_stimuli/c2_BC.png,1000,,,0.0,3452,1006,meters,jsons/MX_seq40_1_VE1000_flipped.json,314483,518140,25,Woman
26,143976,final-intermixed-textured,v2,jsons/MX_seq40_1_VE1000_flipped.json,http://54.235.29.9/FacialAge/BNav_EC2/DepthDuration/MX_fS_VE_MTurk/MX_fS_HTML.html#62,62,1280,585,1280,720,1-8-2024,11-35-34,27,VR_target_stimuli/s47_0.75x_3.45_366.png,1000,0.75x,3.45,3.0,5126,1000,meters,jsons/MX_seq40_1_VE1000_flipped.json,314483,518140,25,Woman
27,143976,final-intermixed-textured,v2,jsons/MX_seq40_1_VE1000_flipped.json,http://54.235.29.9/FacialAge/BNav_EC2/DepthDuration/MX_fS_VE_MTurk/MX_fS_HTML.html#62,62,1280,585,1280,720,1-8-2024,11-35-34,28,VR_target_stimuli/s29_0.75x_1.3_246_BC.png,1000,0.75x,1.3,0.7,5263,1001,meters,jsons/MX_seq40_1_VE1000_flipped.json,314483,518140,25,Woman
28,143976,final-intermixed-textured,v2,jsons/MX_seq40_1_VE1000_flipped.json,http://54.235.29.9/FacialAge/BNav_EC2/DepthDuration/MX_fS_VE_MTurk/MX_fS_HTML.html#62,62,1280,585,1280,720,1-8-2024,11-35-34,29,VR_target_stimuli/s28_1.3x_3.2_365_BC.png,1000,1.3x,3.2,3.0,3715,996,meters,jsons/MX_seq40_1_VE1000_flipped.json,314483,518140,25,Woman
29,143976,final-intermixed-textured,v2,jsons/MX_seq40_1_VE1000_flipped.json,http://54.235.29.9/FacialAge/BNav_EC2/DepthDuration/MX_fS_VE_MTurk/MX_fS_HTML.html#62,62,1280,585,1280,720,1-8-2024,11-35-34,30,VR_target_stimuli/s48_1x_2.55_256.png,1000,1x,2.55,1.0,7336,1001,meters,jsons/MX_seq40_1_VE1000_flipped.json,314483,518140,25,Woman
30,143976,final-intermixed-textured,v2,jsons/MX_seq40_1_VE1000_flipped.json,http://54.235.29.9/FacialAge/BNav_EC2/DepthDuration/MX_fS_VE_MTurk/MX_fS_HTML.html#62,62,1280,585,1280,720,1-8-2024,11-35-34,31,VR_target_stimuli/s19_0.75x_1.21_257.png,1000,0.75x,1.21,0.4,7312,987,meters,jsons/MX_seq40_1_VE1000_flipped.json,314483,518140,25,Woman
31,143976,final-intermixed-textured,v2,jsons/MX_seq40_1_VE1000_flipped.json,http://54.235.29.9/FacialAge/BNav_EC2/DepthDuration/MX_fS_VE_MTurk/MX_fS_HTML.html#62,62,1280,585,1280,720,1-8-2024,11-35-34,32,VR_target_stimuli/s21_1x_4.22_379_BC.png,1000,1x,4.22,4.0,3855,1003,meters,jsons/MX_seq40_1_VE1000_flipped.json,314483,518140,25,Woman
32,143976,final-intermixed-textured,v2,jsons/MX_seq40_1_VE1000_flipped.json,http://54.235.29.9/FacialAge/BNav_EC2/DepthDuration/MX_fS_VE_MTurk/MX_fS_HTML.html#62,62,1280,585,1280,720,1-8-2024,11-35-34,33,VR_target_stimuli/s8_1.3x_3.1_345.png,1000,1.3x,3.1,2.0,4020,987,meters,jsons/MX_seq40_1_VE1000_flipped.json,314483,518140,25,Woman
33,143976,final-intermixed-textured,v2,jsons/MX_seq40_1_VE1000_flipped.json,http://54.235.29.9/FacialAge/BNav_EC2/DepthDuration/MX_fS_VE_MTurk/MX_fS_HTML.html#62,62,1280,585,1280,720,1-8-2024,11-35-34,34,catch_stimuli/c3_BC.png,1000,,,0.0,5021,1004,meters,jsons/MX_seq40_1_VE1000_flipped.json,314483,518140,25,Woman
34,143976,final-intermixed-textured,v2,jsons/MX_seq40_1_VE1000_flipped.json,http://54.235.29.9/FacialAge/BNav_EC2/DepthDuration/MX_fS_VE_MTurk/MX_fS_HTML.html#62,62,1280,585,1280,720,1-8-2024,11-35-34,35,VR_target_stimuli/s27_1x_1.76_248_BC.png,1000,1x,1.76,1.0,3593,1001,meters,jsons/MX_seq40_1_VE1000_flipped.json,314483,518140,25,Woman
35,143976,final-intermixed-textured,v2,jsons/MX_seq40_1_VE1000_flipped.json,http://54.235.29.9/FacialAge/BNav_EC2/DepthDuration/MX_fS_VE_MTurk/MX_fS_HTML.html#62,62,1280,585,1280,720,1-8-2024,11-35-34,36,VR_target_stimuli/s15_0.75x_4.2_388.png,1000,0.75x,4.2,3.0,6118,1004,meters,jsons/MX_seq40_1_VE1000_flipped.json,314483,518140,25,Woman
36,143976,final-intermixed-textured,v2,jsons/MX_seq40_1_VE1000_flipped.json,http://54.235.29.9/FacialAge/BNav_EC2/DepthDuration/MX_fS_VE_MTurk/MX_fS_HTML.html#62,62,1280,585,1280,720,1-8-2024,11-35-34,37,VR_target_stimuli/s4_1.3x_1.4_328_BC.png,1000,1.3x,1.4,0.5,5840,1001,meters,jsons/MX_seq40_1_VE1000_flipped.json,314483,518140,25,Woman
37,143976,final-intermixed-textured,v2,jsons/MX_seq40_1_VE1000_flipped.json,http://54.235.29.9/FacialAge/BNav_EC2/DepthDuration/MX_fS_VE_MTurk/MX_fS_HTML.html#62,62,1280,585,1280,720,1-8-2024,11-35-34,38,VR_target_stimuli/s35_1.3x_2_338.png,1000,1.3x,2.0,3.0,4908,992,meters,jsons/MX_seq40_1_VE1000_flipped.json,314483,518140,25,Woman
38,143976,final-intermixed-textured,v2,jsons/MX_seq40_1_VE1000_flipped.json,http://54.235.29.9/FacialAge/BNav_EC2/DepthDuration/MX_fS_VE_MTurk/MX_fS_HTML.html#62,62,1280,585,1280,720,1-8-2024,11-35-34,39,VR_target_stimuli/s49_1x_4.67_341.png,1000,1x,4.67,5.0,3060,1002,meters,jsons/MX_seq40_1_VE1000_flipped.json,314483,518140,25,Woman
39,143976,final-intermixed-textured,v2,jsons/MX_seq40_1_VE1000_flipped.json,http://54.235.29.9/FacialAge/BNav_EC2/DepthDuration/MX_fS_VE_MTurk/MX_fS_HTML.html#62,62,1280,585,1280,720,1-8-2024,11-35-34,40,VR_target_stimuli/s7_0.75x_1.5_253_BC.png,1000,0.75x,1.5,1.0,2970,1005,meters,jsons/MX_seq40_1_VE1000_flipped.json,314483,518140,25,Woman
40,143976,final-intermixed-textured,v2,jsons/MX_seq40_1_VE1000_flipped.json,http://54.235.29.9/FacialAge/BNav_EC2/DepthDuration/MX_fS_VE_MTurk/MX_fS_HTML.html#62,62,1280,585,1280,720,1-8-2024,11-35-34,41,VR_target_stimuli/s20_1x_4.99_398.png,1000,1x,4.99,4.0,4479,1003,meters,jsons/MX_seq40_1_VE1000_flipped.json,314483,518140,25,Woman
41,143976,final-intermixed-textured,v2,jsons/MX_seq40_1_VE1000_flipped.json,http://54.235.29.9/FacialAge/BNav_EC2/DepthDuration/MX_fS_VE_MTurk/MX_fS_HTML.html#62,62,1280,585,1280,720,1-8-2024,11-35-34,42,VR_target_stimuli/s31_1.3x_4.96_342_BC.png,1000,1.3x,4.96,5.0,3194,994,meters,jsons/MX_seq40_1_VE1000_flipped.json,314483,518140,25,Woman
42,143976,final-intermixed-textured,v2,jsons/MX_seq40_1_VE1000_flipped.json,http://54.235.29.9/FacialAge/BNav_EC2/DepthDuration/MX_fS_VE_MTurk/MX_fS_HTML.html#62,62,1280,585,1280,720,1-8-2024,11-35-34,43,VR_target_stimuli/s33_0.75x_3.1_361_BC.png,1000,0.75x,3.1,4.0,4541,1000,meters,jsons/MX_seq40_1_VE1000_flipped.json,314483,518140,25,Woman
43,143976,final-intermixed-textured,v2,jsons/MX_seq40_1_VE1000_flipped.json,http://54.235.29.9/FacialAge/BNav_EC2/DepthDuration/MX_fS_VE_MTurk/MX_fS_HTML.html#62,62,1280,585,1280,720,1-8-2024,11-35-34,44,VR_target_stimuli/s52_1.3x_3.2_280.png,1000,1.3x,3.2,4.0,3952,997,meters,jsons/MX_seq40_1_VE1000_flipped.json,314483,518140,25,Woman
44,143976,final-intermixed-textured,v2,jsons/MX_seq40_1_VE1000_flipped.json,http://54.235.29.9/FacialAge/BNav_EC2/DepthDuration/MX_fS_VE_MTurk/MX_fS_HTML.html#62,62,1280,585,1280,720,1-8-2024,11-35-34,45,catch_stimuli/c4_BC.png,1000,,,0.0,3321,1009,meters,jsons/MX_seq40_1_VE1000_flipped.json,314483,518140,25,Woman
45,143976,final-intermixed-textured,v2,jsons/MX_seq40_1_VE1000_flipped.json,http://54.235.29.9/FacialAge/BNav_EC2/DepthDuration/MX_fS_VE_MTurk/MX_fS_HTML.html#62,62,1280,585,1280,720,1-8-2024,11-35-34,46,VR_target_stimuli/s32_1x_1.5_218_BC.png,1000,1x,1.5,2.0,3285,1009,meters,jsons/MX_seq40_1_VE1000_flipped.json,314483,518140,25,Woman
46,143976,final-intermixed-textured,v2,jsons/MX_seq40_1_VE1000_flipped.json,http://54.235.29.9/FacialAge/BNav_EC2/DepthDuration/MX_fS_VE_MTurk/MX_fS_HTML.html#62,62,1280,585,1280,720,1-8-2024,11-35-34,47,VR_target_stimuli/s18_0.75x_2.25_341.png,1000,0.75x,2.25,2.0,3128,1001,meters,jsons/MX_seq40_1_VE1000_flipped.json,314483,518140,25,Woman
47,143976,final-intermixed-textured,v2,jsons/MX_seq40_1_VE1000_flipped.json,http://54.235.29.9/FacialAge/BNav_EC2/DepthDuration/MX_fS_VE_MTurk/MX_fS_HTML.html#62,62,1280,585,1280,720,1-8-2024,11-35-34,48,VR_target_stimuli/s39_0.75x_1_205_BC.png,1000,0.75x,1.0,0.5,6030,995,meters,jsons/MX_seq40_1_VE1000_flipped.json,314483,518140,25,Woman
48,143976,final-intermixed-textured,v2,jsons/MX_seq40_1_VE1000_flipped.json,http://54.235.29.9/FacialAge/BNav_EC2/DepthDuration/MX_fS_VE_MTurk/MX_fS_HTML.html#62,62,1280,585,1280,720,1-8-2024,11-35-34,49,VR_target_stimuli/s51_1.3x_3.64_479.png,1000,1.3x,3.64,2.0,4380,1003,meters,jsons/MX_seq40_1_VE1000_flipped.json,314483,518140,25,Woman
49,143976,final-intermixed-textured,v2,jsons/MX_seq40_1_VE1000_flipped.json,http://54.235.29.9/FacialAge/BNav_EC2/DepthDuration/MX_fS_VE_MTurk/MX_fS_HTML.html#62,62,1280,585,1280,720,1-8-2024,11-35-34,50,VR_target_stimuli/s43_1x_2.2_354.png,1000,1x,2.2,3.0,4623,1013,meters,jsons/MX_seq40_1_VE1000_flipped.json,314483,518140,25,Woman
50,143976,final-intermixed-textured,v2,jsons/MX_seq40_1_VE1000_flipped.json,http://54.235.29.9/FacialAge/BNav_EC2/DepthDuration/MX_fS_VE_MTurk/MX_fS_HTML.html#62,62,1280,585,1280,720,1-8-2024,11-35-34,51,VR_target_stimuli/s24_1.3x_3.3_352_BC.png,1000,1.3x,3.3,3.0,3570,1003,meters,jsons/MX_seq40_1_VE1000_flipped.json,314483,518140,25,Woman
51,143976,final-intermixed-textured,v2,jsons/MX_seq40_1_VE1000_flipped.json,http://54.235.29.9/FacialAge/BNav_EC2/DepthDuration/MX_fS_VE_MTurk/MX_fS_HTML.html#62,62,1280,585,1280,720,1-8-2024,11-35-34,52,VR_target_stimuli/s10_0.75x_2.7_321.png,1000,0.75x,2.7,3.0,3241,1003,meters,jsons/MX_seq40_1_VE1000_flipped.json,314483,518140,25,Woman
52,143976,final-intermixed-textured,v2,jsons/MX_seq40_1_VE1000_flipped.json,http://54.235.29.9/FacialAge/BNav_EC2/DepthDuration/MX_fS_VE_MTurk/MX_fS_HTML.html#62,62,1280,585,1280,720,1-8-2024,11-35-34,53,catch_stimuli/c5_BC.png,1000,,,0.0,4281,998,meters,jsons/MX_seq40_1_VE1000_flipped.json,314483,518140,25,Woman
53,143976,final-intermixed-textured,v2,jsons/MX_seq40_1_VE1000_flipped.json,http://54.235.29.9/FacialAge/BNav_EC2/DepthDuration/MX_fS_VE_MTurk/MX_fS_HTML.html#62,62,1280,585,1280,720,1-8-2024,11-35-34,54,VR_target_stimuli/s36_1x_4.1_423_BC.png,1000,1x,4.1,4.0,3745,1003,meters,jsons/MX_seq40_1_VE1000_flipped.json,314483,518140,25,Woman
54,143976,final-intermixed-textured,v2,jsons/MX_seq40_1_VE1000_flipped.json,http://54.235.29.9/FacialAge/BNav_EC2/DepthDuration/MX_fS_VE_MTurk/MX_fS_HTML.html#62,62,1280,585,1280,720,1-8-2024,11-35-34,55,VR_target_stimuli/s40_0.75x_1.2_308.png,1000,0.75x,1.2,3.0,5051,987,meters,jsons/MX_seq40_1_VE1000_flipped.json,314483,518140,25,Woman
55,143976,final-intermixed-textured,v2,jsons/MX_seq40_1_VE1000_flipped.json,http://54.235.29.9/FacialAge/BNav_EC2/DepthDuration/MX_fS_VE_MTurk/MX_fS_HTML.html#62,62,1280,585,1280,720,1-8-2024,11-35-34,56,VR_target_stimuli/s41_1.3x_2.1_294.png,1000,1.3x,2.1,3.0,5973,1006,meters,jsons/MX_seq40_1_VE1000_flipped.json,314483,518140,25,Woman
56,143976,final-intermixed-textured,v2,jsons/MX_seq40_1_VE1000_flipped.json,http://54.235.29.9/FacialAge/BNav_EC2/DepthDuration/MX_fS_VE_MTurk/MX_fS_HTML.html#62,62,1280,585,1280,720,1-8-2024,11-35-34,57,VR_target_stimuli/s45_1x_3.5_368_BC.png,1000,1x,3.5,4.0,3633,1001,meters,jsons/MX_seq40_1_VE1000_flipped.json,314483,518140,25,Woman
57,143976,final-intermixed-textured,v2,jsons/MX_seq40_1_VE1000_flipped.json,http://54.235.29.9/FacialAge/BNav_EC2/DepthDuration/MX_fS_VE_MTurk/MX_fS_HTML.html#62,62,1280,585,1280,720,1-8-2024,11-35-34,58,VR_target_stimuli/s23_1x_3.65_353.png,1000,1x,3.65,4.0,3025,1002,meters,jsons/MX_seq40_1_VE1000_flipped.json,314483,518140,25,Woman
58,143976,final-intermixed-textured,v2,jsons/MX_seq40_1_VE1000_flipped.json,http://54.235.29.9/FacialAge/BNav_EC2/DepthDuration/MX_fS_VE_MTurk/MX_fS_HTML.html#62,62,1280,585,1280,720,1-8-2024,11-35-34,59,VR_target_stimuli/s26_0.75x_4_430_BC.png,1000,0.75x,4.0,2.0,5355,1010,meters,jsons/MX_seq40_1_VE1000_flipped.json,314483,518140,25,Woman
59,143976,final-intermixed-textured,v2,jsons/MX_seq40_1_VE1000_flipped.json,http://54.235.29.9/FacialAge/BNav_EC2/DepthDuration/MX_fS_VE_MTurk/MX_fS_HTML.html#62,62,1280,585,1280,720,1-8-2024,11-35-34,60,VR_target_stimuli/s12_1.3x_3.1_375_BC.png,1000,1.3x,3.1,2.0,4850,1006,meters,jsons/MX_seq40_1_VE1000_flipped.json,314483,518140,25,Woman
