,subjID,experimentName,versionName,sequenceName,url,selected_row,windowWidth,windowHeight,screenWidth,screenHeight,startDate,startTime,trial,stimulus,duration,scale,actual_depth,depth_estimate,trial_RT,log_sceneDuration,unitSelection,seq_filepath,experimentTime,totalTime,age,gender
0,144976,final-intermixed-textured,v2,jsons/MX_seq18_1_VE1000.json,http://54.235.29.9/FacialAge/BNav_EC2/DepthDuration/MX_fS_VE_MTurk/MX_fS_HTML.html#28,28,1280,551,1280,720,1-8-2024,12-36-4,1,VR_target_stimuli/s4_1.3x_1.4_328.png,1000,1.3x,1.4,2.0,3003,997,meters,jsons/MX_seq18_1_VE1000.json,212482,365696,26,Woman
1,144976,final-intermixed-textured,v2,jsons/MX_seq18_1_VE1000.json,http://54.235.29.9/FacialAge/BNav_EC2/DepthDuration/MX_fS_VE_MTurk/MX_fS_HTML.html#28,28,1280,551,1280,720,1-8-2024,12-36-4,2,VR_target_stimuli/s35_0.75x_2_323_BC.png,1000,0.75x,2.0,3.0,2589,1003,meters,jsons/MX_seq18_1_VE1000.json,212482,365696,26,Woman
2,144976,final-intermixed-textured,v2,jsons/MX_seq18_1_VE1000.json,http://54.235.29.9/FacialAge/BNav_EC2/DepthDuration/MX_fS_VE_MTurk/MX_fS_HTML.html#28,28,1280,551,1280,720,1-8-2024,12-36-4,3,VR_target_stimuli/s49_1x_4.67_341_BC.png,1000,1x,4.67,7.0,2953,1005,meters,jsons/MX_seq18_1_VE1000.json,212482,365696,26,Woman
3,144976,final-intermixed-textured,v2,jsons/MX_seq18_1_VE1000.json,http://54.235.29.9/FacialAge/BNav_EC2/DepthDuration/MX_fS_VE_MTurk/MX_fS_HTML.html#28,28,1280,551,1280,720,1-8-2024,12-36-4,4,VR_target_stimuli/s7_0.75x_1.5_253.png,1000,0.75x,1.5,3.0,3531,999,meters,jsons/MX_seq18_1_VE1000.json,212482,365696,26,Woman
4,144976,final-intermixed-textured,v2,jsons/MX_seq18_1_VE1000.json,http://54.235.29.9/FacialAge/BNav_EC2/DepthDuration/MX_fS_VE_MTurk/MX_fS_HTML.html#28,28,1280,551,1280,720,1-8-2024,12-36-4,5,VR_target_stimuli/s20_1.3x_4.99_412_BC.png,1000,1.3x,4.99,5.0,3921,995,meters,jsons/MX_seq18_1_VE1000.json,212482,365696,26,Woman
5,144976,final-intermixed-textured,v2,jsons/MX_seq18_1_VE1000.json,http://54.235.29.9/FacialAge/BNav_EC2/DepthDuration/MX_fS_VE_MTurk/MX_fS_HTML.html#28,28,1280,551,1280,720,1-8-2024,12-36-4,6,VR_target_stimuli/s31_1x_4.96_333.png,1000,1x,4.96,4.0,2769,1005,meters,jsons/MX_seq18_1_VE1000.json,212482,365696,26,Woman
6,144976,final-intermixed-textured,v2,jsons/MX_seq18_1_VE1000.json,http://54.235.29.9/FacialAge/BNav_EC2/DepthDuration/MX_fS_VE_MTurk/MX_fS_HTML.html#28,28,1280,551,1280,720,1-8-2024,12-36-4,7,catch_stimuli/c0.png,1000,,,0.0,2723,991,meters,jsons/MX_seq18_1_VE1000.json,212482,365696,26,Woman
7,144976,final-intermixed-textured,v2,jsons/MX_seq18_1_VE1000.json,http://54.235.29.9/FacialAge/BNav_EC2/DepthDuration/MX_fS_VE_MTurk/MX_fS_HTML.html#28,28,1280,551,1280,720,1-8-2024,12-36-4,8,VR_target_stimuli/s33_1x_3.1_366.png,1000,1x,3.1,5.0,2677,993,meters,jsons/MX_seq18_1_VE1000.json,212482,365696,26,Woman
8,144976,final-intermixed-textured,v2,jsons/MX_seq18_1_VE1000.json,http://54.235.29.9/FacialAge/BNav_EC2/DepthDuration/MX_fS_VE_MTurk/MX_fS_HTML.html#28,28,1280,551,1280,720,1-8-2024,12-36-4,9,VR_target_stimuli/s52_0.75x_3.2_270_BC.png,1000,0.75x,3.2,4.0,3711,1002,meters,jsons/MX_seq18_1_VE1000.json,212482,365696,26,Woman
9,144976,final-intermixed-textured,v2,jsons/MX_seq18_1_VE1000.json,http://54.235.29.9/FacialAge/BNav_EC2/DepthDuration/MX_fS_VE_MTurk/MX_fS_HTML.html#28,28,1280,551,1280,720,1-8-2024,12-36-4,10,VR_target_stimuli/s32_1.3x_1.5_224.png,1000,1.3x,1.5,3.0,2706,1005,meters,jsons/MX_seq18_1_VE1000.json,212482,365696,26,Woman
10,144976,final-intermixed-textured,v2,jsons/MX_seq18_1_VE1000.json,http://54.235.29.9/FacialAge/BNav_EC2/DepthDuration/MX_fS_VE_MTurk/MX_fS_HTML.html#28,28,1280,551,1280,720,1-8-2024,12-36-4,11,VR_target_stimuli/s18_0.75x_2.25_341.png,1000,0.75x,2.25,3.0,3126,1003,meters,jsons/MX_seq18_1_VE1000.json,212482,365696,26,Woman
11,144976,final-intermixed-textured,v2,jsons/MX_seq18_1_VE1000.json,http://54.235.29.9/FacialAge/BNav_EC2/DepthDuration/MX_fS_VE_MTurk/MX_fS_HTML.html#28,28,1280,551,1280,720,1-8-2024,12-36-4,12,VR_target_stimuli/s39_1x_1_207_BC.png,1000,1x,1.0,1.0,2849,1002,meters,jsons/MX_seq18_1_VE1000.json,212482,365696,26,Woman
12,144976,final-intermixed-textured,v2,jsons/MX_seq18_1_VE1000.json,http://54.235.29.9/FacialAge/BNav_EC2/DepthDuration/MX_fS_VE_MTurk/MX_fS_HTML.html#28,28,1280,551,1280,720,1-8-2024,12-36-4,13,VR_target_stimuli/s51_1.3x_3.64_479_BC.png,1000,1.3x,3.64,2.0,2686,1002,meters,jsons/MX_seq18_1_VE1000.json,212482,365696,26,Woman
13,144976,final-intermixed-textured,v2,jsons/MX_seq18_1_VE1000.json,http://54.235.29.9/FacialAge/BNav_EC2/DepthDuration/MX_fS_VE_MTurk/MX_fS_HTML.html#28,28,1280,551,1280,720,1-8-2024,12-36-4,14,VR_target_stimuli/s43_1x_2.2_354.png,1000,1x,2.2,3.0,2814,1001,meters,jsons/MX_seq18_1_VE1000.json,212482,365696,26,Woman
14,144976,final-intermixed-textured,v2,jsons/MX_seq18_1_VE1000.json,http://54.235.29.9/FacialAge/BNav_EC2/DepthDuration/MX_fS_VE_MTurk/MX_fS_HTML.html#28,28,1280,551,1280,720,1-8-2024,12-36-4,15,VR_target_stimuli/s24_0.75x_3.3_344_BC.png,1000,0.75x,3.3,4.0,4680,1002,meters,jsons/MX_seq18_1_VE1000.json,212482,365696,26,Woman
15,144976,final-intermixed-textured,v2,jsons/MX_seq18_1_VE1000.json,http://54.235.29.9/FacialAge/BNav_EC2/DepthDuration/MX_fS_VE_MTurk/MX_fS_HTML.html#28,28,1280,551,1280,720,1-8-2024,12-36-4,16,VR_target_stimuli/s10_1.3x_2.7_325_BC.png,1000,1.3x,2.7,3.0,3647,1002,meters,jsons/MX_seq18_1_VE1000.json,212482,365696,26,Woman
16,144976,final-intermixed-textured,v2,jsons/MX_seq18_1_VE1000.json,http://54.235.29.9/FacialAge/BNav_EC2/DepthDuration/MX_fS_VE_MTurk/MX_fS_HTML.html#28,28,1280,551,1280,720,1-8-2024,12-36-4,17,catch_stimuli/c1.png,1000,,,0.0,2610,998,meters,jsons/MX_seq18_1_VE1000.json,212482,365696,26,Woman
17,144976,final-intermixed-textured,v2,jsons/MX_seq18_1_VE1000.json,http://54.235.29.9/FacialAge/BNav_EC2/DepthDuration/MX_fS_VE_MTurk/MX_fS_HTML.html#28,28,1280,551,1280,720,1-8-2024,12-36-4,18,VR_target_stimuli/s36_1.3x_4.1_442.png,1000,1.3x,4.1,4.0,2755,1004,meters,jsons/MX_seq18_1_VE1000.json,212482,365696,26,Woman
18,144976,final-intermixed-textured,v2,jsons/MX_seq18_1_VE1000.json,http://54.235.29.9/FacialAge/BNav_EC2/DepthDuration/MX_fS_VE_MTurk/MX_fS_HTML.html#28,28,1280,551,1280,720,1-8-2024,12-36-4,19,VR_target_stimuli/s40_1x_1.2_319_BC.png,1000,1x,1.2,1.0,4569,992,meters,jsons/MX_seq18_1_VE1000.json,212482,365696,26,Woman
19,144976,final-intermixed-textured,v2,jsons/MX_seq18_1_VE1000.json,http://54.235.29.9/FacialAge/BNav_EC2/DepthDuration/MX_fS_VE_MTurk/MX_fS_HTML.html#28,28,1280,551,1280,720,1-8-2024,12-36-4,20,VR_target_stimuli/s41_0.75x_2.1_281.png,1000,0.75x,2.1,3.0,2570,1002,meters,jsons/MX_seq18_1_VE1000.json,212482,365696,26,Woman
20,144976,final-intermixed-textured,v2,jsons/MX_seq18_1_VE1000.json,http://54.235.29.9/FacialAge/BNav_EC2/DepthDuration/MX_fS_VE_MTurk/MX_fS_HTML.html#28,28,1280,551,1280,720,1-8-2024,12-36-4,21,VR_target_stimuli/s45_1x_3.5_368.png,1000,1x,3.5,3.0,2552,1008,meters,jsons/MX_seq18_1_VE1000.json,212482,365696,26,Woman
21,144976,final-intermixed-textured,v2,jsons/MX_seq18_1_VE1000.json,http://54.235.29.9/FacialAge/BNav_EC2/DepthDuration/MX_fS_VE_MTurk/MX_fS_HTML.html#28,28,1280,551,1280,720,1-8-2024,12-36-4,22,VR_target_stimuli/s23_1.3x_3.65_354_BC.png,1000,1.3x,3.65,3.0,2671,992,meters,jsons/MX_seq18_1_VE1000.json,212482,365696,26,Woman
22,144976,final-intermixed-textured,v2,jsons/MX_seq18_1_VE1000.json,http://54.235.29.9/FacialAge/BNav_EC2/DepthDuration/MX_fS_VE_MTurk/MX_fS_HTML.html#28,28,1280,551,1280,720,1-8-2024,12-36-4,23,VR_target_stimuli/s26_0.75x_4_430.png,1000,0.75x,4.0,5.0,7208,1002,meters,jsons/MX_seq18_1_VE1000.json,212482,365696,26,Woman
23,144976,final-intermixed-textured,v2,jsons/MX_seq18_1_VE1000.json,http://54.235.29.9/FacialAge/BNav_EC2/DepthDuration/MX_fS_VE_MTurk/MX_fS_HTML.html#28,28,1280,551,1280,720,1-8-2024,12-36-4,24,VR_target_stimuli/s12_1.3x_3.1_375.png,1000,1.3x,3.1,3.0,2775,1004,meters,jsons/MX_seq18_1_VE1000.json,212482,365696,26,Woman
24,144976,final-intermixed-textured,v2,jsons/MX_seq18_1_VE1000.json,http://54.235.29.9/FacialAge/BNav_EC2/DepthDuration/MX_fS_VE_MTurk/MX_fS_HTML.html#28,28,1280,551,1280,720,1-8-2024,12-36-4,25,VR_target_stimuli/s30_1x_2.3_334_BC.png,1000,1x,2.3,3.0,4273,1005,meters,jsons/MX_seq18_1_VE1000.json,212482,365696,26,Woman
25,144976,final-intermixed-textured,v2,jsons/MX_seq18_1_VE1000.json,http://54.235.29.9/FacialAge/BNav_EC2/DepthDuration/MX_fS_VE_MTurk/MX_fS_HTML.html#28,28,1280,551,1280,720,1-8-2024,12-36-4,26,catch_stimuli/c2.png,1000,,,0.0,2599,1003,meters,jsons/MX_seq18_1_VE1000.json,212482,365696,26,Woman
26,144976,final-intermixed-textured,v2,jsons/MX_seq18_1_VE1000.json,http://54.235.29.9/FacialAge/BNav_EC2/DepthDuration/MX_fS_VE_MTurk/MX_fS_HTML.html#28,28,1280,551,1280,720,1-8-2024,12-36-4,27,VR_target_stimuli/s16_0.75x_1_217_BC.png,1000,0.75x,1.0,2.0,2558,1007,meters,jsons/MX_seq18_1_VE1000.json,212482,365696,26,Woman
27,144976,final-intermixed-textured,v2,jsons/MX_seq18_1_VE1000.json,http://54.235.29.9/FacialAge/BNav_EC2/DepthDuration/MX_fS_VE_MTurk/MX_fS_HTML.html#28,28,1280,551,1280,720,1-8-2024,12-36-4,28,VR_target_stimuli/s17_0.75x_1.8_285.png,1000,0.75x,1.8,2.0,3636,993,meters,jsons/MX_seq18_1_VE1000.json,212482,365696,26,Woman
28,144976,final-intermixed-textured,v2,jsons/MX_seq18_1_VE1000.json,http://54.235.29.9/FacialAge/BNav_EC2/DepthDuration/MX_fS_VE_MTurk/MX_fS_HTML.html#28,28,1280,551,1280,720,1-8-2024,12-36-4,29,VR_target_stimuli/s5_1.3x_4_393.png,1000,1.3x,4.0,5.0,2814,995,meters,jsons/MX_seq18_1_VE1000.json,212482,365696,26,Woman
29,144976,final-intermixed-textured,v2,jsons/MX_seq18_1_VE1000.json,http://54.235.29.9/FacialAge/BNav_EC2/DepthDuration/MX_fS_VE_MTurk/MX_fS_HTML.html#28,28,1280,551,1280,720,1-8-2024,12-36-4,30,VR_target_stimuli/s37_1x_3.3_563.png,1000,1x,3.3,4.0,6531,1003,meters,jsons/MX_seq18_1_VE1000.json,212482,365696,26,Woman
30,144976,final-intermixed-textured,v2,jsons/MX_seq18_1_VE1000.json,http://54.235.29.9/FacialAge/BNav_EC2/DepthDuration/MX_fS_VE_MTurk/MX_fS_HTML.html#28,28,1280,551,1280,720,1-8-2024,12-36-4,31,VR_target_stimuli/s46_0.75x_2.42_343_BC.png,1000,0.75x,2.42,4.0,2585,1002,meters,jsons/MX_seq18_1_VE1000.json,212482,365696,26,Woman
31,144976,final-intermixed-textured,v2,jsons/MX_seq18_1_VE1000.json,http://54.235.29.9/FacialAge/BNav_EC2/DepthDuration/MX_fS_VE_MTurk/MX_fS_HTML.html#28,28,1280,551,1280,720,1-8-2024,12-36-4,32,VR_target_stimuli/s22_1x_4.29_354_BC.png,1000,1x,4.29,5.0,2593,990,meters,jsons/MX_seq18_1_VE1000.json,212482,365696,26,Woman
32,144976,final-intermixed-textured,v2,jsons/MX_seq18_1_VE1000.json,http://54.235.29.9/FacialAge/BNav_EC2/DepthDuration/MX_fS_VE_MTurk/MX_fS_HTML.html#28,28,1280,551,1280,720,1-8-2024,12-36-4,33,VR_target_stimuli/s42_1.3x_3.2_305_BC.png,1000,1.3x,3.2,5.0,2791,1004,meters,jsons/MX_seq18_1_VE1000.json,212482,365696,26,Woman
33,144976,final-intermixed-textured,v2,jsons/MX_seq18_1_VE1000.json,http://54.235.29.9/FacialAge/BNav_EC2/DepthDuration/MX_fS_VE_MTurk/MX_fS_HTML.html#28,28,1280,551,1280,720,1-8-2024,12-36-4,34,catch_stimuli/c3.png,1000,,,0.0,2671,995,meters,jsons/MX_seq18_1_VE1000.json,212482,365696,26,Woman
34,144976,final-intermixed-textured,v2,jsons/MX_seq18_1_VE1000.json,http://54.235.29.9/FacialAge/BNav_EC2/DepthDuration/MX_fS_VE_MTurk/MX_fS_HTML.html#28,28,1280,551,1280,720,1-8-2024,12-36-4,35,VR_target_stimuli/s25_1x_1.4_290_BC.png,1000,1x,1.4,2.0,2513,1001,meters,jsons/MX_seq18_1_VE1000.json,212482,365696,26,Woman
35,144976,final-intermixed-textured,v2,jsons/MX_seq18_1_VE1000.json,http://54.235.29.9/FacialAge/BNav_EC2/DepthDuration/MX_fS_VE_MTurk/MX_fS_HTML.html#28,28,1280,551,1280,720,1-8-2024,12-36-4,36,VR_target_stimuli/s50_0.75x_4.53_517_BC.png,1000,0.75x,4.53,2.0,3805,992,meters,jsons/MX_seq18_1_VE1000.json,212482,365696,26,Woman
36,144976,final-intermixed-textured,v2,jsons/MX_seq18_1_VE1000.json,http://54.235.29.9/FacialAge/BNav_EC2/DepthDuration/MX_fS_VE_MTurk/MX_fS_HTML.html#28,28,1280,551,1280,720,1-8-2024,12-36-4,37,VR_target_stimuli/s53_1.3x_1.6_355_BC.png,1000,1.3x,1.6,0.5,3176,1004,meters,jsons/MX_seq18_1_VE1000.json,212482,365696,26,Woman
37,144976,final-intermixed-textured,v2,jsons/MX_seq18_1_VE1000.json,http://54.235.29.9/FacialAge/BNav_EC2/DepthDuration/MX_fS_VE_MTurk/MX_fS_HTML.html#28,28,1280,551,1280,720,1-8-2024,12-36-4,38,VR_target_stimuli/s38_1.3x_3.55_358.png,1000,1.3x,3.55,3.0,2559,997,meters,jsons/MX_seq18_1_VE1000.json,212482,365696,26,Woman
38,144976,final-intermixed-textured,v2,jsons/MX_seq18_1_VE1000.json,http://54.235.29.9/FacialAge/BNav_EC2/DepthDuration/MX_fS_VE_MTurk/MX_fS_HTML.html#28,28,1280,551,1280,720,1-8-2024,12-36-4,39,VR_target_stimuli/s9_1x_1.2_263.png,1000,1x,1.2,1.0,2409,1008,meters,jsons/MX_seq18_1_VE1000.json,212482,365696,26,Woman
39,144976,final-intermixed-textured,v2,jsons/MX_seq18_1_VE1000.json,http://54.235.29.9/FacialAge/BNav_EC2/DepthDuration/MX_fS_VE_MTurk/MX_fS_HTML.html#28,28,1280,551,1280,720,1-8-2024,12-36-4,40,VR_target_stimuli/s44_0.75x_4.4_314.png,1000,0.75x,4.4,5.0,2541,1000,meters,jsons/MX_seq18_1_VE1000.json,212482,365696,26,Woman
40,144976,final-intermixed-textured,v2,jsons/MX_seq18_1_VE1000.json,http://54.235.29.9/FacialAge/BNav_EC2/DepthDuration/MX_fS_VE_MTurk/MX_fS_HTML.html#28,28,1280,551,1280,720,1-8-2024,12-36-4,41,VR_target_stimuli/s3_1x_5_385.png,1000,1x,5.0,6.0,2779,1007,meters,jsons/MX_seq18_1_VE1000.json,212482,365696,26,Woman
41,144976,final-intermixed-textured,v2,jsons/MX_seq18_1_VE1000.json,http://54.235.29.9/FacialAge/BNav_EC2/DepthDuration/MX_fS_VE_MTurk/MX_fS_HTML.html#28,28,1280,551,1280,720,1-8-2024,12-36-4,42,VR_target_stimuli/s1_1.3x_1.7_261_BC.png,1000,1.3x,1.7,1.0,2739,993,meters,jsons/MX_seq18_1_VE1000.json,212482,365696,26,Woman
42,144976,final-intermixed-textured,v2,jsons/MX_seq18_1_VE1000.json,http://54.235.29.9/FacialAge/BNav_EC2/DepthDuration/MX_fS_VE_MTurk/MX_fS_HTML.html#28,28,1280,551,1280,720,1-8-2024,12-36-4,43,VR_target_stimuli/s11_0.75x_5_359.png,1000,0.75x,5.0,4.0,2826,1006,meters,jsons/MX_seq18_1_VE1000.json,212482,365696,26,Woman
43,144976,final-intermixed-textured,v2,jsons/MX_seq18_1_VE1000.json,http://54.235.29.9/FacialAge/BNav_EC2/DepthDuration/MX_fS_VE_MTurk/MX_fS_HTML.html#28,28,1280,551,1280,720,1-8-2024,12-36-4,44,VR_target_stimuli/s2_1.3x_2.7_397.png,1000,1.3x,2.7,1.0,4202,999,meters,jsons/MX_seq18_1_VE1000.json,212482,365696,26,Woman
44,144976,final-intermixed-textured,v2,jsons/MX_seq18_1_VE1000.json,http://54.235.29.9/FacialAge/BNav_EC2/DepthDuration/MX_fS_VE_MTurk/MX_fS_HTML.html#28,28,1280,551,1280,720,1-8-2024,12-36-4,45,catch_stimuli/c4.png,1000,,,0.0,2614,996,meters,jsons/MX_seq18_1_VE1000.json,212482,365696,26,Woman
45,144976,final-intermixed-textured,v2,jsons/MX_seq18_1_VE1000.json,http://54.235.29.9/FacialAge/BNav_EC2/DepthDuration/MX_fS_VE_MTurk/MX_fS_HTML.html#28,28,1280,551,1280,720,1-8-2024,12-36-4,46,VR_target_stimuli/s6_1x_2.1_293_BC.png,1000,1x,2.1,2.0,2481,1006,meters,jsons/MX_seq18_1_VE1000.json,212482,365696,26,Woman
46,144976,final-intermixed-textured,v2,jsons/MX_seq18_1_VE1000.json,http://54.235.29.9/FacialAge/BNav_EC2/DepthDuration/MX_fS_VE_MTurk/MX_fS_HTML.html#28,28,1280,551,1280,720,1-8-2024,12-36-4,47,VR_target_stimuli/s0_0.75x_2.6_345_BC.png,1000,0.75x,2.6,2.0,2570,1008,meters,jsons/MX_seq18_1_VE1000.json,212482,365696,26,Woman
47,144976,final-intermixed-textured,v2,jsons/MX_seq18_1_VE1000.json,http://54.235.29.9/FacialAge/BNav_EC2/DepthDuration/MX_fS_VE_MTurk/MX_fS_HTML.html#28,28,1280,551,1280,720,1-8-2024,12-36-4,48,VR_target_stimuli/s34_0.75x_2.8_269_BC.png,1000,0.75x,2.8,4.0,2531,1003,meters,jsons/MX_seq18_1_VE1000.json,212482,365696,26,Woman
48,144976,final-intermixed-textured,v2,jsons/MX_seq18_1_VE1000.json,http://54.235.29.9/FacialAge/BNav_EC2/DepthDuration/MX_fS_VE_MTurk/MX_fS_HTML.html#28,28,1280,551,1280,720,1-8-2024,12-36-4,49,VR_target_stimuli/s13_1.3x_2.4_313_BC.png,1000,1.3x,2.4,4.0,2484,994,meters,jsons/MX_seq18_1_VE1000.json,212482,365696,26,Woman
49,144976,final-intermixed-textured,v2,jsons/MX_seq18_1_VE1000.json,http://54.235.29.9/FacialAge/BNav_EC2/DepthDuration/MX_fS_VE_MTurk/MX_fS_HTML.html#28,28,1280,551,1280,720,1-8-2024,12-36-4,50,VR_target_stimuli/s14_1x_ 3.83_357_BC.png,1000,1x,3.83,3.0,2482,1001,meters,jsons/MX_seq18_1_VE1000.json,212482,365696,26,Woman
50,144976,final-intermixed-textured,v2,jsons/MX_seq18_1_VE1000.json,http://54.235.29.9/FacialAge/BNav_EC2/DepthDuration/MX_fS_VE_MTurk/MX_fS_HTML.html#28,28,1280,551,1280,720,1-8-2024,12-36-4,51,VR_target_stimuli/s47_1.3x_3.45_373.png,1000,1.3x,3.45,2.0,2333,1000,meters,jsons/MX_seq18_1_VE1000.json,212482,365696,26,Woman
51,144976,final-intermixed-textured,v2,jsons/MX_seq18_1_VE1000.json,http://54.235.29.9/FacialAge/BNav_EC2/DepthDuration/MX_fS_VE_MTurk/MX_fS_HTML.html#28,28,1280,551,1280,720,1-8-2024,12-36-4,52,VR_target_stimuli/s29_0.75x_1.3_246.png,1000,0.75x,1.3,2.0,2650,1007,meters,jsons/MX_seq18_1_VE1000.json,212482,365696,26,Woman
52,144976,final-intermixed-textured,v2,jsons/MX_seq18_1_VE1000.json,http://54.235.29.9/FacialAge/BNav_EC2/DepthDuration/MX_fS_VE_MTurk/MX_fS_HTML.html#28,28,1280,551,1280,720,1-8-2024,12-36-4,53,catch_stimuli/c5.png,1000,,,0.0,2668,1004,meters,jsons/MX_seq18_1_VE1000.json,212482,365696,26,Woman
53,144976,final-intermixed-textured,v2,jsons/MX_seq18_1_VE1000.json,http://54.235.29.9/FacialAge/BNav_EC2/DepthDuration/MX_fS_VE_MTurk/MX_fS_HTML.html#28,28,1280,551,1280,720,1-8-2024,12-36-4,54,VR_target_stimuli/s28_1x_3.2_362.png,1000,1x,3.2,2.0,2883,997,meters,jsons/MX_seq18_1_VE1000.json,212482,365696,26,Woman
54,144976,final-intermixed-textured,v2,jsons/MX_seq18_1_VE1000.json,http://54.235.29.9/FacialAge/BNav_EC2/DepthDuration/MX_fS_VE_MTurk/MX_fS_HTML.html#28,28,1280,551,1280,720,1-8-2024,12-36-4,55,VR_target_stimuli/s48_0.75x_2.55_243_BC.png,1000,0.75x,2.55,2.0,2409,996,meters,jsons/MX_seq18_1_VE1000.json,212482,365696,26,Woman
55,144976,final-intermixed-textured,v2,jsons/MX_seq18_1_VE1000.json,http://54.235.29.9/FacialAge/BNav_EC2/DepthDuration/MX_fS_VE_MTurk/MX_fS_HTML.html#28,28,1280,551,1280,720,1-8-2024,12-36-4,56,VR_target_stimuli/s19_1.3x_1.21_270_BC.png,1000,1.3x,1.21,1.0,2580,1000,meters,jsons/MX_seq18_1_VE1000.json,212482,365696,26,Woman
56,144976,final-intermixed-textured,v2,jsons/MX_seq18_1_VE1000.json,http://54.235.29.9/FacialAge/BNav_EC2/DepthDuration/MX_fS_VE_MTurk/MX_fS_HTML.html#28,28,1280,551,1280,720,1-8-2024,12-36-4,57,VR_target_stimuli/s21_1x_4.22_379.png,1000,1x,4.22,1.0,2484,989,meters,jsons/MX_seq18_1_VE1000.json,212482,365696,26,Woman
57,144976,final-intermixed-textured,v2,jsons/MX_seq18_1_VE1000.json,http://54.235.29.9/FacialAge/BNav_EC2/DepthDuration/MX_fS_VE_MTurk/MX_fS_HTML.html#28,28,1280,551,1280,720,1-8-2024,12-36-4,58,VR_target_stimuli/s8_1x_3.1_332_BC.png,1000,1x,3.1,3.0,2744,997,meters,jsons/MX_seq18_1_VE1000.json,212482,365696,26,Woman
58,144976,final-intermixed-textured,v2,jsons/MX_seq18_1_VE1000.json,http://54.235.29.9/FacialAge/BNav_EC2/DepthDuration/MX_fS_VE_MTurk/MX_fS_HTML.html#28,28,1280,551,1280,720,1-8-2024,12-36-4,59,VR_target_stimuli/s27_0.75x_1.76_243.png,1000,0.75x,1.76,2.0,2603,1003,meters,jsons/MX_seq18_1_VE1000.json,212482,365696,26,Woman
59,144976,final-intermixed-textured,v2,jsons/MX_seq18_1_VE1000.json,http://54.235.29.9/FacialAge/BNav_EC2/DepthDuration/MX_fS_VE_MTurk/MX_fS_HTML.html#28,28,1280,551,1280,720,1-8-2024,12-36-4,60,VR_target_stimuli/s15_1.3x_4.2_389.png,1000,1.3x,4.2,5.0,2729,988,meters,jsons/MX_seq18_1_VE1000.json,212482,365696,26,Woman
