,subjID,experimentName,versionName,sequenceName,url,selected_row,windowWidth,windowHeight,screenWidth,screenHeight,startDate,startTime,trial,stimulus,duration,scale,actual_depth,depth_estimate,trial_RT,log_sceneDuration,unitSelection,seq_filepath,experimentTime,totalTime,age,gender
0,167496,final-intermixed-textured,v2,jsons/MX_seq6_0_VE1000.json,http://54.235.29.9/FacialAge/BNav_EC2/DepthDuration/MX_fS_VE_MTurk/MX_fS_HTML.html#261,261,1280,720,1280,720,1-8-2024,16-46-38,1,VR_target_stimuli/s34_0.75x_2.8_269_BC.png,1000,0.75x,2.8,3.0,7289,996,feet,jsons/MX_seq6_0_VE1000.json,311126,559545,25,Woman
1,167496,final-intermixed-textured,v2,jsons/MX_seq6_0_VE1000.json,http://54.235.29.9/FacialAge/BNav_EC2/DepthDuration/MX_fS_VE_MTurk/MX_fS_HTML.html#261,261,1280,720,1280,720,1-8-2024,16-46-38,2,VR_target_stimuli/s13_1x_2.4_310_BC.png,1000,1x,2.4,5.0,4600,1002,feet,jsons/MX_seq6_0_VE1000.json,311126,559545,25,Woman
2,167496,final-intermixed-textured,v2,jsons/MX_seq6_0_VE1000.json,http://54.235.29.9/FacialAge/BNav_EC2/DepthDuration/MX_fS_VE_MTurk/MX_fS_HTML.html#261,261,1280,720,1280,720,1-8-2024,16-46-38,3,VR_target_stimuli/s14_1.3x_3.83_359.png,1000,1.3x,3.83,4.0,5600,986,feet,jsons/MX_seq6_0_VE1000.json,311126,559545,25,Woman
3,167496,final-intermixed-textured,v2,jsons/MX_seq6_0_VE1000.json,http://54.235.29.9/FacialAge/BNav_EC2/DepthDuration/MX_fS_VE_MTurk/MX_fS_HTML.html#261,261,1280,720,1280,720,1-8-2024,16-46-38,4,VR_target_stimuli/s47_1x_3.45_370.png,1000,1x,3.45,5.0,4418,987,feet,jsons/MX_seq6_0_VE1000.json,311126,559545,25,Woman
4,167496,final-intermixed-textured,v2,jsons/MX_seq6_0_VE1000.json,http://54.235.29.9/FacialAge/BNav_EC2/DepthDuration/MX_fS_VE_MTurk/MX_fS_HTML.html#261,261,1280,720,1280,720,1-8-2024,16-46-38,5,VR_target_stimuli/s29_0.75x_1.3_246.png,1000,0.75x,1.3,3.0,4586,988,feet,jsons/MX_seq6_0_VE1000.json,311126,559545,25,Woman
5,167496,final-intermixed-textured,v2,jsons/MX_seq6_0_VE1000.json,http://54.235.29.9/FacialAge/BNav_EC2/DepthDuration/MX_fS_VE_MTurk/MX_fS_HTML.html#261,261,1280,720,1280,720,1-8-2024,16-46-38,6,VR_target_stimuli/s28_1.3x_3.2_365_BC.png,1000,1.3x,3.2,5.0,4893,1009,feet,jsons/MX_seq6_0_VE1000.json,311126,559545,25,Woman
6,167496,final-intermixed-textured,v2,jsons/MX_seq6_0_VE1000.json,http://54.235.29.9/FacialAge/BNav_EC2/DepthDuration/MX_fS_VE_MTurk/MX_fS_HTML.html#261,261,1280,720,1280,720,1-8-2024,16-46-38,7,catch_stimuli/c0.png,1000,,,0.0,4419,1003,feet,jsons/MX_seq6_0_VE1000.json,311126,559545,25,Woman
7,167496,final-intermixed-textured,v2,jsons/MX_seq6_0_VE1000.json,http://54.235.29.9/FacialAge/BNav_EC2/DepthDuration/MX_fS_VE_MTurk/MX_fS_HTML.html#261,261,1280,720,1280,720,1-8-2024,16-46-38,8,VR_target_stimuli/s48_1.3x_2.55_255_BC.png,1000,1.3x,2.55,3.0,4704,988,feet,jsons/MX_seq6_0_VE1000.json,311126,559545,25,Woman
8,167496,final-intermixed-textured,v2,jsons/MX_seq6_0_VE1000.json,http://54.235.29.9/FacialAge/BNav_EC2/DepthDuration/MX_fS_VE_MTurk/MX_fS_HTML.html#261,261,1280,720,1280,720,1-8-2024,16-46-38,9,VR_target_stimuli/s19_1x_1.21_263.png,1000,1x,1.21,3.5,5849,1002,feet,jsons/MX_seq6_0_VE1000.json,311126,559545,25,Woman
9,167496,final-intermixed-textured,v2,jsons/MX_seq6_0_VE1000.json,http://54.235.29.9/FacialAge/BNav_EC2/DepthDuration/MX_fS_VE_MTurk/MX_fS_HTML.html#261,261,1280,720,1280,720,1-8-2024,16-46-38,10,VR_target_stimuli/s21_0.75x_4.22_374_BC.png,1000,0.75x,4.22,6.0,5270,986,feet,jsons/MX_seq6_0_VE1000.json,311126,559545,25,Woman
10,167496,final-intermixed-textured,v2,jsons/MX_seq6_0_VE1000.json,http://54.235.29.9/FacialAge/BNav_EC2/DepthDuration/MX_fS_VE_MTurk/MX_fS_HTML.html#261,261,1280,720,1280,720,1-8-2024,16-46-38,11,VR_target_stimuli/s8_1x_3.1_332_BC.png,1000,1x,3.1,5.0,4424,993,feet,jsons/MX_seq6_0_VE1000.json,311126,559545,25,Woman
11,167496,final-intermixed-textured,v2,jsons/MX_seq6_0_VE1000.json,http://54.235.29.9/FacialAge/BNav_EC2/DepthDuration/MX_fS_VE_MTurk/MX_fS_HTML.html#261,261,1280,720,1280,720,1-8-2024,16-46-38,12,VR_target_stimuli/s27_1.3x_1.76_250.png,1000,1.3x,1.76,3.0,4867,1001,feet,jsons/MX_seq6_0_VE1000.json,311126,559545,25,Woman
12,167496,final-intermixed-textured,v2,jsons/MX_seq6_0_VE1000.json,http://54.235.29.9/FacialAge/BNav_EC2/DepthDuration/MX_fS_VE_MTurk/MX_fS_HTML.html#261,261,1280,720,1280,720,1-8-2024,16-46-38,13,VR_target_stimuli/s15_0.75x_4.2_388.png,1000,0.75x,4.2,7.0,4900,1002,feet,jsons/MX_seq6_0_VE1000.json,311126,559545,25,Woman
13,167496,final-intermixed-textured,v2,jsons/MX_seq6_0_VE1000.json,http://54.235.29.9/FacialAge/BNav_EC2/DepthDuration/MX_fS_VE_MTurk/MX_fS_HTML.html#261,261,1280,720,1280,720,1-8-2024,16-46-38,14,VR_target_stimuli/s4_1.3x_1.4_328.png,1000,1.3x,1.4,4.0,5552,1002,feet,jsons/MX_seq6_0_VE1000.json,311126,559545,25,Woman
14,167496,final-intermixed-textured,v2,jsons/MX_seq6_0_VE1000.json,http://54.235.29.9/FacialAge/BNav_EC2/DepthDuration/MX_fS_VE_MTurk/MX_fS_HTML.html#261,261,1280,720,1280,720,1-8-2024,16-46-38,15,VR_target_stimuli/s35_1x_2_331_BC.png,1000,1x,2.0,4.0,4435,1002,feet,jsons/MX_seq6_0_VE1000.json,311126,559545,25,Woman
15,167496,final-intermixed-textured,v2,jsons/MX_seq6_0_VE1000.json,http://54.235.29.9/FacialAge/BNav_EC2/DepthDuration/MX_fS_VE_MTurk/MX_fS_HTML.html#261,261,1280,720,1280,720,1-8-2024,16-46-38,16,VR_target_stimuli/s49_0.75x_4.67_328.png,1000,0.75x,4.67,6.0,4235,992,feet,jsons/MX_seq6_0_VE1000.json,311126,559545,25,Woman
16,167496,final-intermixed-textured,v2,jsons/MX_seq6_0_VE1000.json,http://54.235.29.9/FacialAge/BNav_EC2/DepthDuration/MX_fS_VE_MTurk/MX_fS_HTML.html#261,261,1280,720,1280,720,1-8-2024,16-46-38,17,catch_stimuli/c1.png,1000,,,0.0,4051,1001,feet,jsons/MX_seq6_0_VE1000.json,311126,559545,25,Woman
17,167496,final-intermixed-textured,v2,jsons/MX_seq6_0_VE1000.json,http://54.235.29.9/FacialAge/BNav_EC2/DepthDuration/MX_fS_VE_MTurk/MX_fS_HTML.html#261,261,1280,720,1280,720,1-8-2024,16-46-38,18,VR_target_stimuli/s7_0.75x_1.5_253_BC.png,1000,0.75x,1.5,4.0,4869,987,feet,jsons/MX_seq6_0_VE1000.json,311126,559545,25,Woman
18,167496,final-intermixed-textured,v2,jsons/MX_seq6_0_VE1000.json,http://54.235.29.9/FacialAge/BNav_EC2/DepthDuration/MX_fS_VE_MTurk/MX_fS_HTML.html#261,261,1280,720,1280,720,1-8-2024,16-46-38,19,VR_target_stimuli/s20_1.3x_4.99_412_BC.png,1000,1.3x,4.99,6.0,4536,1003,feet,jsons/MX_seq6_0_VE1000.json,311126,559545,25,Woman
19,167496,final-intermixed-textured,v2,jsons/MX_seq6_0_VE1000.json,http://54.235.29.9/FacialAge/BNav_EC2/DepthDuration/MX_fS_VE_MTurk/MX_fS_HTML.html#261,261,1280,720,1280,720,1-8-2024,16-46-38,20,VR_target_stimuli/s31_1x_4.96_333.png,1000,1x,4.96,5.0,4624,993,feet,jsons/MX_seq6_0_VE1000.json,311126,559545,25,Woman
20,167496,final-intermixed-textured,v2,jsons/MX_seq6_0_VE1000.json,http://54.235.29.9/FacialAge/BNav_EC2/DepthDuration/MX_fS_VE_MTurk/MX_fS_HTML.html#261,261,1280,720,1280,720,1-8-2024,16-46-38,21,VR_target_stimuli/s33_1.3x_3.1_378_BC.png,1000,1.3x,3.1,4.0,4203,1004,feet,jsons/MX_seq6_0_VE1000.json,311126,559545,25,Woman
21,167496,final-intermixed-textured,v2,jsons/MX_seq6_0_VE1000.json,http://54.235.29.9/FacialAge/BNav_EC2/DepthDuration/MX_fS_VE_MTurk/MX_fS_HTML.html#261,261,1280,720,1280,720,1-8-2024,16-46-38,22,VR_target_stimuli/s52_0.75x_3.2_270.png,1000,0.75x,3.2,6.0,5285,987,feet,jsons/MX_seq6_0_VE1000.json,311126,559545,25,Woman
22,167496,final-intermixed-textured,v2,jsons/MX_seq6_0_VE1000.json,http://54.235.29.9/FacialAge/BNav_EC2/DepthDuration/MX_fS_VE_MTurk/MX_fS_HTML.html#261,261,1280,720,1280,720,1-8-2024,16-46-38,23,VR_target_stimuli/s32_1x_1.5_218_BC.png,1000,1x,1.5,3.0,4553,993,feet,jsons/MX_seq6_0_VE1000.json,311126,559545,25,Woman
23,167496,final-intermixed-textured,v2,jsons/MX_seq6_0_VE1000.json,http://54.235.29.9/FacialAge/BNav_EC2/DepthDuration/MX_fS_VE_MTurk/MX_fS_HTML.html#261,261,1280,720,1280,720,1-8-2024,16-46-38,24,VR_target_stimuli/s18_0.75x_2.25_341_BC.png,1000,0.75x,2.25,4.0,4585,989,feet,jsons/MX_seq6_0_VE1000.json,311126,559545,25,Woman
24,167496,final-intermixed-textured,v2,jsons/MX_seq6_0_VE1000.json,http://54.235.29.9/FacialAge/BNav_EC2/DepthDuration/MX_fS_VE_MTurk/MX_fS_HTML.html#261,261,1280,720,1280,720,1-8-2024,16-46-38,25,VR_target_stimuli/s39_1.3x_1_208.png,1000,1.3x,1.0,1.0,4753,994,feet,jsons/MX_seq6_0_VE1000.json,311126,559545,25,Woman
25,167496,final-intermixed-textured,v2,jsons/MX_seq6_0_VE1000.json,http://54.235.29.9/FacialAge/BNav_EC2/DepthDuration/MX_fS_VE_MTurk/MX_fS_HTML.html#261,261,1280,720,1280,720,1-8-2024,16-46-38,26,catch_stimuli/c2.png,1000,,,0.0,4533,992,feet,jsons/MX_seq6_0_VE1000.json,311126,559545,25,Woman
26,167496,final-intermixed-textured,v2,jsons/MX_seq6_0_VE1000.json,http://54.235.29.9/FacialAge/BNav_EC2/DepthDuration/MX_fS_VE_MTurk/MX_fS_HTML.html#261,261,1280,720,1280,720,1-8-2024,16-46-38,27,VR_target_stimuli/s51_1x_3.64_461.png,1000,1x,3.64,3.0,4469,989,feet,jsons/MX_seq6_0_VE1000.json,311126,559545,25,Woman
27,167496,final-intermixed-textured,v2,jsons/MX_seq6_0_VE1000.json,http://54.235.29.9/FacialAge/BNav_EC2/DepthDuration/MX_fS_VE_MTurk/MX_fS_HTML.html#261,261,1280,720,1280,720,1-8-2024,16-46-38,28,VR_target_stimuli/s43_1x_2.2_354.png,1000,1x,2.2,3.0,4186,990,feet,jsons/MX_seq6_0_VE1000.json,311126,559545,25,Woman
28,167496,final-intermixed-textured,v2,jsons/MX_seq6_0_VE1000.json,http://54.235.29.9/FacialAge/BNav_EC2/DepthDuration/MX_fS_VE_MTurk/MX_fS_HTML.html#261,261,1280,720,1280,720,1-8-2024,16-46-38,29,VR_target_stimuli/s24_0.75x_3.3_344_BC.png,1000,0.75x,3.3,7.0,5372,1008,feet,jsons/MX_seq6_0_VE1000.json,311126,559545,25,Woman
29,167496,final-intermixed-textured,v2,jsons/MX_seq6_0_VE1000.json,http://54.235.29.9/FacialAge/BNav_EC2/DepthDuration/MX_fS_VE_MTurk/MX_fS_HTML.html#261,261,1280,720,1280,720,1-8-2024,16-46-38,30,VR_target_stimuli/s10_1.3x_2.7_325_BC.png,1000,1.3x,2.7,5.0,4485,986,feet,jsons/MX_seq6_0_VE1000.json,311126,559545,25,Woman
30,167496,final-intermixed-textured,v2,jsons/MX_seq6_0_VE1000.json,http://54.235.29.9/FacialAge/BNav_EC2/DepthDuration/MX_fS_VE_MTurk/MX_fS_HTML.html#261,261,1280,720,1280,720,1-8-2024,16-46-38,31,VR_target_stimuli/s36_1x_4.1_423_BC.png,1000,1x,4.1,6.0,4552,994,feet,jsons/MX_seq6_0_VE1000.json,311126,559545,25,Woman
31,167496,final-intermixed-textured,v2,jsons/MX_seq6_0_VE1000.json,http://54.235.29.9/FacialAge/BNav_EC2/DepthDuration/MX_fS_VE_MTurk/MX_fS_HTML.html#261,261,1280,720,1280,720,1-8-2024,16-46-38,32,VR_target_stimuli/s40_1.3x_1.2_332.png,1000,1.3x,1.2,2.0,4269,1003,feet,jsons/MX_seq6_0_VE1000.json,311126,559545,25,Woman
32,167496,final-intermixed-textured,v2,jsons/MX_seq6_0_VE1000.json,http://54.235.29.9/FacialAge/BNav_EC2/DepthDuration/MX_fS_VE_MTurk/MX_fS_HTML.html#261,261,1280,720,1280,720,1-8-2024,16-46-38,33,VR_target_stimuli/s41_0.75x_2.1_281.png,1000,0.75x,2.1,4.0,4477,1002,feet,jsons/MX_seq6_0_VE1000.json,311126,559545,25,Woman
33,167496,final-intermixed-textured,v2,jsons/MX_seq6_0_VE1000.json,http://54.235.29.9/FacialAge/BNav_EC2/DepthDuration/MX_fS_VE_MTurk/MX_fS_HTML.html#261,261,1280,720,1280,720,1-8-2024,16-46-38,34,catch_stimuli/c3.png,1000,,,0.0,4319,1003,feet,jsons/MX_seq6_0_VE1000.json,311126,559545,25,Woman
34,167496,final-intermixed-textured,v2,jsons/MX_seq6_0_VE1000.json,http://54.235.29.9/FacialAge/BNav_EC2/DepthDuration/MX_fS_VE_MTurk/MX_fS_HTML.html#261,261,1280,720,1280,720,1-8-2024,16-46-38,35,VR_target_stimuli/s45_1.3x_3.5_377_BC.png,1000,1.3x,3.5,5.0,4135,994,feet,jsons/MX_seq6_0_VE1000.json,311126,559545,25,Woman
35,167496,final-intermixed-textured,v2,jsons/MX_seq6_0_VE1000.json,http://54.235.29.9/FacialAge/BNav_EC2/DepthDuration/MX_fS_VE_MTurk/MX_fS_HTML.html#261,261,1280,720,1280,720,1-8-2024,16-46-38,36,VR_target_stimuli/s23_1x_3.65_353_BC.png,1000,1x,3.65,6.0,4217,992,feet,jsons/MX_seq6_0_VE1000.json,311126,559545,25,Woman
36,167496,final-intermixed-textured,v2,jsons/MX_seq6_0_VE1000.json,http://54.235.29.9/FacialAge/BNav_EC2/DepthDuration/MX_fS_VE_MTurk/MX_fS_HTML.html#261,261,1280,720,1280,720,1-8-2024,16-46-38,37,VR_target_stimuli/s26_0.75x_4_430_BC.png,1000,0.75x,4.0,7.0,4168,997,feet,jsons/MX_seq6_0_VE1000.json,311126,559545,25,Woman
37,167496,final-intermixed-textured,v2,jsons/MX_seq6_0_VE1000.json,http://54.235.29.9/FacialAge/BNav_EC2/DepthDuration/MX_fS_VE_MTurk/MX_fS_HTML.html#261,261,1280,720,1280,720,1-8-2024,16-46-38,38,VR_target_stimuli/s12_0.75x_3.1_364.png,1000,0.75x,3.1,7.0,3986,988,feet,jsons/MX_seq6_0_VE1000.json,311126,559545,25,Woman
38,167496,final-intermixed-textured,v2,jsons/MX_seq6_0_VE1000.json,http://54.235.29.9/FacialAge/BNav_EC2/DepthDuration/MX_fS_VE_MTurk/MX_fS_HTML.html#261,261,1280,720,1280,720,1-8-2024,16-46-38,39,VR_target_stimuli/s30_1.3x_2.3_337.png,1000,1.3x,2.3,3.0,6219,990,feet,jsons/MX_seq6_0_VE1000.json,311126,559545,25,Woman
39,167496,final-intermixed-textured,v2,jsons/MX_seq6_0_VE1000.json,http://54.235.29.9/FacialAge/BNav_EC2/DepthDuration/MX_fS_VE_MTurk/MX_fS_HTML.html#261,261,1280,720,1280,720,1-8-2024,16-46-38,40,VR_target_stimuli/s16_1x_1_219.png,1000,1x,1.0,3.0,4065,993,feet,jsons/MX_seq6_0_VE1000.json,311126,559545,25,Woman
40,167496,final-intermixed-textured,v2,jsons/MX_seq6_0_VE1000.json,http://54.235.29.9/FacialAge/BNav_EC2/DepthDuration/MX_fS_VE_MTurk/MX_fS_HTML.html#261,261,1280,720,1280,720,1-8-2024,16-46-38,41,VR_target_stimuli/s17_1.3x_1.8_300_BC.png,1000,1.3x,1.8,3.0,4367,999,feet,jsons/MX_seq6_0_VE1000.json,311126,559545,25,Woman
41,167496,final-intermixed-textured,v2,jsons/MX_seq6_0_VE1000.json,http://54.235.29.9/FacialAge/BNav_EC2/DepthDuration/MX_fS_VE_MTurk/MX_fS_HTML.html#261,261,1280,720,1280,720,1-8-2024,16-46-38,42,VR_target_stimuli/s5_0.75x_4_375_BC.png,1000,0.75x,4.0,7.0,4369,1004,feet,jsons/MX_seq6_0_VE1000.json,311126,559545,25,Woman
42,167496,final-intermixed-textured,v2,jsons/MX_seq6_0_VE1000.json,http://54.235.29.9/FacialAge/BNav_EC2/DepthDuration/MX_fS_VE_MTurk/MX_fS_HTML.html#261,261,1280,720,1280,720,1-8-2024,16-46-38,43,VR_target_stimuli/s37_1x_3.3_563.png,1000,1x,3.3,5.0,3972,1003,feet,jsons/MX_seq6_0_VE1000.json,311126,559545,25,Woman
43,167496,final-intermixed-textured,v2,jsons/MX_seq6_0_VE1000.json,http://54.235.29.9/FacialAge/BNav_EC2/DepthDuration/MX_fS_VE_MTurk/MX_fS_HTML.html#261,261,1280,720,1280,720,1-8-2024,16-46-38,44,VR_target_stimuli/s46_0.75x_2.42_343.png,1000,0.75x,2.42,7.0,4267,1003,feet,jsons/MX_seq6_0_VE1000.json,311126,559545,25,Woman
44,167496,final-intermixed-textured,v2,jsons/MX_seq6_0_VE1000.json,http://54.235.29.9/FacialAge/BNav_EC2/DepthDuration/MX_fS_VE_MTurk/MX_fS_HTML.html#261,261,1280,720,1280,720,1-8-2024,16-46-38,45,catch_stimuli/c4.png,1000,,,0.0,4301,992,feet,jsons/MX_seq6_0_VE1000.json,311126,559545,25,Woman
45,167496,final-intermixed-textured,v2,jsons/MX_seq6_0_VE1000.json,http://54.235.29.9/FacialAge/BNav_EC2/DepthDuration/MX_fS_VE_MTurk/MX_fS_HTML.html#261,261,1280,720,1280,720,1-8-2024,16-46-38,46,VR_target_stimuli/s22_1.3x_4.29_364.png,1000,1.3x,4.29,7.0,4501,999,feet,jsons/MX_seq6_0_VE1000.json,311126,559545,25,Woman
46,167496,final-intermixed-textured,v2,jsons/MX_seq6_0_VE1000.json,http://54.235.29.9/FacialAge/BNav_EC2/DepthDuration/MX_fS_VE_MTurk/MX_fS_HTML.html#261,261,1280,720,1280,720,1-8-2024,16-46-38,47,VR_target_stimuli/s42_1x_3.2_303_BC.png,1000,1x,3.2,6.0,4552,1001,feet,jsons/MX_seq6_0_VE1000.json,311126,559545,25,Woman
47,167496,final-intermixed-textured,v2,jsons/MX_seq6_0_VE1000.json,http://54.235.29.9/FacialAge/BNav_EC2/DepthDuration/MX_fS_VE_MTurk/MX_fS_HTML.html#261,261,1280,720,1280,720,1-8-2024,16-46-38,48,VR_target_stimuli/s25_1x_1.4_290_BC.png,1000,1x,1.4,4.0,4868,992,feet,jsons/MX_seq6_0_VE1000.json,311126,559545,25,Woman
48,167496,final-intermixed-textured,v2,jsons/MX_seq6_0_VE1000.json,http://54.235.29.9/FacialAge/BNav_EC2/DepthDuration/MX_fS_VE_MTurk/MX_fS_HTML.html#261,261,1280,720,1280,720,1-8-2024,16-46-38,49,VR_target_stimuli/s50_0.75x_4.53_517_BC.png,1000,0.75x,4.53,6.0,4102,1001,feet,jsons/MX_seq6_0_VE1000.json,311126,559545,25,Woman
49,167496,final-intermixed-textured,v2,jsons/MX_seq6_0_VE1000.json,http://54.235.29.9/FacialAge/BNav_EC2/DepthDuration/MX_fS_VE_MTurk/MX_fS_HTML.html#261,261,1280,720,1280,720,1-8-2024,16-46-38,50,VR_target_stimuli/s53_1.3x_1.6_355_BC.png,1000,1.3x,1.6,3.0,4735,994,feet,jsons/MX_seq6_0_VE1000.json,311126,559545,25,Woman
50,167496,final-intermixed-textured,v2,jsons/MX_seq6_0_VE1000.json,http://54.235.29.9/FacialAge/BNav_EC2/DepthDuration/MX_fS_VE_MTurk/MX_fS_HTML.html#261,261,1280,720,1280,720,1-8-2024,16-46-38,51,VR_target_stimuli/s38_0.75x_3.55_346.png,1000,0.75x,3.55,8.0,4419,989,feet,jsons/MX_seq6_0_VE1000.json,311126,559545,25,Woman
51,167496,final-intermixed-textured,v2,jsons/MX_seq6_0_VE1000.json,http://54.235.29.9/FacialAge/BNav_EC2/DepthDuration/MX_fS_VE_MTurk/MX_fS_HTML.html#261,261,1280,720,1280,720,1-8-2024,16-46-38,52,VR_target_stimuli/s9_1x_1.2_263.png,1000,1x,1.2,3.0,4551,990,feet,jsons/MX_seq6_0_VE1000.json,311126,559545,25,Woman
52,167496,final-intermixed-textured,v2,jsons/MX_seq6_0_VE1000.json,http://54.235.29.9/FacialAge/BNav_EC2/DepthDuration/MX_fS_VE_MTurk/MX_fS_HTML.html#261,261,1280,720,1280,720,1-8-2024,16-46-38,53,catch_stimuli/c5.png,1000,,,0.0,4752,993,feet,jsons/MX_seq6_0_VE1000.json,311126,559545,25,Woman
53,167496,final-intermixed-textured,v2,jsons/MX_seq6_0_VE1000.json,http://54.235.29.9/FacialAge/BNav_EC2/DepthDuration/MX_fS_VE_MTurk/MX_fS_HTML.html#261,261,1280,720,1280,720,1-8-2024,16-46-38,54,VR_target_stimuli/s44_1.3x_4.4_325.png,1000,1.3x,4.4,9.0,4534,991,feet,jsons/MX_seq6_0_VE1000.json,311126,559545,25,Woman
54,167496,final-intermixed-textured,v2,jsons/MX_seq6_0_VE1000.json,http://54.235.29.9/FacialAge/BNav_EC2/DepthDuration/MX_fS_VE_MTurk/MX_fS_HTML.html#261,261,1280,720,1280,720,1-8-2024,16-46-38,55,VR_target_stimuli/s3_1x_5_385_BC.png,1000,1x,5.0,10.0,6600,994,feet,jsons/MX_seq6_0_VE1000.json,311126,559545,25,Woman
55,167496,final-intermixed-textured,v2,jsons/MX_seq6_0_VE1000.json,http://54.235.29.9/FacialAge/BNav_EC2/DepthDuration/MX_fS_VE_MTurk/MX_fS_HTML.html#261,261,1280,720,1280,720,1-8-2024,16-46-38,56,VR_target_stimuli/s1_0.75x_1.7_265.png,1000,0.75x,1.7,5.0,4463,1000,feet,jsons/MX_seq6_0_VE1000.json,311126,559545,25,Woman
56,167496,final-intermixed-textured,v2,jsons/MX_seq6_0_VE1000.json,http://54.235.29.9/FacialAge/BNav_EC2/DepthDuration/MX_fS_VE_MTurk/MX_fS_HTML.html#261,261,1280,720,1280,720,1-8-2024,16-46-38,57,VR_target_stimuli/s11_1.3x_5_363.png,1000,1.3x,5.0,8.0,4818,990,feet,jsons/MX_seq6_0_VE1000.json,311126,559545,25,Woman
57,167496,final-intermixed-textured,v2,jsons/MX_seq6_0_VE1000.json,http://54.235.29.9/FacialAge/BNav_EC2/DepthDuration/MX_fS_VE_MTurk/MX_fS_HTML.html#261,261,1280,720,1280,720,1-8-2024,16-46-38,58,VR_target_stimuli/s2_1.3x_2.7_397_BC.png,1000,1.3x,2.7,5.0,4284,993,feet,jsons/MX_seq6_0_VE1000.json,311126,559545,25,Woman
58,167496,final-intermixed-textured,v2,jsons/MX_seq6_0_VE1000.json,http://54.235.29.9/FacialAge/BNav_EC2/DepthDuration/MX_fS_VE_MTurk/MX_fS_HTML.html#261,261,1280,720,1280,720,1-8-2024,16-46-38,59,VR_target_stimuli/s6_1x_2.1_293.png,1000,1x,2.1,6.0,4185,990,feet,jsons/MX_seq6_0_VE1000.json,311126,559545,25,Woman
59,167496,final-intermixed-textured,v2,jsons/MX_seq6_0_VE1000.json,http://54.235.29.9/FacialAge/BNav_EC2/DepthDuration/MX_fS_VE_MTurk/MX_fS_HTML.html#261,261,1280,720,1280,720,1-8-2024,16-46-38,60,VR_target_stimuli/s0_0.75x_2.6_345_BC.png,1000,0.75x,2.6,6.0,4803,988,feet,jsons/MX_seq6_0_VE1000.json,311126,559545,25,Woman
