,subjID,experimentName,versionName,sequenceName,url,selected_row,windowWidth,windowHeight,screenWidth,screenHeight,startDate,startTime,trial,stimulus,duration,scale,actual_depth,depth_estimate,trial_RT,log_sceneDuration,unitSelection,seq_filepath,experimentTime,totalTime,age,gender
0,170973,final-intermixed-textured,v2,jsons/MX_seq5_1_VE1000.json,http://54.235.29.9/FacialAge/BNav_EC2/DepthDuration/MX_fS_VE_MTurk/MX_fS_HTML.html#88,88,1280,559,1280,720,1-8-2024,21-45-40,1,VR_target_stimuli/s0_1.3x_2.6_356.png,1000,1.3x,2.6,5.0,6798,1007,meters,jsons/MX_seq5_1_VE1000.json,392222,617730,27,Woman
1,170973,final-intermixed-textured,v2,jsons/MX_seq5_1_VE1000.json,http://54.235.29.9/FacialAge/BNav_EC2/DepthDuration/MX_fS_VE_MTurk/MX_fS_HTML.html#88,88,1280,559,1280,720,1-8-2024,21-45-40,2,VR_target_stimuli/s34_0.75x_2.8_269_BC.png,1000,0.75x,2.8,5.0,5273,1001,meters,jsons/MX_seq5_1_VE1000.json,392222,617730,27,Woman
2,170973,final-intermixed-textured,v2,jsons/MX_seq5_1_VE1000.json,http://54.235.29.9/FacialAge/BNav_EC2/DepthDuration/MX_fS_VE_MTurk/MX_fS_HTML.html#88,88,1280,559,1280,720,1-8-2024,21-45-40,3,VR_target_stimuli/s13_1x_2.4_310_BC.png,1000,1x,2.4,3.0,6799,1003,meters,jsons/MX_seq5_1_VE1000.json,392222,617730,27,Woman
3,170973,final-intermixed-textured,v2,jsons/MX_seq5_1_VE1000.json,http://54.235.29.9/FacialAge/BNav_EC2/DepthDuration/MX_fS_VE_MTurk/MX_fS_HTML.html#88,88,1280,559,1280,720,1-8-2024,21-45-40,4,VR_target_stimuli/s14_0.75x_3.83_355.png,1000,0.75x,3.83,6.0,6524,995,meters,jsons/MX_seq5_1_VE1000.json,392222,617730,27,Woman
4,170973,final-intermixed-textured,v2,jsons/MX_seq5_1_VE1000.json,http://54.235.29.9/FacialAge/BNav_EC2/DepthDuration/MX_fS_VE_MTurk/MX_fS_HTML.html#88,88,1280,559,1280,720,1-8-2024,21-45-40,5,VR_target_stimuli/s47_1.3x_3.45_373_BC.png,1000,1.3x,3.45,2.5,6374,997,meters,jsons/MX_seq5_1_VE1000.json,392222,617730,27,Woman
5,170973,final-intermixed-textured,v2,jsons/MX_seq5_1_VE1000.json,http://54.235.29.9/FacialAge/BNav_EC2/DepthDuration/MX_fS_VE_MTurk/MX_fS_HTML.html#88,88,1280,559,1280,720,1-8-2024,21-45-40,6,VR_target_stimuli/s29_1x_1.3_250.png,1000,1x,1.3,1.0,5704,1009,meters,jsons/MX_seq5_1_VE1000.json,392222,617730,27,Woman
6,170973,final-intermixed-textured,v2,jsons/MX_seq5_1_VE1000.json,http://54.235.29.9/FacialAge/BNav_EC2/DepthDuration/MX_fS_VE_MTurk/MX_fS_HTML.html#88,88,1280,559,1280,720,1-8-2024,21-45-40,7,catch_stimuli/c0.png,1000,,,0.0,6010,991,meters,jsons/MX_seq5_1_VE1000.json,392222,617730,27,Woman
7,170973,final-intermixed-textured,v2,jsons/MX_seq5_1_VE1000.json,http://54.235.29.9/FacialAge/BNav_EC2/DepthDuration/MX_fS_VE_MTurk/MX_fS_HTML.html#88,88,1280,559,1280,720,1-8-2024,21-45-40,8,VR_target_stimuli/s28_1x_3.2_362.png,1000,1x,3.2,3.0,6864,997,meters,jsons/MX_seq5_1_VE1000.json,392222,617730,27,Woman
8,170973,final-intermixed-textured,v2,jsons/MX_seq5_1_VE1000.json,http://54.235.29.9/FacialAge/BNav_EC2/DepthDuration/MX_fS_VE_MTurk/MX_fS_HTML.html#88,88,1280,559,1280,720,1-8-2024,21-45-40,9,VR_target_stimuli/s48_0.75x_2.55_243.png,1000,0.75x,2.55,1.0,6070,999,meters,jsons/MX_seq5_1_VE1000.json,392222,617730,27,Woman
9,170973,final-intermixed-textured,v2,jsons/MX_seq5_1_VE1000.json,http://54.235.29.9/FacialAge/BNav_EC2/DepthDuration/MX_fS_VE_MTurk/MX_fS_HTML.html#88,88,1280,559,1280,720,1-8-2024,21-45-40,10,VR_target_stimuli/s19_1.3x_1.21_270.png,1000,1.3x,1.21,1.0,5457,1003,meters,jsons/MX_seq5_1_VE1000.json,392222,617730,27,Woman
10,170973,final-intermixed-textured,v2,jsons/MX_seq5_1_VE1000.json,http://54.235.29.9/FacialAge/BNav_EC2/DepthDuration/MX_fS_VE_MTurk/MX_fS_HTML.html#88,88,1280,559,1280,720,1-8-2024,21-45-40,11,VR_target_stimuli/s21_0.75x_4.22_374_BC.png,1000,0.75x,4.22,10.0,5636,1009,meters,jsons/MX_seq5_1_VE1000.json,392222,617730,27,Woman
11,170973,final-intermixed-textured,v2,jsons/MX_seq5_1_VE1000.json,http://54.235.29.9/FacialAge/BNav_EC2/DepthDuration/MX_fS_VE_MTurk/MX_fS_HTML.html#88,88,1280,559,1280,720,1-8-2024,21-45-40,12,VR_target_stimuli/s8_1x_3.1_332_BC.png,1000,1x,3.1,6.0,5377,994,meters,jsons/MX_seq5_1_VE1000.json,392222,617730,27,Woman
12,170973,final-intermixed-textured,v2,jsons/MX_seq5_1_VE1000.json,http://54.235.29.9/FacialAge/BNav_EC2/DepthDuration/MX_fS_VE_MTurk/MX_fS_HTML.html#88,88,1280,559,1280,720,1-8-2024,21-45-40,13,VR_target_stimuli/s27_1.3x_1.76_250_BC.png,1000,1.3x,1.76,5.0,5040,1010,meters,jsons/MX_seq5_1_VE1000.json,392222,617730,27,Woman
13,170973,final-intermixed-textured,v2,jsons/MX_seq5_1_VE1000.json,http://54.235.29.9/FacialAge/BNav_EC2/DepthDuration/MX_fS_VE_MTurk/MX_fS_HTML.html#88,88,1280,559,1280,720,1-8-2024,21-45-40,14,VR_target_stimuli/s15_1x_4.2_390_BC.png,1000,1x,4.2,8.0,7544,1000,meters,jsons/MX_seq5_1_VE1000.json,392222,617730,27,Woman
14,170973,final-intermixed-textured,v2,jsons/MX_seq5_1_VE1000.json,http://54.235.29.9/FacialAge/BNav_EC2/DepthDuration/MX_fS_VE_MTurk/MX_fS_HTML.html#88,88,1280,559,1280,720,1-8-2024,21-45-40,15,VR_target_stimuli/s4_0.75x_1.4_301_BC.png,1000,0.75x,1.4,1.5,7156,1009,meters,jsons/MX_seq5_1_VE1000.json,392222,617730,27,Woman
15,170973,final-intermixed-textured,v2,jsons/MX_seq5_1_VE1000.json,http://54.235.29.9/FacialAge/BNav_EC2/DepthDuration/MX_fS_VE_MTurk/MX_fS_HTML.html#88,88,1280,559,1280,720,1-8-2024,21-45-40,16,VR_target_stimuli/s35_1.3x_2_338_BC.png,1000,1.3x,2.0,4.0,4839,989,meters,jsons/MX_seq5_1_VE1000.json,392222,617730,27,Woman
16,170973,final-intermixed-textured,v2,jsons/MX_seq5_1_VE1000.json,http://54.235.29.9/FacialAge/BNav_EC2/DepthDuration/MX_fS_VE_MTurk/MX_fS_HTML.html#88,88,1280,559,1280,720,1-8-2024,21-45-40,17,catch_stimuli/c1.png,1000,,,0.0,4859,999,meters,jsons/MX_seq5_1_VE1000.json,392222,617730,27,Woman
17,170973,final-intermixed-textured,v2,jsons/MX_seq5_1_VE1000.json,http://54.235.29.9/FacialAge/BNav_EC2/DepthDuration/MX_fS_VE_MTurk/MX_fS_HTML.html#88,88,1280,559,1280,720,1-8-2024,21-45-40,18,VR_target_stimuli/s49_1.3x_4.67_354.png,1000,1.3x,4.67,5.0,4792,1006,meters,jsons/MX_seq5_1_VE1000.json,392222,617730,27,Woman
18,170973,final-intermixed-textured,v2,jsons/MX_seq5_1_VE1000.json,http://54.235.29.9/FacialAge/BNav_EC2/DepthDuration/MX_fS_VE_MTurk/MX_fS_HTML.html#88,88,1280,559,1280,720,1-8-2024,21-45-40,19,VR_target_stimuli/s7_1x_1.5_255.png,1000,1x,1.5,4.0,4490,990,meters,jsons/MX_seq5_1_VE1000.json,392222,617730,27,Woman
19,170973,final-intermixed-textured,v2,jsons/MX_seq5_1_VE1000.json,http://54.235.29.9/FacialAge/BNav_EC2/DepthDuration/MX_fS_VE_MTurk/MX_fS_HTML.html#88,88,1280,559,1280,720,1-8-2024,21-45-40,20,VR_target_stimuli/s20_0.75x_4.99_390.png,1000,0.75x,4.99,15.0,5305,1005,meters,jsons/MX_seq5_1_VE1000.json,392222,617730,27,Woman
20,170973,final-intermixed-textured,v2,jsons/MX_seq5_1_VE1000.json,http://54.235.29.9/FacialAge/BNav_EC2/DepthDuration/MX_fS_VE_MTurk/MX_fS_HTML.html#88,88,1280,559,1280,720,1-8-2024,21-45-40,21,VR_target_stimuli/s31_1x_4.96_333.png,1000,1x,4.96,9.0,6243,995,meters,jsons/MX_seq5_1_VE1000.json,392222,617730,27,Woman
21,170973,final-intermixed-textured,v2,jsons/MX_seq5_1_VE1000.json,http://54.235.29.9/FacialAge/BNav_EC2/DepthDuration/MX_fS_VE_MTurk/MX_fS_HTML.html#88,88,1280,559,1280,720,1-8-2024,21-45-40,22,VR_target_stimuli/s33_1.3x_3.1_378_BC.png,1000,1.3x,3.1,4.0,6003,1008,meters,jsons/MX_seq5_1_VE1000.json,392222,617730,27,Woman
22,170973,final-intermixed-textured,v2,jsons/MX_seq5_1_VE1000.json,http://54.235.29.9/FacialAge/BNav_EC2/DepthDuration/MX_fS_VE_MTurk/MX_fS_HTML.html#88,88,1280,559,1280,720,1-8-2024,21-45-40,23,VR_target_stimuli/s52_0.75x_3.2_270.png,1000,0.75x,3.2,6.0,6067,998,meters,jsons/MX_seq5_1_VE1000.json,392222,617730,27,Woman
23,170973,final-intermixed-textured,v2,jsons/MX_seq5_1_VE1000.json,http://54.235.29.9/FacialAge/BNav_EC2/DepthDuration/MX_fS_VE_MTurk/MX_fS_HTML.html#88,88,1280,559,1280,720,1-8-2024,21-45-40,24,VR_target_stimuli/s32_1.3x_1.5_224.png,1000,1.3x,1.5,5.0,6259,996,meters,jsons/MX_seq5_1_VE1000.json,392222,617730,27,Woman
24,170973,final-intermixed-textured,v2,jsons/MX_seq5_1_VE1000.json,http://54.235.29.9/FacialAge/BNav_EC2/DepthDuration/MX_fS_VE_MTurk/MX_fS_HTML.html#88,88,1280,559,1280,720,1-8-2024,21-45-40,25,VR_target_stimuli/s18_1x_2.25_353_BC.png,1000,1x,2.25,4.0,5922,996,meters,jsons/MX_seq5_1_VE1000.json,392222,617730,27,Woman
25,170973,final-intermixed-textured,v2,jsons/MX_seq5_1_VE1000.json,http://54.235.29.9/FacialAge/BNav_EC2/DepthDuration/MX_fS_VE_MTurk/MX_fS_HTML.html#88,88,1280,559,1280,720,1-8-2024,21-45-40,26,catch_stimuli/c2.png,1000,,,0.0,5372,1000,meters,jsons/MX_seq5_1_VE1000.json,392222,617730,27,Woman
26,170973,final-intermixed-textured,v2,jsons/MX_seq5_1_VE1000.json,http://54.235.29.9/FacialAge/BNav_EC2/DepthDuration/MX_fS_VE_MTurk/MX_fS_HTML.html#88,88,1280,559,1280,720,1-8-2024,21-45-40,27,VR_target_stimuli/s39_0.75x_1_205_BC.png,1000,0.75x,1.0,1.5,6584,991,meters,jsons/MX_seq5_1_VE1000.json,392222,617730,27,Woman
27,170973,final-intermixed-textured,v2,jsons/MX_seq5_1_VE1000.json,http://54.235.29.9/FacialAge/BNav_EC2/DepthDuration/MX_fS_VE_MTurk/MX_fS_HTML.html#88,88,1280,559,1280,720,1-8-2024,21-45-40,28,VR_target_stimuli/s51_0.75x_3.64_460.png,1000,0.75x,3.64,2.5,5616,1000,meters,jsons/MX_seq5_1_VE1000.json,392222,617730,27,Woman
28,170973,final-intermixed-textured,v2,jsons/MX_seq5_1_VE1000.json,http://54.235.29.9/FacialAge/BNav_EC2/DepthDuration/MX_fS_VE_MTurk/MX_fS_HTML.html#88,88,1280,559,1280,720,1-8-2024,21-45-40,29,VR_target_stimuli/s43_1.3x_2.2_363.png,1000,1.3x,2.2,1.8,5249,1000,meters,jsons/MX_seq5_1_VE1000.json,392222,617730,27,Woman
29,170973,final-intermixed-textured,v2,jsons/MX_seq5_1_VE1000.json,http://54.235.29.9/FacialAge/BNav_EC2/DepthDuration/MX_fS_VE_MTurk/MX_fS_HTML.html#88,88,1280,559,1280,720,1-8-2024,21-45-40,30,VR_target_stimuli/s24_1x_3.3_349.png,1000,1x,3.3,3.5,7355,995,meters,jsons/MX_seq5_1_VE1000.json,392222,617730,27,Woman
30,170973,final-intermixed-textured,v2,jsons/MX_seq5_1_VE1000.json,http://54.235.29.9/FacialAge/BNav_EC2/DepthDuration/MX_fS_VE_MTurk/MX_fS_HTML.html#88,88,1280,559,1280,720,1-8-2024,21-45-40,31,VR_target_stimuli/s10_0.75x_2.7_321_BC.png,1000,0.75x,2.7,3.0,6489,985,meters,jsons/MX_seq5_1_VE1000.json,392222,617730,27,Woman
31,170973,final-intermixed-textured,v2,jsons/MX_seq5_1_VE1000.json,http://54.235.29.9/FacialAge/BNav_EC2/DepthDuration/MX_fS_VE_MTurk/MX_fS_HTML.html#88,88,1280,559,1280,720,1-8-2024,21-45-40,32,VR_target_stimuli/s36_1x_4.1_423_BC.png,1000,1x,4.1,4.0,5928,1006,meters,jsons/MX_seq5_1_VE1000.json,392222,617730,27,Woman
32,170973,final-intermixed-textured,v2,jsons/MX_seq5_1_VE1000.json,http://54.235.29.9/FacialAge/BNav_EC2/DepthDuration/MX_fS_VE_MTurk/MX_fS_HTML.html#88,88,1280,559,1280,720,1-8-2024,21-45-40,33,VR_target_stimuli/s40_1.3x_1.2_332_BC.png,1000,1.3x,1.2,1.0,5745,1010,meters,jsons/MX_seq5_1_VE1000.json,392222,617730,27,Woman
33,170973,final-intermixed-textured,v2,jsons/MX_seq5_1_VE1000.json,http://54.235.29.9/FacialAge/BNav_EC2/DepthDuration/MX_fS_VE_MTurk/MX_fS_HTML.html#88,88,1280,559,1280,720,1-8-2024,21-45-40,34,catch_stimuli/c3.png,1000,,,0.0,9901,1001,meters,jsons/MX_seq5_1_VE1000.json,392222,617730,27,Woman
34,170973,final-intermixed-textured,v2,jsons/MX_seq5_1_VE1000.json,http://54.235.29.9/FacialAge/BNav_EC2/DepthDuration/MX_fS_VE_MTurk/MX_fS_HTML.html#88,88,1280,559,1280,720,1-8-2024,21-45-40,35,VR_target_stimuli/s41_1x_2.1_286.png,1000,1x,2.1,4.0,5300,1006,meters,jsons/MX_seq5_1_VE1000.json,392222,617730,27,Woman
35,170973,final-intermixed-textured,v2,jsons/MX_seq5_1_VE1000.json,http://54.235.29.9/FacialAge/BNav_EC2/DepthDuration/MX_fS_VE_MTurk/MX_fS_HTML.html#88,88,1280,559,1280,720,1-8-2024,21-45-40,36,VR_target_stimuli/s45_0.75x_3.5_362.png,1000,0.75x,3.5,3.0,5017,1009,meters,jsons/MX_seq5_1_VE1000.json,392222,617730,27,Woman
36,170973,final-intermixed-textured,v2,jsons/MX_seq5_1_VE1000.json,http://54.235.29.9/FacialAge/BNav_EC2/DepthDuration/MX_fS_VE_MTurk/MX_fS_HTML.html#88,88,1280,559,1280,720,1-8-2024,21-45-40,37,VR_target_stimuli/s23_1.3x_3.65_354_BC.png,1000,1.3x,3.65,2.0,6102,997,meters,jsons/MX_seq5_1_VE1000.json,392222,617730,27,Woman
37,170973,final-intermixed-textured,v2,jsons/MX_seq5_1_VE1000.json,http://54.235.29.9/FacialAge/BNav_EC2/DepthDuration/MX_fS_VE_MTurk/MX_fS_HTML.html#88,88,1280,559,1280,720,1-8-2024,21-45-40,38,VR_target_stimuli/s26_1.3x_4_441.png,1000,1.3x,4.0,3.0,6060,1011,meters,jsons/MX_seq5_1_VE1000.json,392222,617730,27,Woman
38,170973,final-intermixed-textured,v2,jsons/MX_seq5_1_VE1000.json,http://54.235.29.9/FacialAge/BNav_EC2/DepthDuration/MX_fS_VE_MTurk/MX_fS_HTML.html#88,88,1280,559,1280,720,1-8-2024,21-45-40,39,VR_target_stimuli/s12_1x_3.1_372_BC.png,1000,1x,3.1,5.0,5736,1003,meters,jsons/MX_seq5_1_VE1000.json,392222,617730,27,Woman
39,170973,final-intermixed-textured,v2,jsons/MX_seq5_1_VE1000.json,http://54.235.29.9/FacialAge/BNav_EC2/DepthDuration/MX_fS_VE_MTurk/MX_fS_HTML.html#88,88,1280,559,1280,720,1-8-2024,21-45-40,40,VR_target_stimuli/s30_0.75x_2.3_332_BC.png,1000,0.75x,2.3,2.5,5509,999,meters,jsons/MX_seq5_1_VE1000.json,392222,617730,27,Woman
40,170973,final-intermixed-textured,v2,jsons/MX_seq5_1_VE1000.json,http://54.235.29.9/FacialAge/BNav_EC2/DepthDuration/MX_fS_VE_MTurk/MX_fS_HTML.html#88,88,1280,559,1280,720,1-8-2024,21-45-40,41,VR_target_stimuli/s16_1x_1_219.png,1000,1x,1.0,1.0,4653,995,meters,jsons/MX_seq5_1_VE1000.json,392222,617730,27,Woman
41,170973,final-intermixed-textured,v2,jsons/MX_seq5_1_VE1000.json,http://54.235.29.9/FacialAge/BNav_EC2/DepthDuration/MX_fS_VE_MTurk/MX_fS_HTML.html#88,88,1280,559,1280,720,1-8-2024,21-45-40,42,VR_target_stimuli/s17_1.3x_1.8_300_BC.png,1000,1.3x,1.8,1.0,5937,995,meters,jsons/MX_seq5_1_VE1000.json,392222,617730,27,Woman
42,170973,final-intermixed-textured,v2,jsons/MX_seq5_1_VE1000.json,http://54.235.29.9/FacialAge/BNav_EC2/DepthDuration/MX_fS_VE_MTurk/MX_fS_HTML.html#88,88,1280,559,1280,720,1-8-2024,21-45-40,43,VR_target_stimuli/s5_0.75x_4_375.png,1000,0.75x,4.0,9.0,6152,1003,meters,jsons/MX_seq5_1_VE1000.json,392222,617730,27,Woman
43,170973,final-intermixed-textured,v2,jsons/MX_seq5_1_VE1000.json,http://54.235.29.9/FacialAge/BNav_EC2/DepthDuration/MX_fS_VE_MTurk/MX_fS_HTML.html#88,88,1280,559,1280,720,1-8-2024,21-45-40,44,VR_target_stimuli/s37_1.3x_3.3_555.png,1000,1.3x,3.3,8.0,7547,1005,meters,jsons/MX_seq5_1_VE1000.json,392222,617730,27,Woman
44,170973,final-intermixed-textured,v2,jsons/MX_seq5_1_VE1000.json,http://54.235.29.9/FacialAge/BNav_EC2/DepthDuration/MX_fS_VE_MTurk/MX_fS_HTML.html#88,88,1280,559,1280,720,1-8-2024,21-45-40,45,catch_stimuli/c4.png,1000,,,0.0,5516,1005,meters,jsons/MX_seq5_1_VE1000.json,392222,617730,27,Woman
45,170973,final-intermixed-textured,v2,jsons/MX_seq5_1_VE1000.json,http://54.235.29.9/FacialAge/BNav_EC2/DepthDuration/MX_fS_VE_MTurk/MX_fS_HTML.html#88,88,1280,559,1280,720,1-8-2024,21-45-40,46,VR_target_stimuli/s46_1x_2.42_348_BC.png,1000,1x,2.42,4.0,6027,1007,meters,jsons/MX_seq5_1_VE1000.json,392222,617730,27,Woman
46,170973,final-intermixed-textured,v2,jsons/MX_seq5_1_VE1000.json,http://54.235.29.9/FacialAge/BNav_EC2/DepthDuration/MX_fS_VE_MTurk/MX_fS_HTML.html#88,88,1280,559,1280,720,1-8-2024,21-45-40,47,VR_target_stimuli/s22_0.75x_4.29_348_BC.png,1000,0.75x,4.29,10.0,5708,995,meters,jsons/MX_seq5_1_VE1000.json,392222,617730,27,Woman
47,170973,final-intermixed-textured,v2,jsons/MX_seq5_1_VE1000.json,http://54.235.29.9/FacialAge/BNav_EC2/DepthDuration/MX_fS_VE_MTurk/MX_fS_HTML.html#88,88,1280,559,1280,720,1-8-2024,21-45-40,48,VR_target_stimuli/s42_0.75x_3.2_301.png,1000,0.75x,3.2,8.0,6696,988,meters,jsons/MX_seq5_1_VE1000.json,392222,617730,27,Woman
48,170973,final-intermixed-textured,v2,jsons/MX_seq5_1_VE1000.json,http://54.235.29.9/FacialAge/BNav_EC2/DepthDuration/MX_fS_VE_MTurk/MX_fS_HTML.html#88,88,1280,559,1280,720,1-8-2024,21-45-40,49,VR_target_stimuli/s25_1.3x_1.4_299.png,1000,1.3x,1.4,0.5,6921,994,meters,jsons/MX_seq5_1_VE1000.json,392222,617730,27,Woman
49,170973,final-intermixed-textured,v2,jsons/MX_seq5_1_VE1000.json,http://54.235.29.9/FacialAge/BNav_EC2/DepthDuration/MX_fS_VE_MTurk/MX_fS_HTML.html#88,88,1280,559,1280,720,1-8-2024,21-45-40,50,VR_target_stimuli/s50_1x_4.53_518.png,1000,1x,4.53,7.0,6005,1002,meters,jsons/MX_seq5_1_VE1000.json,392222,617730,27,Woman
50,170973,final-intermixed-textured,v2,jsons/MX_seq5_1_VE1000.json,http://54.235.29.9/FacialAge/BNav_EC2/DepthDuration/MX_fS_VE_MTurk/MX_fS_HTML.html#88,88,1280,559,1280,720,1-8-2024,21-45-40,51,VR_target_stimuli/s53_1.3x_1.6_355_BC.png,1000,1.3x,1.6,8.0,6464,998,meters,jsons/MX_seq5_1_VE1000.json,392222,617730,27,Woman
51,170973,final-intermixed-textured,v2,jsons/MX_seq5_1_VE1000.json,http://54.235.29.9/FacialAge/BNav_EC2/DepthDuration/MX_fS_VE_MTurk/MX_fS_HTML.html#88,88,1280,559,1280,720,1-8-2024,21-45-40,52,VR_target_stimuli/s38_0.75x_3.55_346_BC.png,1000,0.75x,3.55,0.0,6746,1010,meters,jsons/MX_seq5_1_VE1000.json,392222,617730,27,Woman
52,170973,final-intermixed-textured,v2,jsons/MX_seq5_1_VE1000.json,http://54.235.29.9/FacialAge/BNav_EC2/DepthDuration/MX_fS_VE_MTurk/MX_fS_HTML.html#88,88,1280,559,1280,720,1-8-2024,21-45-40,53,catch_stimuli/c5.png,1000,,,0.0,5769,992,meters,jsons/MX_seq5_1_VE1000.json,392222,617730,27,Woman
53,170973,final-intermixed-textured,v2,jsons/MX_seq5_1_VE1000.json,http://54.235.29.9/FacialAge/BNav_EC2/DepthDuration/MX_fS_VE_MTurk/MX_fS_HTML.html#88,88,1280,559,1280,720,1-8-2024,21-45-40,54,VR_target_stimuli/s9_1x_1.2_263_BC.png,1000,1x,1.2,3.0,9027,1010,meters,jsons/MX_seq5_1_VE1000.json,392222,617730,27,Woman
54,170973,final-intermixed-textured,v2,jsons/MX_seq5_1_VE1000.json,http://54.235.29.9/FacialAge/BNav_EC2/DepthDuration/MX_fS_VE_MTurk/MX_fS_HTML.html#88,88,1280,559,1280,720,1-8-2024,21-45-40,55,VR_target_stimuli/s44_0.75x_4.4_314.png,1000,0.75x,4.4,8.0,4985,998,meters,jsons/MX_seq5_1_VE1000.json,392222,617730,27,Woman
55,170973,final-intermixed-textured,v2,jsons/MX_seq5_1_VE1000.json,http://54.235.29.9/FacialAge/BNav_EC2/DepthDuration/MX_fS_VE_MTurk/MX_fS_HTML.html#88,88,1280,559,1280,720,1-8-2024,21-45-40,56,VR_target_stimuli/s3_1.3x_5_390_BC.png,1000,1.3x,5.0,10.0,5978,1002,meters,jsons/MX_seq5_1_VE1000.json,392222,617730,27,Woman
56,170973,final-intermixed-textured,v2,jsons/MX_seq5_1_VE1000.json,http://54.235.29.9/FacialAge/BNav_EC2/DepthDuration/MX_fS_VE_MTurk/MX_fS_HTML.html#88,88,1280,559,1280,720,1-8-2024,21-45-40,57,VR_target_stimuli/s1_1x_1.7_262.png,1000,1x,1.7,6.0,5331,999,meters,jsons/MX_seq5_1_VE1000.json,392222,617730,27,Woman
57,170973,final-intermixed-textured,v2,jsons/MX_seq5_1_VE1000.json,http://54.235.29.9/FacialAge/BNav_EC2/DepthDuration/MX_fS_VE_MTurk/MX_fS_HTML.html#88,88,1280,559,1280,720,1-8-2024,21-45-40,58,VR_target_stimuli/s11_1x_5_361_BC.png,1000,1x,5.0,7.0,4705,994,meters,jsons/MX_seq5_1_VE1000.json,392222,617730,27,Woman
58,170973,final-intermixed-textured,v2,jsons/MX_seq5_1_VE1000.json,http://54.235.29.9/FacialAge/BNav_EC2/DepthDuration/MX_fS_VE_MTurk/MX_fS_HTML.html#88,88,1280,559,1280,720,1-8-2024,21-45-40,59,VR_target_stimuli/s2_0.75x_2.7_384_BC.png,1000,0.75x,2.7,4.0,6223,1012,meters,jsons/MX_seq5_1_VE1000.json,392222,617730,27,Woman
59,170973,final-intermixed-textured,v2,jsons/MX_seq5_1_VE1000.json,http://54.235.29.9/FacialAge/BNav_EC2/DepthDuration/MX_fS_VE_MTurk/MX_fS_HTML.html#88,88,1280,559,1280,720,1-8-2024,21-45-40,60,VR_target_stimuli/s6_1.3x_2.1_298.png,1000,1.3x,2.1,3.9,5878,1005,meters,jsons/MX_seq5_1_VE1000.json,392222,617730,27,Woman
