,subjID,experimentName,versionName,sequenceName,url,selected_row,windowWidth,windowHeight,screenWidth,screenHeight,startDate,startTime,trial,stimulus,duration,scale,actual_depth,depth_estimate,trial_RT,log_sceneDuration,unitSelection,seq_filepath,experimentTime,totalTime,age,gender
0,186422,final-intermixed-textured,v2,jsons/MX_seq35_0_VE1000.json,http://54.235.29.9/FacialAge/BNav_EC2/DepthDuration/MX_fS_VE_MTurk/MX_fS_HTML.html#200,200,1536,695,1536,864,1-8-2024,14-53-36,1,VR_target_stimuli/s41_0.75x_2.1_281_BC.png,1000,0.75x,2.1,4.0,5853,987,meters,jsons/MX_seq35_0_VE1000.json,310923,534022,23,Woman
1,186422,final-intermixed-textured,v2,jsons/MX_seq35_0_VE1000.json,http://54.235.29.9/FacialAge/BNav_EC2/DepthDuration/MX_fS_VE_MTurk/MX_fS_HTML.html#200,200,1536,695,1536,864,1-8-2024,14-53-36,2,VR_target_stimuli/s45_1x_3.5_368.png,1000,1x,3.5,5.0,4506,999,meters,jsons/MX_seq35_0_VE1000.json,310923,534022,23,Woman
2,186422,final-intermixed-textured,v2,jsons/MX_seq35_0_VE1000.json,http://54.235.29.9/FacialAge/BNav_EC2/DepthDuration/MX_fS_VE_MTurk/MX_fS_HTML.html#200,200,1536,695,1536,864,1-8-2024,14-53-36,3,VR_target_stimuli/s23_1.3x_3.65_354.png,1000,1.3x,3.65,6.5,8827,998,meters,jsons/MX_seq35_0_VE1000.json,310923,534022,23,Woman
3,186422,final-intermixed-textured,v2,jsons/MX_seq35_0_VE1000.json,http://54.235.29.9/FacialAge/BNav_EC2/DepthDuration/MX_fS_VE_MTurk/MX_fS_HTML.html#200,200,1536,695,1536,864,1-8-2024,14-53-36,4,VR_target_stimuli/s26_1x_4_433_BC.png,1000,1x,4.0,4.3,8585,984,meters,jsons/MX_seq35_0_VE1000.json,310923,534022,23,Woman
4,186422,final-intermixed-textured,v2,jsons/MX_seq35_0_VE1000.json,http://54.235.29.9/FacialAge/BNav_EC2/DepthDuration/MX_fS_VE_MTurk/MX_fS_HTML.html#200,200,1536,695,1536,864,1-8-2024,14-53-36,5,VR_target_stimuli/s12_0.75x_3.1_364.png,1000,0.75x,3.1,3.1,8974,996,meters,jsons/MX_seq35_0_VE1000.json,310923,534022,23,Woman
5,186422,final-intermixed-textured,v2,jsons/MX_seq35_0_VE1000.json,http://54.235.29.9/FacialAge/BNav_EC2/DepthDuration/MX_fS_VE_MTurk/MX_fS_HTML.html#200,200,1536,695,1536,864,1-8-2024,14-53-36,6,VR_target_stimuli/s30_1.3x_2.3_337_BC.png,1000,1.3x,2.3,3.0,6314,988,meters,jsons/MX_seq35_0_VE1000.json,310923,534022,23,Woman
6,186422,final-intermixed-textured,v2,jsons/MX_seq35_0_VE1000.json,http://54.235.29.9/FacialAge/BNav_EC2/DepthDuration/MX_fS_VE_MTurk/MX_fS_HTML.html#200,200,1536,695,1536,864,1-8-2024,14-53-36,7,catch_stimuli/c0.png,1000,,,0.0,3496,1011,meters,jsons/MX_seq35_0_VE1000.json,310923,534022,23,Woman
7,186422,final-intermixed-textured,v2,jsons/MX_seq35_0_VE1000.json,http://54.235.29.9/FacialAge/BNav_EC2/DepthDuration/MX_fS_VE_MTurk/MX_fS_HTML.html#200,200,1536,695,1536,864,1-8-2024,14-53-36,8,VR_target_stimuli/s16_1.3x_1_223.png,1000,1.3x,1.0,1.5,8955,1006,meters,jsons/MX_seq35_0_VE1000.json,310923,534022,23,Woman
8,186422,final-intermixed-textured,v2,jsons/MX_seq35_0_VE1000.json,http://54.235.29.9/FacialAge/BNav_EC2/DepthDuration/MX_fS_VE_MTurk/MX_fS_HTML.html#200,200,1536,695,1536,864,1-8-2024,14-53-36,9,VR_target_stimuli/s17_1x_1.8_291.png,1000,1x,1.8,2.7,6014,1004,meters,jsons/MX_seq35_0_VE1000.json,310923,534022,23,Woman
9,186422,final-intermixed-textured,v2,jsons/MX_seq35_0_VE1000.json,http://54.235.29.9/FacialAge/BNav_EC2/DepthDuration/MX_fS_VE_MTurk/MX_fS_HTML.html#200,200,1536,695,1536,864,1-8-2024,14-53-36,10,VR_target_stimuli/s5_0.75x_4_375.png,1000,0.75x,4.0,6.0,5314,1001,meters,jsons/MX_seq35_0_VE1000.json,310923,534022,23,Woman
10,186422,final-intermixed-textured,v2,jsons/MX_seq35_0_VE1000.json,http://54.235.29.9/FacialAge/BNav_EC2/DepthDuration/MX_fS_VE_MTurk/MX_fS_HTML.html#200,200,1536,695,1536,864,1-8-2024,14-53-36,11,VR_target_stimuli/s37_1x_3.3_563_BC.png,1000,1x,3.3,3.6,6255,1014,meters,jsons/MX_seq35_0_VE1000.json,310923,534022,23,Woman
11,186422,final-intermixed-textured,v2,jsons/MX_seq35_0_VE1000.json,http://54.235.29.9/FacialAge/BNav_EC2/DepthDuration/MX_fS_VE_MTurk/MX_fS_HTML.html#200,200,1536,695,1536,864,1-8-2024,14-53-36,12,VR_target_stimuli/s46_1.3x_2.42_354_BC.png,1000,1.3x,2.42,5.0,4258,1001,meters,jsons/MX_seq35_0_VE1000.json,310923,534022,23,Woman
12,186422,final-intermixed-textured,v2,jsons/MX_seq35_0_VE1000.json,http://54.235.29.9/FacialAge/BNav_EC2/DepthDuration/MX_fS_VE_MTurk/MX_fS_HTML.html#200,200,1536,695,1536,864,1-8-2024,14-53-36,13,VR_target_stimuli/s22_0.75x_4.29_348_BC.png,1000,0.75x,4.29,7.0,11666,995,meters,jsons/MX_seq35_0_VE1000.json,310923,534022,23,Woman
13,186422,final-intermixed-textured,v2,jsons/MX_seq35_0_VE1000.json,http://54.235.29.9/FacialAge/BNav_EC2/DepthDuration/MX_fS_VE_MTurk/MX_fS_HTML.html#200,200,1536,695,1536,864,1-8-2024,14-53-36,14,VR_target_stimuli/s42_1.3x_3.2_305_BC.png,1000,1.3x,3.2,4.0,3402,994,meters,jsons/MX_seq35_0_VE1000.json,310923,534022,23,Woman
14,186422,final-intermixed-textured,v2,jsons/MX_seq35_0_VE1000.json,http://54.235.29.9/FacialAge/BNav_EC2/DepthDuration/MX_fS_VE_MTurk/MX_fS_HTML.html#200,200,1536,695,1536,864,1-8-2024,14-53-36,15,VR_target_stimuli/s25_1x_1.4_290.png,1000,1x,1.4,0.0,3399,1002,meters,jsons/MX_seq35_0_VE1000.json,310923,534022,23,Woman
15,186422,final-intermixed-textured,v2,jsons/MX_seq35_0_VE1000.json,http://54.235.29.9/FacialAge/BNav_EC2/DepthDuration/MX_fS_VE_MTurk/MX_fS_HTML.html#200,200,1536,695,1536,864,1-8-2024,14-53-36,16,VR_target_stimuli/s50_0.75x_4.53_517.png,1000,0.75x,4.53,3.0,3999,990,meters,jsons/MX_seq35_0_VE1000.json,310923,534022,23,Woman
16,186422,final-intermixed-textured,v2,jsons/MX_seq35_0_VE1000.json,http://54.235.29.9/FacialAge/BNav_EC2/DepthDuration/MX_fS_VE_MTurk/MX_fS_HTML.html#200,200,1536,695,1536,864,1-8-2024,14-53-36,17,catch_stimuli/c1.png,1000,,,0.0,2810,1010,meters,jsons/MX_seq35_0_VE1000.json,310923,534022,23,Woman
17,186422,final-intermixed-textured,v2,jsons/MX_seq35_0_VE1000.json,http://54.235.29.9/FacialAge/BNav_EC2/DepthDuration/MX_fS_VE_MTurk/MX_fS_HTML.html#200,200,1536,695,1536,864,1-8-2024,14-53-36,18,VR_target_stimuli/s53_0.75x_1.6_403_BC.png,1000,0.75x,1.6,0.5,5196,1000,meters,jsons/MX_seq35_0_VE1000.json,310923,534022,23,Woman
18,186422,final-intermixed-textured,v2,jsons/MX_seq35_0_VE1000.json,http://54.235.29.9/FacialAge/BNav_EC2/DepthDuration/MX_fS_VE_MTurk/MX_fS_HTML.html#200,200,1536,695,1536,864,1-8-2024,14-53-36,19,VR_target_stimuli/s38_1.3x_3.55_358.png,1000,1.3x,3.55,2.0,6050,1002,meters,jsons/MX_seq35_0_VE1000.json,310923,534022,23,Woman
19,186422,final-intermixed-textured,v2,jsons/MX_seq35_0_VE1000.json,http://54.235.29.9/FacialAge/BNav_EC2/DepthDuration/MX_fS_VE_MTurk/MX_fS_HTML.html#200,200,1536,695,1536,864,1-8-2024,14-53-36,20,VR_target_stimuli/s9_1x_1.2_263_BC.png,1000,1x,1.2,1.0,3168,1002,meters,jsons/MX_seq35_0_VE1000.json,310923,534022,23,Woman
20,186422,final-intermixed-textured,v2,jsons/MX_seq35_0_VE1000.json,http://54.235.29.9/FacialAge/BNav_EC2/DepthDuration/MX_fS_VE_MTurk/MX_fS_HTML.html#200,200,1536,695,1536,864,1-8-2024,14-53-36,21,VR_target_stimuli/s44_1.3x_4.4_325.png,1000,1.3x,4.4,7.0,3936,1001,meters,jsons/MX_seq35_0_VE1000.json,310923,534022,23,Woman
21,186422,final-intermixed-textured,v2,jsons/MX_seq35_0_VE1000.json,http://54.235.29.9/FacialAge/BNav_EC2/DepthDuration/MX_fS_VE_MTurk/MX_fS_HTML.html#200,200,1536,695,1536,864,1-8-2024,14-53-36,22,VR_target_stimuli/s3_0.75x_5_381_BC.png,1000,0.75x,5.0,7.0,4221,995,meters,jsons/MX_seq35_0_VE1000.json,310923,534022,23,Woman
22,186422,final-intermixed-textured,v2,jsons/MX_seq35_0_VE1000.json,http://54.235.29.9/FacialAge/BNav_EC2/DepthDuration/MX_fS_VE_MTurk/MX_fS_HTML.html#200,200,1536,695,1536,864,1-8-2024,14-53-36,23,VR_target_stimuli/s1_1x_1.7_262_BC.png,1000,1x,1.7,5.0,3588,996,meters,jsons/MX_seq35_0_VE1000.json,310923,534022,23,Woman
23,186422,final-intermixed-textured,v2,jsons/MX_seq35_0_VE1000.json,http://54.235.29.9/FacialAge/BNav_EC2/DepthDuration/MX_fS_VE_MTurk/MX_fS_HTML.html#200,200,1536,695,1536,864,1-8-2024,14-53-36,24,VR_target_stimuli/s11_0.75x_5_359.png,1000,0.75x,5.0,8.0,3298,988,meters,jsons/MX_seq35_0_VE1000.json,310923,534022,23,Woman
24,186422,final-intermixed-textured,v2,jsons/MX_seq35_0_VE1000.json,http://54.235.29.9/FacialAge/BNav_EC2/DepthDuration/MX_fS_VE_MTurk/MX_fS_HTML.html#200,200,1536,695,1536,864,1-8-2024,14-53-36,25,VR_target_stimuli/s2_1.3x_2.7_397_BC.png,1000,1.3x,2.7,4.0,2991,995,meters,jsons/MX_seq35_0_VE1000.json,310923,534022,23,Woman
25,186422,final-intermixed-textured,v2,jsons/MX_seq35_0_VE1000.json,http://54.235.29.9/FacialAge/BNav_EC2/DepthDuration/MX_fS_VE_MTurk/MX_fS_HTML.html#200,200,1536,695,1536,864,1-8-2024,14-53-36,26,catch_stimuli/c2.png,1000,,,0.0,2813,1001,meters,jsons/MX_seq35_0_VE1000.json,310923,534022,23,Woman
26,186422,final-intermixed-textured,v2,jsons/MX_seq35_0_VE1000.json,http://54.235.29.9/FacialAge/BNav_EC2/DepthDuration/MX_fS_VE_MTurk/MX_fS_HTML.html#200,200,1536,695,1536,864,1-8-2024,14-53-36,27,VR_target_stimuli/s6_1x_2.1_293.png,1000,1x,2.1,4.5,6679,1006,meters,jsons/MX_seq35_0_VE1000.json,310923,534022,23,Woman
27,186422,final-intermixed-textured,v2,jsons/MX_seq35_0_VE1000.json,http://54.235.29.9/FacialAge/BNav_EC2/DepthDuration/MX_fS_VE_MTurk/MX_fS_HTML.html#200,200,1536,695,1536,864,1-8-2024,14-53-36,28,VR_target_stimuli/s0_1x_2.6_351.png,1000,1x,2.6,5.0,3889,998,meters,jsons/MX_seq35_0_VE1000.json,310923,534022,23,Woman
28,186422,final-intermixed-textured,v2,jsons/MX_seq35_0_VE1000.json,http://54.235.29.9/FacialAge/BNav_EC2/DepthDuration/MX_fS_VE_MTurk/MX_fS_HTML.html#200,200,1536,695,1536,864,1-8-2024,14-53-36,29,VR_target_stimuli/s34_0.75x_2.8_269.png,1000,0.75x,2.8,4.0,3425,998,meters,jsons/MX_seq35_0_VE1000.json,310923,534022,23,Woman
29,186422,final-intermixed-textured,v2,jsons/MX_seq35_0_VE1000.json,http://54.235.29.9/FacialAge/BNav_EC2/DepthDuration/MX_fS_VE_MTurk/MX_fS_HTML.html#200,200,1536,695,1536,864,1-8-2024,14-53-36,30,VR_target_stimuli/s13_1.3x_2.4_313_BC.png,1000,1.3x,2.4,3.5,5711,1003,meters,jsons/MX_seq35_0_VE1000.json,310923,534022,23,Woman
30,186422,final-intermixed-textured,v2,jsons/MX_seq35_0_VE1000.json,http://54.235.29.9/FacialAge/BNav_EC2/DepthDuration/MX_fS_VE_MTurk/MX_fS_HTML.html#200,200,1536,695,1536,864,1-8-2024,14-53-36,31,VR_target_stimuli/s14_1x_ 3.83_357_BC.png,1000,1x,3.83,5.0,3183,997,meters,jsons/MX_seq35_0_VE1000.json,310923,534022,23,Woman
31,186422,final-intermixed-textured,v2,jsons/MX_seq35_0_VE1000.json,http://54.235.29.9/FacialAge/BNav_EC2/DepthDuration/MX_fS_VE_MTurk/MX_fS_HTML.html#200,200,1536,695,1536,864,1-8-2024,14-53-36,32,VR_target_stimuli/s47_1.3x_3.45_373.png,1000,1.3x,3.45,3.8,8355,987,meters,jsons/MX_seq35_0_VE1000.json,310923,534022,23,Woman
32,186422,final-intermixed-textured,v2,jsons/MX_seq35_0_VE1000.json,http://54.235.29.9/FacialAge/BNav_EC2/DepthDuration/MX_fS_VE_MTurk/MX_fS_HTML.html#200,200,1536,695,1536,864,1-8-2024,14-53-36,33,VR_target_stimuli/s29_0.75x_1.3_246_BC.png,1000,0.75x,1.3,2.0,3463,1002,meters,jsons/MX_seq35_0_VE1000.json,310923,534022,23,Woman
33,186422,final-intermixed-textured,v2,jsons/MX_seq35_0_VE1000.json,http://54.235.29.9/FacialAge/BNav_EC2/DepthDuration/MX_fS_VE_MTurk/MX_fS_HTML.html#200,200,1536,695,1536,864,1-8-2024,14-53-36,34,catch_stimuli/c3.png,1000,,,0.0,2851,1001,meters,jsons/MX_seq35_0_VE1000.json,310923,534022,23,Woman
34,186422,final-intermixed-textured,v2,jsons/MX_seq35_0_VE1000.json,http://54.235.29.9/FacialAge/BNav_EC2/DepthDuration/MX_fS_VE_MTurk/MX_fS_HTML.html#200,200,1536,695,1536,864,1-8-2024,14-53-36,35,VR_target_stimuli/s28_1.3x_3.2_365_BC.png,1000,1.3x,3.2,3.0,3367,1010,meters,jsons/MX_seq35_0_VE1000.json,310923,534022,23,Woman
35,186422,final-intermixed-textured,v2,jsons/MX_seq35_0_VE1000.json,http://54.235.29.9/FacialAge/BNav_EC2/DepthDuration/MX_fS_VE_MTurk/MX_fS_HTML.html#200,200,1536,695,1536,864,1-8-2024,14-53-36,36,VR_target_stimuli/s48_1x_2.55_256_BC.png,1000,1x,2.55,3.5,4861,997,meters,jsons/MX_seq35_0_VE1000.json,310923,534022,23,Woman
36,186422,final-intermixed-textured,v2,jsons/MX_seq35_0_VE1000.json,http://54.235.29.9/FacialAge/BNav_EC2/DepthDuration/MX_fS_VE_MTurk/MX_fS_HTML.html#200,200,1536,695,1536,864,1-8-2024,14-53-36,37,VR_target_stimuli/s19_0.75x_1.21_257_BC.png,1000,0.75x,1.21,2.0,3726,1006,meters,jsons/MX_seq35_0_VE1000.json,310923,534022,23,Woman
37,186422,final-intermixed-textured,v2,jsons/MX_seq35_0_VE1000.json,http://54.235.29.9/FacialAge/BNav_EC2/DepthDuration/MX_fS_VE_MTurk/MX_fS_HTML.html#200,200,1536,695,1536,864,1-8-2024,14-53-36,38,VR_target_stimuli/s21_0.75x_4.22_374.png,1000,0.75x,4.22,9.0,3478,1000,meters,jsons/MX_seq35_0_VE1000.json,310923,534022,23,Woman
38,186422,final-intermixed-textured,v2,jsons/MX_seq35_0_VE1000.json,http://54.235.29.9/FacialAge/BNav_EC2/DepthDuration/MX_fS_VE_MTurk/MX_fS_HTML.html#200,200,1536,695,1536,864,1-8-2024,14-53-36,39,VR_target_stimuli/s8_1.3x_3.1_345.png,1000,1.3x,3.1,4.0,2989,996,meters,jsons/MX_seq35_0_VE1000.json,310923,534022,23,Woman
39,186422,final-intermixed-textured,v2,jsons/MX_seq35_0_VE1000.json,http://54.235.29.9/FacialAge/BNav_EC2/DepthDuration/MX_fS_VE_MTurk/MX_fS_HTML.html#200,200,1536,695,1536,864,1-8-2024,14-53-36,40,VR_target_stimuli/s27_1x_1.76_248.png,1000,1x,1.76,4.0,3076,1004,meters,jsons/MX_seq35_0_VE1000.json,310923,534022,23,Woman
40,186422,final-intermixed-textured,v2,jsons/MX_seq35_0_VE1000.json,http://54.235.29.9/FacialAge/BNav_EC2/DepthDuration/MX_fS_VE_MTurk/MX_fS_HTML.html#200,200,1536,695,1536,864,1-8-2024,14-53-36,41,VR_target_stimuli/s15_1.3x_4.2_389_BC.png,1000,1.3x,4.2,5.5,3929,993,meters,jsons/MX_seq35_0_VE1000.json,310923,534022,23,Woman
41,186422,final-intermixed-textured,v2,jsons/MX_seq35_0_VE1000.json,http://54.235.29.9/FacialAge/BNav_EC2/DepthDuration/MX_fS_VE_MTurk/MX_fS_HTML.html#200,200,1536,695,1536,864,1-8-2024,14-53-36,42,VR_target_stimuli/s4_0.75x_1.4_301_BC.png,1000,0.75x,1.4,2.5,7978,999,meters,jsons/MX_seq35_0_VE1000.json,310923,534022,23,Woman
42,186422,final-intermixed-textured,v2,jsons/MX_seq35_0_VE1000.json,http://54.235.29.9/FacialAge/BNav_EC2/DepthDuration/MX_fS_VE_MTurk/MX_fS_HTML.html#200,200,1536,695,1536,864,1-8-2024,14-53-36,43,VR_target_stimuli/s35_1x_2_331_BC.png,1000,1x,2.0,3.0,4435,994,meters,jsons/MX_seq35_0_VE1000.json,310923,534022,23,Woman
43,186422,final-intermixed-textured,v2,jsons/MX_seq35_0_VE1000.json,http://54.235.29.9/FacialAge/BNav_EC2/DepthDuration/MX_fS_VE_MTurk/MX_fS_HTML.html#200,200,1536,695,1536,864,1-8-2024,14-53-36,44,VR_target_stimuli/s49_0.75x_4.67_328.png,1000,0.75x,4.67,4.0,7599,993,meters,jsons/MX_seq35_0_VE1000.json,310923,534022,23,Woman
44,186422,final-intermixed-textured,v2,jsons/MX_seq35_0_VE1000.json,http://54.235.29.9/FacialAge/BNav_EC2/DepthDuration/MX_fS_VE_MTurk/MX_fS_HTML.html#200,200,1536,695,1536,864,1-8-2024,14-53-36,45,catch_stimuli/c4.png,1000,,,0.0,3401,983,meters,jsons/MX_seq35_0_VE1000.json,310923,534022,23,Woman
45,186422,final-intermixed-textured,v2,jsons/MX_seq35_0_VE1000.json,http://54.235.29.9/FacialAge/BNav_EC2/DepthDuration/MX_fS_VE_MTurk/MX_fS_HTML.html#200,200,1536,695,1536,864,1-8-2024,14-53-36,46,VR_target_stimuli/s7_1.3x_1.5_256.png,1000,1.3x,1.5,3.0,3350,988,meters,jsons/MX_seq35_0_VE1000.json,310923,534022,23,Woman
46,186422,final-intermixed-textured,v2,jsons/MX_seq35_0_VE1000.json,http://54.235.29.9/FacialAge/BNav_EC2/DepthDuration/MX_fS_VE_MTurk/MX_fS_HTML.html#200,200,1536,695,1536,864,1-8-2024,14-53-36,47,VR_target_stimuli/s20_1x_4.99_398.png,1000,1x,4.99,5.0,3324,1005,meters,jsons/MX_seq35_0_VE1000.json,310923,534022,23,Woman
47,186422,final-intermixed-textured,v2,jsons/MX_seq35_0_VE1000.json,http://54.235.29.9/FacialAge/BNav_EC2/DepthDuration/MX_fS_VE_MTurk/MX_fS_HTML.html#200,200,1536,695,1536,864,1-8-2024,14-53-36,48,VR_target_stimuli/s31_1x_4.96_333.png,1000,1x,4.96,4.5,4657,990,meters,jsons/MX_seq35_0_VE1000.json,310923,534022,23,Woman
48,186422,final-intermixed-textured,v2,jsons/MX_seq35_0_VE1000.json,http://54.235.29.9/FacialAge/BNav_EC2/DepthDuration/MX_fS_VE_MTurk/MX_fS_HTML.html#200,200,1536,695,1536,864,1-8-2024,14-53-36,49,VR_target_stimuli/s33_0.75x_3.1_361_BC.png,1000,0.75x,3.1,4.0,3707,1006,meters,jsons/MX_seq35_0_VE1000.json,310923,534022,23,Woman
49,186422,final-intermixed-textured,v2,jsons/MX_seq35_0_VE1000.json,http://54.235.29.9/FacialAge/BNav_EC2/DepthDuration/MX_fS_VE_MTurk/MX_fS_HTML.html#200,200,1536,695,1536,864,1-8-2024,14-53-36,50,VR_target_stimuli/s52_1.3x_3.2_280_BC.png,1000,1.3x,3.2,6.0,3906,990,meters,jsons/MX_seq35_0_VE1000.json,310923,534022,23,Woman
50,186422,final-intermixed-textured,v2,jsons/MX_seq35_0_VE1000.json,http://54.235.29.9/FacialAge/BNav_EC2/DepthDuration/MX_fS_VE_MTurk/MX_fS_HTML.html#200,200,1536,695,1536,864,1-8-2024,14-53-36,51,VR_target_stimuli/s32_0.75x_1.5_213.png,1000,0.75x,1.5,6.0,3727,1014,meters,jsons/MX_seq35_0_VE1000.json,310923,534022,23,Woman
51,186422,final-intermixed-textured,v2,jsons/MX_seq35_0_VE1000.json,http://54.235.29.9/FacialAge/BNav_EC2/DepthDuration/MX_fS_VE_MTurk/MX_fS_HTML.html#200,200,1536,695,1536,864,1-8-2024,14-53-36,52,VR_target_stimuli/s18_1x_2.25_353_BC.png,1000,1x,2.25,4.0,3024,1000,meters,jsons/MX_seq35_0_VE1000.json,310923,534022,23,Woman
52,186422,final-intermixed-textured,v2,jsons/MX_seq35_0_VE1000.json,http://54.235.29.9/FacialAge/BNav_EC2/DepthDuration/MX_fS_VE_MTurk/MX_fS_HTML.html#200,200,1536,695,1536,864,1-8-2024,14-53-36,53,catch_stimuli/c5.png,1000,,,0.0,2597,989,meters,jsons/MX_seq35_0_VE1000.json,310923,534022,23,Woman
53,186422,final-intermixed-textured,v2,jsons/MX_seq35_0_VE1000.json,http://54.235.29.9/FacialAge/BNav_EC2/DepthDuration/MX_fS_VE_MTurk/MX_fS_HTML.html#200,200,1536,695,1536,864,1-8-2024,14-53-36,54,VR_target_stimuli/s39_1.3x_1_208.png,1000,1.3x,1.0,1.2,6958,996,meters,jsons/MX_seq35_0_VE1000.json,310923,534022,23,Woman
54,186422,final-intermixed-textured,v2,jsons/MX_seq35_0_VE1000.json,http://54.235.29.9/FacialAge/BNav_EC2/DepthDuration/MX_fS_VE_MTurk/MX_fS_HTML.html#200,200,1536,695,1536,864,1-8-2024,14-53-36,55,VR_target_stimuli/s51_1x_3.64_461_BC.png,1000,1x,3.64,2.0,3253,1001,meters,jsons/MX_seq35_0_VE1000.json,310923,534022,23,Woman
55,186422,final-intermixed-textured,v2,jsons/MX_seq35_0_VE1000.json,http://54.235.29.9/FacialAge/BNav_EC2/DepthDuration/MX_fS_VE_MTurk/MX_fS_HTML.html#200,200,1536,695,1536,864,1-8-2024,14-53-36,56,VR_target_stimuli/s43_0.75x_2.2_348.png,1000,0.75x,2.2,3.0,3204,1005,meters,jsons/MX_seq35_0_VE1000.json,310923,534022,23,Woman
56,186422,final-intermixed-textured,v2,jsons/MX_seq35_0_VE1000.json,http://54.235.29.9/FacialAge/BNav_EC2/DepthDuration/MX_fS_VE_MTurk/MX_fS_HTML.html#200,200,1536,695,1536,864,1-8-2024,14-53-36,57,VR_target_stimuli/s24_1.3x_3.3_352.png,1000,1.3x,3.3,4.0,3220,989,meters,jsons/MX_seq35_0_VE1000.json,310923,534022,23,Woman
57,186422,final-intermixed-textured,v2,jsons/MX_seq35_0_VE1000.json,http://54.235.29.9/FacialAge/BNav_EC2/DepthDuration/MX_fS_VE_MTurk/MX_fS_HTML.html#200,200,1536,695,1536,864,1-8-2024,14-53-36,58,VR_target_stimuli/s10_1.3x_2.7_325_BC.png,1000,1.3x,2.7,3.1,5012,1002,meters,jsons/MX_seq35_0_VE1000.json,310923,534022,23,Woman
58,186422,final-intermixed-textured,v2,jsons/MX_seq35_0_VE1000.json,http://54.235.29.9/FacialAge/BNav_EC2/DepthDuration/MX_fS_VE_MTurk/MX_fS_HTML.html#200,200,1536,695,1536,864,1-8-2024,14-53-36,59,VR_target_stimuli/s36_1x_4.1_423.png,1000,1x,4.1,4.0,3181,989,meters,jsons/MX_seq35_0_VE1000.json,310923,534022,23,Woman
59,186422,final-intermixed-textured,v2,jsons/MX_seq35_0_VE1000.json,http://54.235.29.9/FacialAge/BNav_EC2/DepthDuration/MX_fS_VE_MTurk/MX_fS_HTML.html#200,200,1536,695,1536,864,1-8-2024,14-53-36,60,VR_target_stimuli/s40_0.75x_1.2_308_BC.png,1000,0.75x,1.2,1.0,3040,999,meters,jsons/MX_seq35_0_VE1000.json,310923,534022,23,Woman
