,subjID,experimentName,versionName,sequenceName,url,selected_row,windowWidth,windowHeight,screenWidth,screenHeight,startDate,startTime,trial,stimulus,duration,scale,actual_depth,depth_estimate,trial_RT,log_sceneDuration,unitSelection,seq_filepath,experimentTime,totalTime,age,gender
0,198756,final-intermixed-textured,v2,jsons/MX_seq23_0_VE1000.json,http://54.235.29.9/FacialAge/BNav_EC2/DepthDuration/MX_fS_VE_MTurk/MX_fS_HTML.html#151,151,1536,738,1536,864,1-8-2024,14-59-8,1,VR_target_stimuli/s31_0.75x_4.96_329_BC.png,1000,0.75x,4.96,10,4935,1014,meters,jsons/MX_seq23_0_VE1000.json,315132,553464,33,Woman
1,198756,final-intermixed-textured,v2,jsons/MX_seq23_0_VE1000.json,http://54.235.29.9/FacialAge/BNav_EC2/DepthDuration/MX_fS_VE_MTurk/MX_fS_HTML.html#151,151,1536,738,1536,864,1-8-2024,14-59-8,2,VR_target_stimuli/s33_1x_3.1_366.png,1000,1x,3.1,8,4763,1001,meters,jsons/MX_seq23_0_VE1000.json,315132,553464,33,Woman
2,198756,final-intermixed-textured,v2,jsons/MX_seq23_0_VE1000.json,http://54.235.29.9/FacialAge/BNav_EC2/DepthDuration/MX_fS_VE_MTurk/MX_fS_HTML.html#151,151,1536,738,1536,864,1-8-2024,14-59-8,3,VR_target_stimuli/s52_1.3x_3.2_280.png,1000,1.3x,3.2,8,4480,1003,meters,jsons/MX_seq23_0_VE1000.json,315132,553464,33,Woman
3,198756,final-intermixed-textured,v2,jsons/MX_seq23_0_VE1000.json,http://54.235.29.9/FacialAge/BNav_EC2/DepthDuration/MX_fS_VE_MTurk/MX_fS_HTML.html#151,151,1536,738,1536,864,1-8-2024,14-59-8,4,VR_target_stimuli/s32_1x_1.5_218_BC.png,1000,1x,1.5,5,4533,992,meters,jsons/MX_seq23_0_VE1000.json,315132,553464,33,Woman
4,198756,final-intermixed-textured,v2,jsons/MX_seq23_0_VE1000.json,http://54.235.29.9/FacialAge/BNav_EC2/DepthDuration/MX_fS_VE_MTurk/MX_fS_HTML.html#151,151,1536,738,1536,864,1-8-2024,14-59-8,5,VR_target_stimuli/s18_0.75x_2.25_341.png,1000,0.75x,2.25,4,4798,995,meters,jsons/MX_seq23_0_VE1000.json,315132,553464,33,Woman
5,198756,final-intermixed-textured,v2,jsons/MX_seq23_0_VE1000.json,http://54.235.29.9/FacialAge/BNav_EC2/DepthDuration/MX_fS_VE_MTurk/MX_fS_HTML.html#151,151,1536,738,1536,864,1-8-2024,14-59-8,6,VR_target_stimuli/s39_1.3x_1_208_BC.png,1000,1.3x,1.0,2,4404,1003,meters,jsons/MX_seq23_0_VE1000.json,315132,553464,33,Woman
6,198756,final-intermixed-textured,v2,jsons/MX_seq23_0_VE1000.json,http://54.235.29.9/FacialAge/BNav_EC2/DepthDuration/MX_fS_VE_MTurk/MX_fS_HTML.html#151,151,1536,738,1536,864,1-8-2024,14-59-8,7,catch_stimuli/c0.png,1000,,,0,3947,992,meters,jsons/MX_seq23_0_VE1000.json,315132,553464,33,Woman
7,198756,final-intermixed-textured,v2,jsons/MX_seq23_0_VE1000.json,http://54.235.29.9/FacialAge/BNav_EC2/DepthDuration/MX_fS_VE_MTurk/MX_fS_HTML.html#151,151,1536,738,1536,864,1-8-2024,14-59-8,8,VR_target_stimuli/s51_1.3x_3.64_479_BC.png,1000,1.3x,3.64,4,5862,990,meters,jsons/MX_seq23_0_VE1000.json,315132,553464,33,Woman
8,198756,final-intermixed-textured,v2,jsons/MX_seq23_0_VE1000.json,http://54.235.29.9/FacialAge/BNav_EC2/DepthDuration/MX_fS_VE_MTurk/MX_fS_HTML.html#151,151,1536,738,1536,864,1-8-2024,14-59-8,9,VR_target_stimuli/s43_1x_2.2_354_BC.png,1000,1x,2.2,5,4191,1002,meters,jsons/MX_seq23_0_VE1000.json,315132,553464,33,Woman
9,198756,final-intermixed-textured,v2,jsons/MX_seq23_0_VE1000.json,http://54.235.29.9/FacialAge/BNav_EC2/DepthDuration/MX_fS_VE_MTurk/MX_fS_HTML.html#151,151,1536,738,1536,864,1-8-2024,14-59-8,10,VR_target_stimuli/s24_0.75x_3.3_344_BC.png,1000,0.75x,3.3,9,4237,1003,meters,jsons/MX_seq23_0_VE1000.json,315132,553464,33,Woman
10,198756,final-intermixed-textured,v2,jsons/MX_seq23_0_VE1000.json,http://54.235.29.9/FacialAge/BNav_EC2/DepthDuration/MX_fS_VE_MTurk/MX_fS_HTML.html#151,151,1536,738,1536,864,1-8-2024,14-59-8,11,VR_target_stimuli/s10_1x_2.7_324.png,1000,1x,2.7,4,4193,1001,meters,jsons/MX_seq23_0_VE1000.json,315132,553464,33,Woman
11,198756,final-intermixed-textured,v2,jsons/MX_seq23_0_VE1000.json,http://54.235.29.9/FacialAge/BNav_EC2/DepthDuration/MX_fS_VE_MTurk/MX_fS_HTML.html#151,151,1536,738,1536,864,1-8-2024,14-59-8,12,VR_target_stimuli/s36_1.3x_4.1_442.png,1000,1.3x,4.1,5,4247,1008,meters,jsons/MX_seq23_0_VE1000.json,315132,553464,33,Woman
12,198756,final-intermixed-textured,v2,jsons/MX_seq23_0_VE1000.json,http://54.235.29.9/FacialAge/BNav_EC2/DepthDuration/MX_fS_VE_MTurk/MX_fS_HTML.html#151,151,1536,738,1536,864,1-8-2024,14-59-8,13,VR_target_stimuli/s40_0.75x_1.2_308.png,1000,0.75x,1.2,1,3819,995,meters,jsons/MX_seq23_0_VE1000.json,315132,553464,33,Woman
13,198756,final-intermixed-textured,v2,jsons/MX_seq23_0_VE1000.json,http://54.235.29.9/FacialAge/BNav_EC2/DepthDuration/MX_fS_VE_MTurk/MX_fS_HTML.html#151,151,1536,738,1536,864,1-8-2024,14-59-8,14,VR_target_stimuli/s41_1.3x_2.1_294_BC.png,1000,1.3x,2.1,3,3815,1002,meters,jsons/MX_seq23_0_VE1000.json,315132,553464,33,Woman
14,198756,final-intermixed-textured,v2,jsons/MX_seq23_0_VE1000.json,http://54.235.29.9/FacialAge/BNav_EC2/DepthDuration/MX_fS_VE_MTurk/MX_fS_HTML.html#151,151,1536,738,1536,864,1-8-2024,14-59-8,15,VR_target_stimuli/s45_1x_3.5_368_BC.png,1000,1x,3.5,7,6197,1005,meters,jsons/MX_seq23_0_VE1000.json,315132,553464,33,Woman
15,198756,final-intermixed-textured,v2,jsons/MX_seq23_0_VE1000.json,http://54.235.29.9/FacialAge/BNav_EC2/DepthDuration/MX_fS_VE_MTurk/MX_fS_HTML.html#151,151,1536,738,1536,864,1-8-2024,14-59-8,16,VR_target_stimuli/s23_0.75x_3.65_351.png,1000,0.75x,3.65,6,4677,997,meters,jsons/MX_seq23_0_VE1000.json,315132,553464,33,Woman
16,198756,final-intermixed-textured,v2,jsons/MX_seq23_0_VE1000.json,http://54.235.29.9/FacialAge/BNav_EC2/DepthDuration/MX_fS_VE_MTurk/MX_fS_HTML.html#151,151,1536,738,1536,864,1-8-2024,14-59-8,17,catch_stimuli/c1.png,1000,,,0,4210,1010,meters,jsons/MX_seq23_0_VE1000.json,315132,553464,33,Woman
17,198756,final-intermixed-textured,v2,jsons/MX_seq23_0_VE1000.json,http://54.235.29.9/FacialAge/BNav_EC2/DepthDuration/MX_fS_VE_MTurk/MX_fS_HTML.html#151,151,1536,738,1536,864,1-8-2024,14-59-8,18,VR_target_stimuli/s26_0.75x_4_430_BC.png,1000,0.75x,4.0,3,4786,1000,meters,jsons/MX_seq23_0_VE1000.json,315132,553464,33,Woman
18,198756,final-intermixed-textured,v2,jsons/MX_seq23_0_VE1000.json,http://54.235.29.9/FacialAge/BNav_EC2/DepthDuration/MX_fS_VE_MTurk/MX_fS_HTML.html#151,151,1536,738,1536,864,1-8-2024,14-59-8,19,VR_target_stimuli/s12_1.3x_3.1_375.png,1000,1.3x,3.1,4,4230,999,meters,jsons/MX_seq23_0_VE1000.json,315132,553464,33,Woman
19,198756,final-intermixed-textured,v2,jsons/MX_seq23_0_VE1000.json,http://54.235.29.9/FacialAge/BNav_EC2/DepthDuration/MX_fS_VE_MTurk/MX_fS_HTML.html#151,151,1536,738,1536,864,1-8-2024,14-59-8,20,VR_target_stimuli/s30_1x_2.3_334.png,1000,1x,2.3,4,4125,1010,meters,jsons/MX_seq23_0_VE1000.json,315132,553464,33,Woman
20,198756,final-intermixed-textured,v2,jsons/MX_seq23_0_VE1000.json,http://54.235.29.9/FacialAge/BNav_EC2/DepthDuration/MX_fS_VE_MTurk/MX_fS_HTML.html#151,151,1536,738,1536,864,1-8-2024,14-59-8,21,VR_target_stimuli/s16_1.3x_1_223.png,1000,1.3x,1.0,2,4310,1007,meters,jsons/MX_seq23_0_VE1000.json,315132,553464,33,Woman
21,198756,final-intermixed-textured,v2,jsons/MX_seq23_0_VE1000.json,http://54.235.29.9/FacialAge/BNav_EC2/DepthDuration/MX_fS_VE_MTurk/MX_fS_HTML.html#151,151,1536,738,1536,864,1-8-2024,14-59-8,22,VR_target_stimuli/s17_0.75x_1.8_285.png,1000,0.75x,1.8,3,3769,1010,meters,jsons/MX_seq23_0_VE1000.json,315132,553464,33,Woman
22,198756,final-intermixed-textured,v2,jsons/MX_seq23_0_VE1000.json,http://54.235.29.9/FacialAge/BNav_EC2/DepthDuration/MX_fS_VE_MTurk/MX_fS_HTML.html#151,151,1536,738,1536,864,1-8-2024,14-59-8,23,VR_target_stimuli/s5_1x_4_378.png,1000,1x,4.0,6,5888,1001,meters,jsons/MX_seq23_0_VE1000.json,315132,553464,33,Woman
23,198756,final-intermixed-textured,v2,jsons/MX_seq23_0_VE1000.json,http://54.235.29.9/FacialAge/BNav_EC2/DepthDuration/MX_fS_VE_MTurk/MX_fS_HTML.html#151,151,1536,738,1536,864,1-8-2024,14-59-8,24,VR_target_stimuli/s37_0.75x_3.3_567_BC.png,1000,0.75x,3.3,4,4516,1003,meters,jsons/MX_seq23_0_VE1000.json,315132,553464,33,Woman
24,198756,final-intermixed-textured,v2,jsons/MX_seq23_0_VE1000.json,http://54.235.29.9/FacialAge/BNav_EC2/DepthDuration/MX_fS_VE_MTurk/MX_fS_HTML.html#151,151,1536,738,1536,864,1-8-2024,14-59-8,25,VR_target_stimuli/s46_1.3x_2.42_354_BC.png,1000,1.3x,2.42,4,4504,992,meters,jsons/MX_seq23_0_VE1000.json,315132,553464,33,Woman
25,198756,final-intermixed-textured,v2,jsons/MX_seq23_0_VE1000.json,http://54.235.29.9/FacialAge/BNav_EC2/DepthDuration/MX_fS_VE_MTurk/MX_fS_HTML.html#151,151,1536,738,1536,864,1-8-2024,14-59-8,26,catch_stimuli/c2.png,1000,,,0,5387,1005,meters,jsons/MX_seq23_0_VE1000.json,315132,553464,33,Woman
26,198756,final-intermixed-textured,v2,jsons/MX_seq23_0_VE1000.json,http://54.235.29.9/FacialAge/BNav_EC2/DepthDuration/MX_fS_VE_MTurk/MX_fS_HTML.html#151,151,1536,738,1536,864,1-8-2024,14-59-8,27,VR_target_stimuli/s22_1x_4.29_354_BC.png,1000,1x,4.29,7,4456,1013,meters,jsons/MX_seq23_0_VE1000.json,315132,553464,33,Woman
27,198756,final-intermixed-textured,v2,jsons/MX_seq23_0_VE1000.json,http://54.235.29.9/FacialAge/BNav_EC2/DepthDuration/MX_fS_VE_MTurk/MX_fS_HTML.html#151,151,1536,738,1536,864,1-8-2024,14-59-8,28,VR_target_stimuli/s42_1x_3.2_303.png,1000,1x,3.2,6,5942,1004,meters,jsons/MX_seq23_0_VE1000.json,315132,553464,33,Woman
28,198756,final-intermixed-textured,v2,jsons/MX_seq23_0_VE1000.json,http://54.235.29.9/FacialAge/BNav_EC2/DepthDuration/MX_fS_VE_MTurk/MX_fS_HTML.html#151,151,1536,738,1536,864,1-8-2024,14-59-8,29,VR_target_stimuli/s25_0.75x_1.4_281.png,1000,0.75x,1.4,3,5363,999,meters,jsons/MX_seq23_0_VE1000.json,315132,553464,33,Woman
29,198756,final-intermixed-textured,v2,jsons/MX_seq23_0_VE1000.json,http://54.235.29.9/FacialAge/BNav_EC2/DepthDuration/MX_fS_VE_MTurk/MX_fS_HTML.html#151,151,1536,738,1536,864,1-8-2024,14-59-8,30,VR_target_stimuli/s50_1.3x_4.53_518_BC.png,1000,1.3x,4.53,3,5712,998,meters,jsons/MX_seq23_0_VE1000.json,315132,553464,33,Woman
30,198756,final-intermixed-textured,v2,jsons/MX_seq23_0_VE1000.json,http://54.235.29.9/FacialAge/BNav_EC2/DepthDuration/MX_fS_VE_MTurk/MX_fS_HTML.html#151,151,1536,738,1536,864,1-8-2024,14-59-8,31,VR_target_stimuli/s53_1x_1.6_387_BC.png,1000,1x,1.6,1,4374,1003,meters,jsons/MX_seq23_0_VE1000.json,315132,553464,33,Woman
31,198756,final-intermixed-textured,v2,jsons/MX_seq23_0_VE1000.json,http://54.235.29.9/FacialAge/BNav_EC2/DepthDuration/MX_fS_VE_MTurk/MX_fS_HTML.html#151,151,1536,738,1536,864,1-8-2024,14-59-8,32,VR_target_stimuli/s38_1.3x_3.55_358.png,1000,1.3x,3.55,7,4345,1010,meters,jsons/MX_seq23_0_VE1000.json,315132,553464,33,Woman
32,198756,final-intermixed-textured,v2,jsons/MX_seq23_0_VE1000.json,http://54.235.29.9/FacialAge/BNav_EC2/DepthDuration/MX_fS_VE_MTurk/MX_fS_HTML.html#151,151,1536,738,1536,864,1-8-2024,14-59-8,33,VR_target_stimuli/s9_0.75x_1.2_260_BC.png,1000,0.75x,1.2,2,4203,999,meters,jsons/MX_seq23_0_VE1000.json,315132,553464,33,Woman
33,198756,final-intermixed-textured,v2,jsons/MX_seq23_0_VE1000.json,http://54.235.29.9/FacialAge/BNav_EC2/DepthDuration/MX_fS_VE_MTurk/MX_fS_HTML.html#151,151,1536,738,1536,864,1-8-2024,14-59-8,34,catch_stimuli/c3.png,1000,,,0,4099,1004,meters,jsons/MX_seq23_0_VE1000.json,315132,553464,33,Woman
34,198756,final-intermixed-textured,v2,jsons/MX_seq23_0_VE1000.json,http://54.235.29.9/FacialAge/BNav_EC2/DepthDuration/MX_fS_VE_MTurk/MX_fS_HTML.html#151,151,1536,738,1536,864,1-8-2024,14-59-8,35,VR_target_stimuli/s44_1.3x_4.4_325.png,1000,1.3x,4.4,9,5457,1000,meters,jsons/MX_seq23_0_VE1000.json,315132,553464,33,Woman
35,198756,final-intermixed-textured,v2,jsons/MX_seq23_0_VE1000.json,http://54.235.29.9/FacialAge/BNav_EC2/DepthDuration/MX_fS_VE_MTurk/MX_fS_HTML.html#151,151,1536,738,1536,864,1-8-2024,14-59-8,36,VR_target_stimuli/s3_1x_5_385_BC.png,1000,1x,5.0,6,4896,1007,meters,jsons/MX_seq23_0_VE1000.json,315132,553464,33,Woman
36,198756,final-intermixed-textured,v2,jsons/MX_seq23_0_VE1000.json,http://54.235.29.9/FacialAge/BNav_EC2/DepthDuration/MX_fS_VE_MTurk/MX_fS_HTML.html#151,151,1536,738,1536,864,1-8-2024,14-59-8,37,VR_target_stimuli/s1_0.75x_1.7_265_BC.png,1000,0.75x,1.7,3,4565,999,meters,jsons/MX_seq23_0_VE1000.json,315132,553464,33,Woman
37,198756,final-intermixed-textured,v2,jsons/MX_seq23_0_VE1000.json,http://54.235.29.9/FacialAge/BNav_EC2/DepthDuration/MX_fS_VE_MTurk/MX_fS_HTML.html#151,151,1536,738,1536,864,1-8-2024,14-59-8,38,VR_target_stimuli/s11_0.75x_5_359.png,1000,0.75x,5.0,8,4378,1002,meters,jsons/MX_seq23_0_VE1000.json,315132,553464,33,Woman
38,198756,final-intermixed-textured,v2,jsons/MX_seq23_0_VE1000.json,http://54.235.29.9/FacialAge/BNav_EC2/DepthDuration/MX_fS_VE_MTurk/MX_fS_HTML.html#151,151,1536,738,1536,864,1-8-2024,14-59-8,39,VR_target_stimuli/s2_1.3x_2.7_397_BC.png,1000,1.3x,2.7,5,3736,1001,meters,jsons/MX_seq23_0_VE1000.json,315132,553464,33,Woman
39,198756,final-intermixed-textured,v2,jsons/MX_seq23_0_VE1000.json,http://54.235.29.9/FacialAge/BNav_EC2/DepthDuration/MX_fS_VE_MTurk/MX_fS_HTML.html#151,151,1536,738,1536,864,1-8-2024,14-59-8,40,VR_target_stimuli/s6_1x_2.1_293.png,1000,1x,2.1,3,4572,1005,meters,jsons/MX_seq23_0_VE1000.json,315132,553464,33,Woman
40,198756,final-intermixed-textured,v2,jsons/MX_seq23_0_VE1000.json,http://54.235.29.9/FacialAge/BNav_EC2/DepthDuration/MX_fS_VE_MTurk/MX_fS_HTML.html#151,151,1536,738,1536,864,1-8-2024,14-59-8,41,VR_target_stimuli/s0_1.3x_2.6_356.png,1000,1.3x,2.6,4,5678,1001,meters,jsons/MX_seq23_0_VE1000.json,315132,553464,33,Woman
41,198756,final-intermixed-textured,v2,jsons/MX_seq23_0_VE1000.json,http://54.235.29.9/FacialAge/BNav_EC2/DepthDuration/MX_fS_VE_MTurk/MX_fS_HTML.html#151,151,1536,738,1536,864,1-8-2024,14-59-8,42,VR_target_stimuli/s34_0.75x_2.8_269.png,1000,0.75x,2.8,6,4240,1007,meters,jsons/MX_seq23_0_VE1000.json,315132,553464,33,Woman
42,198756,final-intermixed-textured,v2,jsons/MX_seq23_0_VE1000.json,http://54.235.29.9/FacialAge/BNav_EC2/DepthDuration/MX_fS_VE_MTurk/MX_fS_HTML.html#151,151,1536,738,1536,864,1-8-2024,14-59-8,43,VR_target_stimuli/s13_1x_2.4_310.png,1000,1x,2.4,5,4471,1000,meters,jsons/MX_seq23_0_VE1000.json,315132,553464,33,Woman
43,198756,final-intermixed-textured,v2,jsons/MX_seq23_0_VE1000.json,http://54.235.29.9/FacialAge/BNav_EC2/DepthDuration/MX_fS_VE_MTurk/MX_fS_HTML.html#151,151,1536,738,1536,864,1-8-2024,14-59-8,44,VR_target_stimuli/s14_0.75x_3.83_355_BC.png,1000,0.75x,3.83,6,7752,1000,meters,jsons/MX_seq23_0_VE1000.json,315132,553464,33,Woman
44,198756,final-intermixed-textured,v2,jsons/MX_seq23_0_VE1000.json,http://54.235.29.9/FacialAge/BNav_EC2/DepthDuration/MX_fS_VE_MTurk/MX_fS_HTML.html#151,151,1536,738,1536,864,1-8-2024,14-59-8,45,catch_stimuli/c4.png,1000,,,0,4814,1002,meters,jsons/MX_seq23_0_VE1000.json,315132,553464,33,Woman
45,198756,final-intermixed-textured,v2,jsons/MX_seq23_0_VE1000.json,http://54.235.29.9/FacialAge/BNav_EC2/DepthDuration/MX_fS_VE_MTurk/MX_fS_HTML.html#151,151,1536,738,1536,864,1-8-2024,14-59-8,46,VR_target_stimuli/s47_1.3x_3.45_373_BC.png,1000,1.3x,3.45,7,5521,997,meters,jsons/MX_seq23_0_VE1000.json,315132,553464,33,Woman
46,198756,final-intermixed-textured,v2,jsons/MX_seq23_0_VE1000.json,http://54.235.29.9/FacialAge/BNav_EC2/DepthDuration/MX_fS_VE_MTurk/MX_fS_HTML.html#151,151,1536,738,1536,864,1-8-2024,14-59-8,47,VR_target_stimuli/s29_1x_1.3_250_BC.png,1000,1x,1.3,2,4714,1003,meters,jsons/MX_seq23_0_VE1000.json,315132,553464,33,Woman
47,198756,final-intermixed-textured,v2,jsons/MX_seq23_0_VE1000.json,http://54.235.29.9/FacialAge/BNav_EC2/DepthDuration/MX_fS_VE_MTurk/MX_fS_HTML.html#151,151,1536,738,1536,864,1-8-2024,14-59-8,48,VR_target_stimuli/s28_1x_3.2_362.png,1000,1x,3.2,5,4145,998,meters,jsons/MX_seq23_0_VE1000.json,315132,553464,33,Woman
48,198756,final-intermixed-textured,v2,jsons/MX_seq23_0_VE1000.json,http://54.235.29.9/FacialAge/BNav_EC2/DepthDuration/MX_fS_VE_MTurk/MX_fS_HTML.html#151,151,1536,738,1536,864,1-8-2024,14-59-8,49,VR_target_stimuli/s48_0.75x_2.55_243.png,1000,0.75x,2.55,6,6258,1007,meters,jsons/MX_seq23_0_VE1000.json,315132,553464,33,Woman
49,198756,final-intermixed-textured,v2,jsons/MX_seq23_0_VE1000.json,http://54.235.29.9/FacialAge/BNav_EC2/DepthDuration/MX_fS_VE_MTurk/MX_fS_HTML.html#151,151,1536,738,1536,864,1-8-2024,14-59-8,50,VR_target_stimuli/s19_1.3x_1.21_270_BC.png,1000,1.3x,1.21,2,4388,1007,meters,jsons/MX_seq23_0_VE1000.json,315132,553464,33,Woman
50,198756,final-intermixed-textured,v2,jsons/MX_seq23_0_VE1000.json,http://54.235.29.9/FacialAge/BNav_EC2/DepthDuration/MX_fS_VE_MTurk/MX_fS_HTML.html#151,151,1536,738,1536,864,1-8-2024,14-59-8,51,VR_target_stimuli/s21_0.75x_4.22_374_BC.png,1000,0.75x,4.22,9,5007,992,meters,jsons/MX_seq23_0_VE1000.json,315132,553464,33,Woman
51,198756,final-intermixed-textured,v2,jsons/MX_seq23_0_VE1000.json,http://54.235.29.9/FacialAge/BNav_EC2/DepthDuration/MX_fS_VE_MTurk/MX_fS_HTML.html#151,151,1536,738,1536,864,1-8-2024,14-59-8,52,VR_target_stimuli/s8_1x_3.1_332_BC.png,1000,1x,3.1,5,4441,1003,meters,jsons/MX_seq23_0_VE1000.json,315132,553464,33,Woman
52,198756,final-intermixed-textured,v2,jsons/MX_seq23_0_VE1000.json,http://54.235.29.9/FacialAge/BNav_EC2/DepthDuration/MX_fS_VE_MTurk/MX_fS_HTML.html#151,151,1536,738,1536,864,1-8-2024,14-59-8,53,catch_stimuli/c5.png,1000,,,0,4626,992,meters,jsons/MX_seq23_0_VE1000.json,315132,553464,33,Woman
53,198756,final-intermixed-textured,v2,jsons/MX_seq23_0_VE1000.json,http://54.235.29.9/FacialAge/BNav_EC2/DepthDuration/MX_fS_VE_MTurk/MX_fS_HTML.html#151,151,1536,738,1536,864,1-8-2024,14-59-8,54,VR_target_stimuli/s27_1.3x_1.76_250.png,1000,1.3x,1.76,5,5019,999,meters,jsons/MX_seq23_0_VE1000.json,315132,553464,33,Woman
54,198756,final-intermixed-textured,v2,jsons/MX_seq23_0_VE1000.json,http://54.235.29.9/FacialAge/BNav_EC2/DepthDuration/MX_fS_VE_MTurk/MX_fS_HTML.html#151,151,1536,738,1536,864,1-8-2024,14-59-8,55,VR_target_stimuli/s15_1x_4.2_390_BC.png,1000,1x,4.2,8,4883,1000,meters,jsons/MX_seq23_0_VE1000.json,315132,553464,33,Woman
55,198756,final-intermixed-textured,v2,jsons/MX_seq23_0_VE1000.json,http://54.235.29.9/FacialAge/BNav_EC2/DepthDuration/MX_fS_VE_MTurk/MX_fS_HTML.html#151,151,1536,738,1536,864,1-8-2024,14-59-8,56,VR_target_stimuli/s4_0.75x_1.4_301.png,1000,0.75x,1.4,2,4782,993,meters,jsons/MX_seq23_0_VE1000.json,315132,553464,33,Woman
56,198756,final-intermixed-textured,v2,jsons/MX_seq23_0_VE1000.json,http://54.235.29.9/FacialAge/BNav_EC2/DepthDuration/MX_fS_VE_MTurk/MX_fS_HTML.html#151,151,1536,738,1536,864,1-8-2024,14-59-8,57,VR_target_stimuli/s35_1.3x_2_338_BC.png,1000,1.3x,2.0,4,4096,1008,meters,jsons/MX_seq23_0_VE1000.json,315132,553464,33,Woman
57,198756,final-intermixed-textured,v2,jsons/MX_seq23_0_VE1000.json,http://54.235.29.9/FacialAge/BNav_EC2/DepthDuration/MX_fS_VE_MTurk/MX_fS_HTML.html#151,151,1536,738,1536,864,1-8-2024,14-59-8,58,VR_target_stimuli/s49_1.3x_4.67_354.png,1000,1.3x,4.67,9,4094,996,meters,jsons/MX_seq23_0_VE1000.json,315132,553464,33,Woman
58,198756,final-intermixed-textured,v2,jsons/MX_seq23_0_VE1000.json,http://54.235.29.9/FacialAge/BNav_EC2/DepthDuration/MX_fS_VE_MTurk/MX_fS_HTML.html#151,151,1536,738,1536,864,1-8-2024,14-59-8,59,VR_target_stimuli/s7_1x_1.5_255.png,1000,1x,1.5,4,4174,1005,meters,jsons/MX_seq23_0_VE1000.json,315132,553464,33,Woman
59,198756,final-intermixed-textured,v2,jsons/MX_seq23_0_VE1000.json,http://54.235.29.9/FacialAge/BNav_EC2/DepthDuration/MX_fS_VE_MTurk/MX_fS_HTML.html#151,151,1536,738,1536,864,1-8-2024,14-59-8,60,VR_target_stimuli/s20_0.75x_4.99_390_BC.png,1000,0.75x,4.99,10,6727,989,meters,jsons/MX_seq23_0_VE1000.json,315132,553464,33,Woman
