,subjID,experimentName,versionName,sequenceName,url,selected_row,windowWidth,windowHeight,screenWidth,screenHeight,startDate,startTime,trial,stimulus,duration,scale,actual_depth,depth_estimate,trial_RT,log_sceneDuration,unitSelection,seq_filepath,experimentTime,totalTime,age,gender
0,204240,final-intermixed-textured,v2,jsons/MX_seq18_0_VE1000_flipped.json,http://54.235.29.9/FacialAge/BNav_EC2/DepthDuration/MX_fS_VE_MTurk/MX_fS_HTML.html#146,146,1536,703,1536,864,1-8-2024,18-30-34,1,VR_target_stimuli/s4_0.75x_1.4_301_BC.png,1000,0.75x,1.4,1.0,4131,996,meters,jsons/MX_seq18_0_VE1000_flipped.json,296412,545147,24,Woman
1,204240,final-intermixed-textured,v2,jsons/MX_seq18_0_VE1000_flipped.json,http://54.235.29.9/FacialAge/BNav_EC2/DepthDuration/MX_fS_VE_MTurk/MX_fS_HTML.html#146,146,1536,703,1536,864,1-8-2024,18-30-34,2,VR_target_stimuli/s35_1x_2_331_BC.png,1000,1x,2.0,2.5,12556,1000,meters,jsons/MX_seq18_0_VE1000_flipped.json,296412,545147,24,Woman
2,204240,final-intermixed-textured,v2,jsons/MX_seq18_0_VE1000_flipped.json,http://54.235.29.9/FacialAge/BNav_EC2/DepthDuration/MX_fS_VE_MTurk/MX_fS_HTML.html#146,146,1536,703,1536,864,1-8-2024,18-30-34,3,VR_target_stimuli/s49_1.3x_4.67_354.png,1000,1.3x,4.67,3.0,3742,999,meters,jsons/MX_seq18_0_VE1000_flipped.json,296412,545147,24,Woman
3,204240,final-intermixed-textured,v2,jsons/MX_seq18_0_VE1000_flipped.json,http://54.235.29.9/FacialAge/BNav_EC2/DepthDuration/MX_fS_VE_MTurk/MX_fS_HTML.html#146,146,1536,703,1536,864,1-8-2024,18-30-34,4,VR_target_stimuli/s7_1x_1.5_255.png,1000,1x,1.5,1.5,5187,995,meters,jsons/MX_seq18_0_VE1000_flipped.json,296412,545147,24,Woman
4,204240,final-intermixed-textured,v2,jsons/MX_seq18_0_VE1000_flipped.json,http://54.235.29.9/FacialAge/BNav_EC2/DepthDuration/MX_fS_VE_MTurk/MX_fS_HTML.html#146,146,1536,703,1536,864,1-8-2024,18-30-34,5,VR_target_stimuli/s20_0.75x_4.99_390.png,1000,0.75x,4.99,3.0,3681,1001,meters,jsons/MX_seq18_0_VE1000_flipped.json,296412,545147,24,Woman
5,204240,final-intermixed-textured,v2,jsons/MX_seq18_0_VE1000_flipped.json,http://54.235.29.9/FacialAge/BNav_EC2/DepthDuration/MX_fS_VE_MTurk/MX_fS_HTML.html#146,146,1536,703,1536,864,1-8-2024,18-30-34,6,VR_target_stimuli/s31_1.3x_4.96_342_BC.png,1000,1.3x,4.96,3.0,3855,996,meters,jsons/MX_seq18_0_VE1000_flipped.json,296412,545147,24,Woman
6,204240,final-intermixed-textured,v2,jsons/MX_seq18_0_VE1000_flipped.json,http://54.235.29.9/FacialAge/BNav_EC2/DepthDuration/MX_fS_VE_MTurk/MX_fS_HTML.html#146,146,1536,703,1536,864,1-8-2024,18-30-34,7,catch_stimuli/c0_BC.png,1000,,,0.0,3868,994,meters,jsons/MX_seq18_0_VE1000_flipped.json,296412,545147,24,Woman
7,204240,final-intermixed-textured,v2,jsons/MX_seq18_0_VE1000_flipped.json,http://54.235.29.9/FacialAge/BNav_EC2/DepthDuration/MX_fS_VE_MTurk/MX_fS_HTML.html#146,146,1536,703,1536,864,1-8-2024,18-30-34,8,VR_target_stimuli/s33_1.3x_3.1_378_BC.png,1000,1.3x,3.1,2.0,3910,999,meters,jsons/MX_seq18_0_VE1000_flipped.json,296412,545147,24,Woman
8,204240,final-intermixed-textured,v2,jsons/MX_seq18_0_VE1000_flipped.json,http://54.235.29.9/FacialAge/BNav_EC2/DepthDuration/MX_fS_VE_MTurk/MX_fS_HTML.html#146,146,1536,703,1536,864,1-8-2024,18-30-34,9,VR_target_stimuli/s52_1x_3.2_275.png,1000,1x,3.2,3.0,3578,997,meters,jsons/MX_seq18_0_VE1000_flipped.json,296412,545147,24,Woman
9,204240,final-intermixed-textured,v2,jsons/MX_seq18_0_VE1000_flipped.json,http://54.235.29.9/FacialAge/BNav_EC2/DepthDuration/MX_fS_VE_MTurk/MX_fS_HTML.html#146,146,1536,703,1536,864,1-8-2024,18-30-34,10,VR_target_stimuli/s32_0.75x_1.5_213.png,1000,0.75x,1.5,2.0,3910,997,meters,jsons/MX_seq18_0_VE1000_flipped.json,296412,545147,24,Woman
10,204240,final-intermixed-textured,v2,jsons/MX_seq18_0_VE1000_flipped.json,http://54.235.29.9/FacialAge/BNav_EC2/DepthDuration/MX_fS_VE_MTurk/MX_fS_HTML.html#146,146,1536,703,1536,864,1-8-2024,18-30-34,11,VR_target_stimuli/s18_1x_2.25_353_BC.png,1000,1x,2.25,2.0,3692,997,meters,jsons/MX_seq18_0_VE1000_flipped.json,296412,545147,24,Woman
11,204240,final-intermixed-textured,v2,jsons/MX_seq18_0_VE1000_flipped.json,http://54.235.29.9/FacialAge/BNav_EC2/DepthDuration/MX_fS_VE_MTurk/MX_fS_HTML.html#146,146,1536,703,1536,864,1-8-2024,18-30-34,12,VR_target_stimuli/s39_1.3x_1_208.png,1000,1.3x,1.0,0.5,5174,1003,meters,jsons/MX_seq18_0_VE1000_flipped.json,296412,545147,24,Woman
12,204240,final-intermixed-textured,v2,jsons/MX_seq18_0_VE1000_flipped.json,http://54.235.29.9/FacialAge/BNav_EC2/DepthDuration/MX_fS_VE_MTurk/MX_fS_HTML.html#146,146,1536,703,1536,864,1-8-2024,18-30-34,13,VR_target_stimuli/s51_0.75x_3.64_460_BC.png,1000,0.75x,3.64,1.0,3162,997,meters,jsons/MX_seq18_0_VE1000_flipped.json,296412,545147,24,Woman
13,204240,final-intermixed-textured,v2,jsons/MX_seq18_0_VE1000_flipped.json,http://54.235.29.9/FacialAge/BNav_EC2/DepthDuration/MX_fS_VE_MTurk/MX_fS_HTML.html#146,146,1536,703,1536,864,1-8-2024,18-30-34,14,VR_target_stimuli/s43_1.3x_2.2_363_BC.png,1000,1.3x,2.2,1.0,3468,1001,meters,jsons/MX_seq18_0_VE1000_flipped.json,296412,545147,24,Woman
14,204240,final-intermixed-textured,v2,jsons/MX_seq18_0_VE1000_flipped.json,http://54.235.29.9/FacialAge/BNav_EC2/DepthDuration/MX_fS_VE_MTurk/MX_fS_HTML.html#146,146,1536,703,1536,864,1-8-2024,18-30-34,15,VR_target_stimuli/s24_1x_3.3_349.png,1000,1x,3.3,2.0,3457,996,meters,jsons/MX_seq18_0_VE1000_flipped.json,296412,545147,24,Woman
15,204240,final-intermixed-textured,v2,jsons/MX_seq18_0_VE1000_flipped.json,http://54.235.29.9/FacialAge/BNav_EC2/DepthDuration/MX_fS_VE_MTurk/MX_fS_HTML.html#146,146,1536,703,1536,864,1-8-2024,18-30-34,16,VR_target_stimuli/s10_0.75x_2.7_321_BC.png,1000,0.75x,2.7,2.0,3300,992,meters,jsons/MX_seq18_0_VE1000_flipped.json,296412,545147,24,Woman
16,204240,final-intermixed-textured,v2,jsons/MX_seq18_0_VE1000_flipped.json,http://54.235.29.9/FacialAge/BNav_EC2/DepthDuration/MX_fS_VE_MTurk/MX_fS_HTML.html#146,146,1536,703,1536,864,1-8-2024,18-30-34,17,catch_stimuli/c1_BC.png,1000,,,0.0,3106,1002,meters,jsons/MX_seq18_0_VE1000_flipped.json,296412,545147,24,Woman
17,204240,final-intermixed-textured,v2,jsons/MX_seq18_0_VE1000_flipped.json,http://54.235.29.9/FacialAge/BNav_EC2/DepthDuration/MX_fS_VE_MTurk/MX_fS_HTML.html#146,146,1536,703,1536,864,1-8-2024,18-30-34,18,VR_target_stimuli/s36_0.75x_4.1_407.png,1000,0.75x,4.1,2.0,3158,996,meters,jsons/MX_seq18_0_VE1000_flipped.json,296412,545147,24,Woman
18,204240,final-intermixed-textured,v2,jsons/MX_seq18_0_VE1000_flipped.json,http://54.235.29.9/FacialAge/BNav_EC2/DepthDuration/MX_fS_VE_MTurk/MX_fS_HTML.html#146,146,1536,703,1536,864,1-8-2024,18-30-34,19,VR_target_stimuli/s40_1.3x_1.2_332.png,1000,1.3x,1.2,0.5,4709,992,meters,jsons/MX_seq18_0_VE1000_flipped.json,296412,545147,24,Woman
19,204240,final-intermixed-textured,v2,jsons/MX_seq18_0_VE1000_flipped.json,http://54.235.29.9/FacialAge/BNav_EC2/DepthDuration/MX_fS_VE_MTurk/MX_fS_HTML.html#146,146,1536,703,1536,864,1-8-2024,18-30-34,20,VR_target_stimuli/s41_1x_2.1_286_BC.png,1000,1x,2.1,1.0,3430,992,meters,jsons/MX_seq18_0_VE1000_flipped.json,296412,545147,24,Woman
20,204240,final-intermixed-textured,v2,jsons/MX_seq18_0_VE1000_flipped.json,http://54.235.29.9/FacialAge/BNav_EC2/DepthDuration/MX_fS_VE_MTurk/MX_fS_HTML.html#146,146,1536,703,1536,864,1-8-2024,18-30-34,21,VR_target_stimuli/s45_1.3x_3.5_377_BC.png,1000,1.3x,3.5,1.5,4598,1012,meters,jsons/MX_seq18_0_VE1000_flipped.json,296412,545147,24,Woman
21,204240,final-intermixed-textured,v2,jsons/MX_seq18_0_VE1000_flipped.json,http://54.235.29.9/FacialAge/BNav_EC2/DepthDuration/MX_fS_VE_MTurk/MX_fS_HTML.html#146,146,1536,703,1536,864,1-8-2024,18-30-34,22,VR_target_stimuli/s23_0.75x_3.65_351.png,1000,0.75x,3.65,1.5,4858,1009,meters,jsons/MX_seq18_0_VE1000_flipped.json,296412,545147,24,Woman
22,204240,final-intermixed-textured,v2,jsons/MX_seq18_0_VE1000_flipped.json,http://54.235.29.9/FacialAge/BNav_EC2/DepthDuration/MX_fS_VE_MTurk/MX_fS_HTML.html#146,146,1536,703,1536,864,1-8-2024,18-30-34,23,VR_target_stimuli/s26_1x_4_433_BC.png,1000,1x,4.0,2.0,3306,997,meters,jsons/MX_seq18_0_VE1000_flipped.json,296412,545147,24,Woman
23,204240,final-intermixed-textured,v2,jsons/MX_seq18_0_VE1000_flipped.json,http://54.235.29.9/FacialAge/BNav_EC2/DepthDuration/MX_fS_VE_MTurk/MX_fS_HTML.html#146,146,1536,703,1536,864,1-8-2024,18-30-34,24,VR_target_stimuli/s12_0.75x_3.1_364_BC.png,1000,0.75x,3.1,1.0,2611,999,meters,jsons/MX_seq18_0_VE1000_flipped.json,296412,545147,24,Woman
24,204240,final-intermixed-textured,v2,jsons/MX_seq18_0_VE1000_flipped.json,http://54.235.29.9/FacialAge/BNav_EC2/DepthDuration/MX_fS_VE_MTurk/MX_fS_HTML.html#146,146,1536,703,1536,864,1-8-2024,18-30-34,25,VR_target_stimuli/s30_1.3x_2.3_337.png,1000,1.3x,2.3,1.0,2881,989,meters,jsons/MX_seq18_0_VE1000_flipped.json,296412,545147,24,Woman
25,204240,final-intermixed-textured,v2,jsons/MX_seq18_0_VE1000_flipped.json,http://54.235.29.9/FacialAge/BNav_EC2/DepthDuration/MX_fS_VE_MTurk/MX_fS_HTML.html#146,146,1536,703,1536,864,1-8-2024,18-30-34,26,catch_stimuli/c2_BC.png,1000,,,0.0,16554,993,meters,jsons/MX_seq18_0_VE1000_flipped.json,296412,545147,24,Woman
26,204240,final-intermixed-textured,v2,jsons/MX_seq18_0_VE1000_flipped.json,http://54.235.29.9/FacialAge/BNav_EC2/DepthDuration/MX_fS_VE_MTurk/MX_fS_HTML.html#146,146,1536,703,1536,864,1-8-2024,18-30-34,27,VR_target_stimuli/s16_1x_1_219.png,1000,1x,1.0,0.5,4587,999,meters,jsons/MX_seq18_0_VE1000_flipped.json,296412,545147,24,Woman
27,204240,final-intermixed-textured,v2,jsons/MX_seq18_0_VE1000_flipped.json,http://54.235.29.9/FacialAge/BNav_EC2/DepthDuration/MX_fS_VE_MTurk/MX_fS_HTML.html#146,146,1536,703,1536,864,1-8-2024,18-30-34,28,VR_target_stimuli/s17_1x_1.8_291_BC.png,1000,1x,1.8,1.0,3490,999,meters,jsons/MX_seq18_0_VE1000_flipped.json,296412,545147,24,Woman
28,204240,final-intermixed-textured,v2,jsons/MX_seq18_0_VE1000_flipped.json,http://54.235.29.9/FacialAge/BNav_EC2/DepthDuration/MX_fS_VE_MTurk/MX_fS_HTML.html#146,146,1536,703,1536,864,1-8-2024,18-30-34,29,VR_target_stimuli/s5_0.75x_4_375.png,1000,0.75x,4.0,2.0,3424,996,meters,jsons/MX_seq18_0_VE1000_flipped.json,296412,545147,24,Woman
29,204240,final-intermixed-textured,v2,jsons/MX_seq18_0_VE1000_flipped.json,http://54.235.29.9/FacialAge/BNav_EC2/DepthDuration/MX_fS_VE_MTurk/MX_fS_HTML.html#146,146,1536,703,1536,864,1-8-2024,18-30-34,30,VR_target_stimuli/s37_1.3x_3.3_555.png,1000,1.3x,3.3,1.0,3746,1006,meters,jsons/MX_seq18_0_VE1000_flipped.json,296412,545147,24,Woman
30,204240,final-intermixed-textured,v2,jsons/MX_seq18_0_VE1000_flipped.json,http://54.235.29.9/FacialAge/BNav_EC2/DepthDuration/MX_fS_VE_MTurk/MX_fS_HTML.html#146,146,1536,703,1536,864,1-8-2024,18-30-34,31,VR_target_stimuli/s46_1x_2.42_348.png,1000,1x,2.42,2.0,3434,1002,meters,jsons/MX_seq18_0_VE1000_flipped.json,296412,545147,24,Woman
31,204240,final-intermixed-textured,v2,jsons/MX_seq18_0_VE1000_flipped.json,http://54.235.29.9/FacialAge/BNav_EC2/DepthDuration/MX_fS_VE_MTurk/MX_fS_HTML.html#146,146,1536,703,1536,864,1-8-2024,18-30-34,32,VR_target_stimuli/s22_1.3x_4.29_364_BC.png,1000,1.3x,4.29,3.0,3204,1013,meters,jsons/MX_seq18_0_VE1000_flipped.json,296412,545147,24,Woman
32,204240,final-intermixed-textured,v2,jsons/MX_seq18_0_VE1000_flipped.json,http://54.235.29.9/FacialAge/BNav_EC2/DepthDuration/MX_fS_VE_MTurk/MX_fS_HTML.html#146,146,1536,703,1536,864,1-8-2024,18-30-34,33,VR_target_stimuli/s42_0.75x_3.2_301_BC.png,1000,0.75x,3.2,2.5,5222,1002,meters,jsons/MX_seq18_0_VE1000_flipped.json,296412,545147,24,Woman
33,204240,final-intermixed-textured,v2,jsons/MX_seq18_0_VE1000_flipped.json,http://54.235.29.9/FacialAge/BNav_EC2/DepthDuration/MX_fS_VE_MTurk/MX_fS_HTML.html#146,146,1536,703,1536,864,1-8-2024,18-30-34,34,catch_stimuli/c3_BC.png,1000,,,0.0,8292,989,meters,jsons/MX_seq18_0_VE1000_flipped.json,296412,545147,24,Woman
34,204240,final-intermixed-textured,v2,jsons/MX_seq18_0_VE1000_flipped.json,http://54.235.29.9/FacialAge/BNav_EC2/DepthDuration/MX_fS_VE_MTurk/MX_fS_HTML.html#146,146,1536,703,1536,864,1-8-2024,18-30-34,35,VR_target_stimuli/s25_1.3x_1.4_299.png,1000,1.3x,1.4,3.0,5369,1000,meters,jsons/MX_seq18_0_VE1000_flipped.json,296412,545147,24,Woman
35,204240,final-intermixed-textured,v2,jsons/MX_seq18_0_VE1000_flipped.json,http://54.235.29.9/FacialAge/BNav_EC2/DepthDuration/MX_fS_VE_MTurk/MX_fS_HTML.html#146,146,1536,703,1536,864,1-8-2024,18-30-34,36,VR_target_stimuli/s50_1x_4.53_518.png,1000,1x,4.53,2.0,4035,1003,meters,jsons/MX_seq18_0_VE1000_flipped.json,296412,545147,24,Woman
36,204240,final-intermixed-textured,v2,jsons/MX_seq18_0_VE1000_flipped.json,http://54.235.29.9/FacialAge/BNav_EC2/DepthDuration/MX_fS_VE_MTurk/MX_fS_HTML.html#146,146,1536,703,1536,864,1-8-2024,18-30-34,37,VR_target_stimuli/s53_0.75x_1.6_403_BC.png,1000,0.75x,1.6,0.3,6207,990,meters,jsons/MX_seq18_0_VE1000_flipped.json,296412,545147,24,Woman
37,204240,final-intermixed-textured,v2,jsons/MX_seq18_0_VE1000_flipped.json,http://54.235.29.9/FacialAge/BNav_EC2/DepthDuration/MX_fS_VE_MTurk/MX_fS_HTML.html#146,146,1536,703,1536,864,1-8-2024,18-30-34,38,VR_target_stimuli/s38_0.75x_3.55_346.png,1000,0.75x,3.55,2.0,5858,1011,meters,jsons/MX_seq18_0_VE1000_flipped.json,296412,545147,24,Woman
38,204240,final-intermixed-textured,v2,jsons/MX_seq18_0_VE1000_flipped.json,http://54.235.29.9/FacialAge/BNav_EC2/DepthDuration/MX_fS_VE_MTurk/MX_fS_HTML.html#146,146,1536,703,1536,864,1-8-2024,18-30-34,39,VR_target_stimuli/s9_1.3x_1.2_276_BC.png,1000,1.3x,1.2,0.5,5125,1005,meters,jsons/MX_seq18_0_VE1000_flipped.json,296412,545147,24,Woman
39,204240,final-intermixed-textured,v2,jsons/MX_seq18_0_VE1000_flipped.json,http://54.235.29.9/FacialAge/BNav_EC2/DepthDuration/MX_fS_VE_MTurk/MX_fS_HTML.html#146,146,1536,703,1536,864,1-8-2024,18-30-34,40,VR_target_stimuli/s44_1x_4.4_317_BC.png,1000,1x,4.4,3.0,3901,1001,meters,jsons/MX_seq18_0_VE1000_flipped.json,296412,545147,24,Woman
40,204240,final-intermixed-textured,v2,jsons/MX_seq18_0_VE1000_flipped.json,http://54.235.29.9/FacialAge/BNav_EC2/DepthDuration/MX_fS_VE_MTurk/MX_fS_HTML.html#146,146,1536,703,1536,864,1-8-2024,18-30-34,41,VR_target_stimuli/s3_1.3x_5_390.png,1000,1.3x,5.0,3.0,4371,986,meters,jsons/MX_seq18_0_VE1000_flipped.json,296412,545147,24,Woman
41,204240,final-intermixed-textured,v2,jsons/MX_seq18_0_VE1000_flipped.json,http://54.235.29.9/FacialAge/BNav_EC2/DepthDuration/MX_fS_VE_MTurk/MX_fS_HTML.html#146,146,1536,703,1536,864,1-8-2024,18-30-34,42,VR_target_stimuli/s1_0.75x_1.7_265.png,1000,0.75x,1.7,1.5,8084,1005,meters,jsons/MX_seq18_0_VE1000_flipped.json,296412,545147,24,Woman
42,204240,final-intermixed-textured,v2,jsons/MX_seq18_0_VE1000_flipped.json,http://54.235.29.9/FacialAge/BNav_EC2/DepthDuration/MX_fS_VE_MTurk/MX_fS_HTML.html#146,146,1536,703,1536,864,1-8-2024,18-30-34,43,VR_target_stimuli/s11_1x_5_361_BC.png,1000,1x,5.0,2.0,3727,999,meters,jsons/MX_seq18_0_VE1000_flipped.json,296412,545147,24,Woman
43,204240,final-intermixed-textured,v2,jsons/MX_seq18_0_VE1000_flipped.json,http://54.235.29.9/FacialAge/BNav_EC2/DepthDuration/MX_fS_VE_MTurk/MX_fS_HTML.html#146,146,1536,703,1536,864,1-8-2024,18-30-34,44,VR_target_stimuli/s2_0.75x_2.7_384_BC.png,1000,0.75x,2.7,1.0,3500,996,meters,jsons/MX_seq18_0_VE1000_flipped.json,296412,545147,24,Woman
44,204240,final-intermixed-textured,v2,jsons/MX_seq18_0_VE1000_flipped.json,http://54.235.29.9/FacialAge/BNav_EC2/DepthDuration/MX_fS_VE_MTurk/MX_fS_HTML.html#146,146,1536,703,1536,864,1-8-2024,18-30-34,45,catch_stimuli/c4_BC.png,1000,,,0.0,3716,1007,meters,jsons/MX_seq18_0_VE1000_flipped.json,296412,545147,24,Woman
45,204240,final-intermixed-textured,v2,jsons/MX_seq18_0_VE1000_flipped.json,http://54.235.29.9/FacialAge/BNav_EC2/DepthDuration/MX_fS_VE_MTurk/MX_fS_HTML.html#146,146,1536,703,1536,864,1-8-2024,18-30-34,46,VR_target_stimuli/s6_1.3x_2.1_298_BC.png,1000,1.3x,2.1,1.0,3241,1004,meters,jsons/MX_seq18_0_VE1000_flipped.json,296412,545147,24,Woman
46,204240,final-intermixed-textured,v2,jsons/MX_seq18_0_VE1000_flipped.json,http://54.235.29.9/FacialAge/BNav_EC2/DepthDuration/MX_fS_VE_MTurk/MX_fS_HTML.html#146,146,1536,703,1536,864,1-8-2024,18-30-34,47,VR_target_stimuli/s0_1x_2.6_351.png,1000,1x,2.6,1.5,5324,1008,meters,jsons/MX_seq18_0_VE1000_flipped.json,296412,545147,24,Woman
47,204240,final-intermixed-textured,v2,jsons/MX_seq18_0_VE1000_flipped.json,http://54.235.29.9/FacialAge/BNav_EC2/DepthDuration/MX_fS_VE_MTurk/MX_fS_HTML.html#146,146,1536,703,1536,864,1-8-2024,18-30-34,48,VR_target_stimuli/s34_1x_2.8_283.png,1000,1x,2.8,2.0,3654,989,meters,jsons/MX_seq18_0_VE1000_flipped.json,296412,545147,24,Woman
48,204240,final-intermixed-textured,v2,jsons/MX_seq18_0_VE1000_flipped.json,http://54.235.29.9/FacialAge/BNav_EC2/DepthDuration/MX_fS_VE_MTurk/MX_fS_HTML.html#146,146,1536,703,1536,864,1-8-2024,18-30-34,49,VR_target_stimuli/s13_0.75x_2.4_308.png,1000,0.75x,2.4,2.0,3472,989,meters,jsons/MX_seq18_0_VE1000_flipped.json,296412,545147,24,Woman
49,204240,final-intermixed-textured,v2,jsons/MX_seq18_0_VE1000_flipped.json,http://54.235.29.9/FacialAge/BNav_EC2/DepthDuration/MX_fS_VE_MTurk/MX_fS_HTML.html#146,146,1536,703,1536,864,1-8-2024,18-30-34,50,VR_target_stimuli/s14_1.3x_3.83_359_BC.png,1000,1.3x,3.83,2.0,3869,994,meters,jsons/MX_seq18_0_VE1000_flipped.json,296412,545147,24,Woman
50,204240,final-intermixed-textured,v2,jsons/MX_seq18_0_VE1000_flipped.json,http://54.235.29.9/FacialAge/BNav_EC2/DepthDuration/MX_fS_VE_MTurk/MX_fS_HTML.html#146,146,1536,703,1536,864,1-8-2024,18-30-34,51,VR_target_stimuli/s47_0.75x_3.45_366_BC.png,1000,0.75x,3.45,3.0,3968,985,meters,jsons/MX_seq18_0_VE1000_flipped.json,296412,545147,24,Woman
51,204240,final-intermixed-textured,v2,jsons/MX_seq18_0_VE1000_flipped.json,http://54.235.29.9/FacialAge/BNav_EC2/DepthDuration/MX_fS_VE_MTurk/MX_fS_HTML.html#146,146,1536,703,1536,864,1-8-2024,18-30-34,52,VR_target_stimuli/s29_1x_1.3_250_BC.png,1000,1x,1.3,1.0,3599,1001,meters,jsons/MX_seq18_0_VE1000_flipped.json,296412,545147,24,Woman
52,204240,final-intermixed-textured,v2,jsons/MX_seq18_0_VE1000_flipped.json,http://54.235.29.9/FacialAge/BNav_EC2/DepthDuration/MX_fS_VE_MTurk/MX_fS_HTML.html#146,146,1536,703,1536,864,1-8-2024,18-30-34,53,catch_stimuli/c5_BC.png,1000,,,0.0,3339,1012,meters,jsons/MX_seq18_0_VE1000_flipped.json,296412,545147,24,Woman
53,204240,final-intermixed-textured,v2,jsons/MX_seq18_0_VE1000_flipped.json,http://54.235.29.9/FacialAge/BNav_EC2/DepthDuration/MX_fS_VE_MTurk/MX_fS_HTML.html#146,146,1536,703,1536,864,1-8-2024,18-30-34,54,VR_target_stimuli/s28_1.3x_3.2_365.png,1000,1.3x,3.2,2.5,4569,1000,meters,jsons/MX_seq18_0_VE1000_flipped.json,296412,545147,24,Woman
54,204240,final-intermixed-textured,v2,jsons/MX_seq18_0_VE1000_flipped.json,http://54.235.29.9/FacialAge/BNav_EC2/DepthDuration/MX_fS_VE_MTurk/MX_fS_HTML.html#146,146,1536,703,1536,864,1-8-2024,18-30-34,55,VR_target_stimuli/s48_1x_2.55_256.png,1000,1x,2.55,2.0,4325,1014,meters,jsons/MX_seq18_0_VE1000_flipped.json,296412,545147,24,Woman
55,204240,final-intermixed-textured,v2,jsons/MX_seq18_0_VE1000_flipped.json,http://54.235.29.9/FacialAge/BNav_EC2/DepthDuration/MX_fS_VE_MTurk/MX_fS_HTML.html#146,146,1536,703,1536,864,1-8-2024,18-30-34,56,VR_target_stimuli/s19_0.75x_1.21_257.png,1000,0.75x,1.21,1.0,4020,1013,meters,jsons/MX_seq18_0_VE1000_flipped.json,296412,545147,24,Woman
56,204240,final-intermixed-textured,v2,jsons/MX_seq18_0_VE1000_flipped.json,http://54.235.29.9/FacialAge/BNav_EC2/DepthDuration/MX_fS_VE_MTurk/MX_fS_HTML.html#146,146,1536,703,1536,864,1-8-2024,18-30-34,57,VR_target_stimuli/s21_1.3x_4.22_384.png,1000,1.3x,4.22,2.0,3105,997,meters,jsons/MX_seq18_0_VE1000_flipped.json,296412,545147,24,Woman
57,204240,final-intermixed-textured,v2,jsons/MX_seq18_0_VE1000_flipped.json,http://54.235.29.9/FacialAge/BNav_EC2/DepthDuration/MX_fS_VE_MTurk/MX_fS_HTML.html#146,146,1536,703,1536,864,1-8-2024,18-30-34,58,VR_target_stimuli/s8_1.3x_3.1_345_BC.png,1000,1.3x,3.1,2.0,3509,995,meters,jsons/MX_seq18_0_VE1000_flipped.json,296412,545147,24,Woman
58,204240,final-intermixed-textured,v2,jsons/MX_seq18_0_VE1000_flipped.json,http://54.235.29.9/FacialAge/BNav_EC2/DepthDuration/MX_fS_VE_MTurk/MX_fS_HTML.html#146,146,1536,703,1536,864,1-8-2024,18-30-34,59,VR_target_stimuli/s27_1x_1.76_248_BC.png,1000,1x,1.76,2.0,3347,1007,meters,jsons/MX_seq18_0_VE1000_flipped.json,296412,545147,24,Woman
59,204240,final-intermixed-textured,v2,jsons/MX_seq18_0_VE1000_flipped.json,http://54.235.29.9/FacialAge/BNav_EC2/DepthDuration/MX_fS_VE_MTurk/MX_fS_HTML.html#146,146,1536,703,1536,864,1-8-2024,18-30-34,60,VR_target_stimuli/s15_0.75x_4.2_388_BC.png,1000,0.75x,4.2,3.0,3451,1010,meters,jsons/MX_seq18_0_VE1000_flipped.json,296412,545147,24,Woman
