,subjID,experimentName,versionName,sequenceName,url,selected_row,windowWidth,windowHeight,screenWidth,screenHeight,startDate,startTime,trial,stimulus,duration,scale,actual_depth,depth_estimate,trial_RT,log_sceneDuration,unitSelection,seq_filepath,experimentTime,totalTime,age,gender
0,208835,final-intermixed-textured,v2,jsons/MX_seq34_2_VE1000.json,http://54.235.29.9/FacialAge/BNav_EC2/DepthDuration/MX_fS_VE_MTurk/MX_fS_HTML.html#229,229,1313,602,1313,739,1-8-2024,19-31-15,1,VR_target_stimuli/s40_1x_1.2_319.png,1000,1x,1.2,1,6799,1000,meters,jsons/MX_seq34_2_VE1000.json,492760,868635,41,Woman
1,208835,final-intermixed-textured,v2,jsons/MX_seq34_2_VE1000.json,http://54.235.29.9/FacialAge/BNav_EC2/DepthDuration/MX_fS_VE_MTurk/MX_fS_HTML.html#229,229,1313,602,1313,739,1-8-2024,19-31-15,2,VR_target_stimuli/s41_1.3x_2.1_294_BC.png,1000,1.3x,2.1,4,7335,1000,meters,jsons/MX_seq34_2_VE1000.json,492760,868635,41,Woman
2,208835,final-intermixed-textured,v2,jsons/MX_seq34_2_VE1000.json,http://54.235.29.9/FacialAge/BNav_EC2/DepthDuration/MX_fS_VE_MTurk/MX_fS_HTML.html#229,229,1313,602,1313,739,1-8-2024,19-31-15,3,VR_target_stimuli/s45_0.75x_3.5_362.png,1000,0.75x,3.5,3,8448,999,meters,jsons/MX_seq34_2_VE1000.json,492760,868635,41,Woman
3,208835,final-intermixed-textured,v2,jsons/MX_seq34_2_VE1000.json,http://54.235.29.9/FacialAge/BNav_EC2/DepthDuration/MX_fS_VE_MTurk/MX_fS_HTML.html#229,229,1313,602,1313,739,1-8-2024,19-31-15,4,VR_target_stimuli/s23_1.3x_3.65_354.png,1000,1.3x,3.65,5,7385,999,meters,jsons/MX_seq34_2_VE1000.json,492760,868635,41,Woman
4,208835,final-intermixed-textured,v2,jsons/MX_seq34_2_VE1000.json,http://54.235.29.9/FacialAge/BNav_EC2/DepthDuration/MX_fS_VE_MTurk/MX_fS_HTML.html#229,229,1313,602,1313,739,1-8-2024,19-31-15,5,VR_target_stimuli/s26_1x_4_433_BC.png,1000,1x,4.0,1,8762,1000,meters,jsons/MX_seq34_2_VE1000.json,492760,868635,41,Woman
5,208835,final-intermixed-textured,v2,jsons/MX_seq34_2_VE1000.json,http://54.235.29.9/FacialAge/BNav_EC2/DepthDuration/MX_fS_VE_MTurk/MX_fS_HTML.html#229,229,1313,602,1313,739,1-8-2024,19-31-15,6,VR_target_stimuli/s12_0.75x_3.1_364_BC.png,1000,0.75x,3.1,4,7002,1001,meters,jsons/MX_seq34_2_VE1000.json,492760,868635,41,Woman
6,208835,final-intermixed-textured,v2,jsons/MX_seq34_2_VE1000.json,http://54.235.29.9/FacialAge/BNav_EC2/DepthDuration/MX_fS_VE_MTurk/MX_fS_HTML.html#229,229,1313,602,1313,739,1-8-2024,19-31-15,7,catch_stimuli/c0.png,1000,,,0,6264,1000,meters,jsons/MX_seq34_2_VE1000.json,492760,868635,41,Woman
7,208835,final-intermixed-textured,v2,jsons/MX_seq34_2_VE1000.json,http://54.235.29.9/FacialAge/BNav_EC2/DepthDuration/MX_fS_VE_MTurk/MX_fS_HTML.html#229,229,1313,602,1313,739,1-8-2024,19-31-15,8,VR_target_stimuli/s30_0.75x_2.3_332_BC.png,1000,0.75x,2.3,2,6392,999,meters,jsons/MX_seq34_2_VE1000.json,492760,868635,41,Woman
8,208835,final-intermixed-textured,v2,jsons/MX_seq34_2_VE1000.json,http://54.235.29.9/FacialAge/BNav_EC2/DepthDuration/MX_fS_VE_MTurk/MX_fS_HTML.html#229,229,1313,602,1313,739,1-8-2024,19-31-15,9,VR_target_stimuli/s16_1.3x_1_223_BC.png,1000,1.3x,1.0,3,6686,1000,meters,jsons/MX_seq34_2_VE1000.json,492760,868635,41,Woman
9,208835,final-intermixed-textured,v2,jsons/MX_seq34_2_VE1000.json,http://54.235.29.9/FacialAge/BNav_EC2/DepthDuration/MX_fS_VE_MTurk/MX_fS_HTML.html#229,229,1313,602,1313,739,1-8-2024,19-31-15,10,VR_target_stimuli/s17_1x_1.8_291.png,1000,1x,1.8,1,7225,1000,meters,jsons/MX_seq34_2_VE1000.json,492760,868635,41,Woman
10,208835,final-intermixed-textured,v2,jsons/MX_seq34_2_VE1000.json,http://54.235.29.9/FacialAge/BNav_EC2/DepthDuration/MX_fS_VE_MTurk/MX_fS_HTML.html#229,229,1313,602,1313,739,1-8-2024,19-31-15,11,VR_target_stimuli/s5_1.3x_4_393.png,1000,1.3x,4.0,2,7249,999,meters,jsons/MX_seq34_2_VE1000.json,492760,868635,41,Woman
11,208835,final-intermixed-textured,v2,jsons/MX_seq34_2_VE1000.json,http://54.235.29.9/FacialAge/BNav_EC2/DepthDuration/MX_fS_VE_MTurk/MX_fS_HTML.html#229,229,1313,602,1313,739,1-8-2024,19-31-15,12,VR_target_stimuli/s37_0.75x_3.3_567.png,1000,0.75x,3.3,5,6683,1001,meters,jsons/MX_seq34_2_VE1000.json,492760,868635,41,Woman
12,208835,final-intermixed-textured,v2,jsons/MX_seq34_2_VE1000.json,http://54.235.29.9/FacialAge/BNav_EC2/DepthDuration/MX_fS_VE_MTurk/MX_fS_HTML.html#229,229,1313,602,1313,739,1-8-2024,19-31-15,13,VR_target_stimuli/s46_1x_2.42_348_BC.png,1000,1x,2.42,2,11067,1000,meters,jsons/MX_seq34_2_VE1000.json,492760,868635,41,Woman
13,208835,final-intermixed-textured,v2,jsons/MX_seq34_2_VE1000.json,http://54.235.29.9/FacialAge/BNav_EC2/DepthDuration/MX_fS_VE_MTurk/MX_fS_HTML.html#229,229,1313,602,1313,739,1-8-2024,19-31-15,14,VR_target_stimuli/s22_0.75x_4.29_348.png,1000,0.75x,4.29,2,6909,999,meters,jsons/MX_seq34_2_VE1000.json,492760,868635,41,Woman
14,208835,final-intermixed-textured,v2,jsons/MX_seq34_2_VE1000.json,http://54.235.29.9/FacialAge/BNav_EC2/DepthDuration/MX_fS_VE_MTurk/MX_fS_HTML.html#229,229,1313,602,1313,739,1-8-2024,19-31-15,15,VR_target_stimuli/s42_1.3x_3.2_305.png,1000,1.3x,3.2,3,6121,1000,meters,jsons/MX_seq34_2_VE1000.json,492760,868635,41,Woman
15,208835,final-intermixed-textured,v2,jsons/MX_seq34_2_VE1000.json,http://54.235.29.9/FacialAge/BNav_EC2/DepthDuration/MX_fS_VE_MTurk/MX_fS_HTML.html#229,229,1313,602,1313,739,1-8-2024,19-31-15,16,VR_target_stimuli/s25_1x_1.4_290_BC.png,1000,1x,1.4,1,6308,999,meters,jsons/MX_seq34_2_VE1000.json,492760,868635,41,Woman
16,208835,final-intermixed-textured,v2,jsons/MX_seq34_2_VE1000.json,http://54.235.29.9/FacialAge/BNav_EC2/DepthDuration/MX_fS_VE_MTurk/MX_fS_HTML.html#229,229,1313,602,1313,739,1-8-2024,19-31-15,17,catch_stimuli/c1.png,1000,,,0,5500,1000,meters,jsons/MX_seq34_2_VE1000.json,492760,868635,41,Woman
17,208835,final-intermixed-textured,v2,jsons/MX_seq34_2_VE1000.json,http://54.235.29.9/FacialAge/BNav_EC2/DepthDuration/MX_fS_VE_MTurk/MX_fS_HTML.html#229,229,1313,602,1313,739,1-8-2024,19-31-15,18,VR_target_stimuli/s50_1x_4.53_518.png,1000,1x,4.53,2,9378,1001,meters,jsons/MX_seq34_2_VE1000.json,492760,868635,41,Woman
18,208835,final-intermixed-textured,v2,jsons/MX_seq34_2_VE1000.json,http://54.235.29.9/FacialAge/BNav_EC2/DepthDuration/MX_fS_VE_MTurk/MX_fS_HTML.html#229,229,1313,602,1313,739,1-8-2024,19-31-15,19,VR_target_stimuli/s53_0.75x_1.6_403_BC.png,1000,0.75x,1.6,1,5315,1000,meters,jsons/MX_seq34_2_VE1000.json,492760,868635,41,Woman
19,208835,final-intermixed-textured,v2,jsons/MX_seq34_2_VE1000.json,http://54.235.29.9/FacialAge/BNav_EC2/DepthDuration/MX_fS_VE_MTurk/MX_fS_HTML.html#229,229,1313,602,1313,739,1-8-2024,19-31-15,20,VR_target_stimuli/s38_1.3x_3.55_358_BC.png,1000,1.3x,3.55,2,11690,1000,meters,jsons/MX_seq34_2_VE1000.json,492760,868635,41,Woman
20,208835,final-intermixed-textured,v2,jsons/MX_seq34_2_VE1000.json,http://54.235.29.9/FacialAge/BNav_EC2/DepthDuration/MX_fS_VE_MTurk/MX_fS_HTML.html#229,229,1313,602,1313,739,1-8-2024,19-31-15,21,VR_target_stimuli/s9_0.75x_1.2_260_BC.png,1000,0.75x,1.2,3,5632,1000,meters,jsons/MX_seq34_2_VE1000.json,492760,868635,41,Woman
21,208835,final-intermixed-textured,v2,jsons/MX_seq34_2_VE1000.json,http://54.235.29.9/FacialAge/BNav_EC2/DepthDuration/MX_fS_VE_MTurk/MX_fS_HTML.html#229,229,1313,602,1313,739,1-8-2024,19-31-15,22,VR_target_stimuli/s44_1x_4.4_317_BC.png,1000,1x,4.4,4,6250,1000,meters,jsons/MX_seq34_2_VE1000.json,492760,868635,41,Woman
22,208835,final-intermixed-textured,v2,jsons/MX_seq34_2_VE1000.json,http://54.235.29.9/FacialAge/BNav_EC2/DepthDuration/MX_fS_VE_MTurk/MX_fS_HTML.html#229,229,1313,602,1313,739,1-8-2024,19-31-15,23,VR_target_stimuli/s3_1.3x_5_390_BC.png,1000,1.3x,5.0,5,12724,1000,meters,jsons/MX_seq34_2_VE1000.json,492760,868635,41,Woman
23,208835,final-intermixed-textured,v2,jsons/MX_seq34_2_VE1000.json,http://54.235.29.9/FacialAge/BNav_EC2/DepthDuration/MX_fS_VE_MTurk/MX_fS_HTML.html#229,229,1313,602,1313,739,1-8-2024,19-31-15,24,VR_target_stimuli/s1_1x_1.7_262.png,1000,1x,1.7,2,8613,1001,meters,jsons/MX_seq34_2_VE1000.json,492760,868635,41,Woman
24,208835,final-intermixed-textured,v2,jsons/MX_seq34_2_VE1000.json,http://54.235.29.9/FacialAge/BNav_EC2/DepthDuration/MX_fS_VE_MTurk/MX_fS_HTML.html#229,229,1313,602,1313,739,1-8-2024,19-31-15,25,VR_target_stimuli/s11_0.75x_5_359.png,1000,0.75x,5.0,2,5740,1000,meters,jsons/MX_seq34_2_VE1000.json,492760,868635,41,Woman
25,208835,final-intermixed-textured,v2,jsons/MX_seq34_2_VE1000.json,http://54.235.29.9/FacialAge/BNav_EC2/DepthDuration/MX_fS_VE_MTurk/MX_fS_HTML.html#229,229,1313,602,1313,739,1-8-2024,19-31-15,26,catch_stimuli/c2.png,1000,,,0,6406,998,meters,jsons/MX_seq34_2_VE1000.json,492760,868635,41,Woman
26,208835,final-intermixed-textured,v2,jsons/MX_seq34_2_VE1000.json,http://54.235.29.9/FacialAge/BNav_EC2/DepthDuration/MX_fS_VE_MTurk/MX_fS_HTML.html#229,229,1313,602,1313,739,1-8-2024,19-31-15,27,VR_target_stimuli/s2_1.3x_2.7_397.png,1000,1.3x,2.7,2,10374,999,meters,jsons/MX_seq34_2_VE1000.json,492760,868635,41,Woman
27,208835,final-intermixed-textured,v2,jsons/MX_seq34_2_VE1000.json,http://54.235.29.9/FacialAge/BNav_EC2/DepthDuration/MX_fS_VE_MTurk/MX_fS_HTML.html#229,229,1313,602,1313,739,1-8-2024,19-31-15,28,VR_target_stimuli/s6_1.3x_2.1_298_BC.png,1000,1.3x,2.1,3,4953,999,meters,jsons/MX_seq34_2_VE1000.json,492760,868635,41,Woman
28,208835,final-intermixed-textured,v2,jsons/MX_seq34_2_VE1000.json,http://54.235.29.9/FacialAge/BNav_EC2/DepthDuration/MX_fS_VE_MTurk/MX_fS_HTML.html#229,229,1313,602,1313,739,1-8-2024,19-31-15,29,VR_target_stimuli/s0_1x_2.6_351_BC.png,1000,1x,2.6,3,5341,999,meters,jsons/MX_seq34_2_VE1000.json,492760,868635,41,Woman
29,208835,final-intermixed-textured,v2,jsons/MX_seq34_2_VE1000.json,http://54.235.29.9/FacialAge/BNav_EC2/DepthDuration/MX_fS_VE_MTurk/MX_fS_HTML.html#229,229,1313,602,1313,739,1-8-2024,19-31-15,30,VR_target_stimuli/s34_0.75x_2.8_269_BC.png,1000,0.75x,2.8,4,8913,998,meters,jsons/MX_seq34_2_VE1000.json,492760,868635,41,Woman
30,208835,final-intermixed-textured,v2,jsons/MX_seq34_2_VE1000.json,http://54.235.29.9/FacialAge/BNav_EC2/DepthDuration/MX_fS_VE_MTurk/MX_fS_HTML.html#229,229,1313,602,1313,739,1-8-2024,19-31-15,31,VR_target_stimuli/s13_1.3x_2.4_313.png,1000,1.3x,2.4,3,8245,999,meters,jsons/MX_seq34_2_VE1000.json,492760,868635,41,Woman
31,208835,final-intermixed-textured,v2,jsons/MX_seq34_2_VE1000.json,http://54.235.29.9/FacialAge/BNav_EC2/DepthDuration/MX_fS_VE_MTurk/MX_fS_HTML.html#229,229,1313,602,1313,739,1-8-2024,19-31-15,32,VR_target_stimuli/s14_0.75x_3.83_355.png,1000,0.75x,3.83,2,5694,1000,meters,jsons/MX_seq34_2_VE1000.json,492760,868635,41,Woman
32,208835,final-intermixed-textured,v2,jsons/MX_seq34_2_VE1000.json,http://54.235.29.9/FacialAge/BNav_EC2/DepthDuration/MX_fS_VE_MTurk/MX_fS_HTML.html#229,229,1313,602,1313,739,1-8-2024,19-31-15,33,VR_target_stimuli/s47_1x_3.45_370.png,1000,1x,3.45,3,9869,999,meters,jsons/MX_seq34_2_VE1000.json,492760,868635,41,Woman
33,208835,final-intermixed-textured,v2,jsons/MX_seq34_2_VE1000.json,http://54.235.29.9/FacialAge/BNav_EC2/DepthDuration/MX_fS_VE_MTurk/MX_fS_HTML.html#229,229,1313,602,1313,739,1-8-2024,19-31-15,34,catch_stimuli/c3.png,1000,,,0,9685,999,meters,jsons/MX_seq34_2_VE1000.json,492760,868635,41,Woman
34,208835,final-intermixed-textured,v2,jsons/MX_seq34_2_VE1000.json,http://54.235.29.9/FacialAge/BNav_EC2/DepthDuration/MX_fS_VE_MTurk/MX_fS_HTML.html#229,229,1313,602,1313,739,1-8-2024,19-31-15,35,VR_target_stimuli/s29_0.75x_1.3_246_BC.png,1000,0.75x,1.3,2,9654,1000,meters,jsons/MX_seq34_2_VE1000.json,492760,868635,41,Woman
35,208835,final-intermixed-textured,v2,jsons/MX_seq34_2_VE1000.json,http://54.235.29.9/FacialAge/BNav_EC2/DepthDuration/MX_fS_VE_MTurk/MX_fS_HTML.html#229,229,1313,602,1313,739,1-8-2024,19-31-15,36,VR_target_stimuli/s28_1.3x_3.2_365.png,1000,1.3x,3.2,2,5381,1000,meters,jsons/MX_seq34_2_VE1000.json,492760,868635,41,Woman
36,208835,final-intermixed-textured,v2,jsons/MX_seq34_2_VE1000.json,http://54.235.29.9/FacialAge/BNav_EC2/DepthDuration/MX_fS_VE_MTurk/MX_fS_HTML.html#229,229,1313,602,1313,739,1-8-2024,19-31-15,37,VR_target_stimuli/s48_1x_2.55_256.png,1000,1x,2.55,4,8134,998,meters,jsons/MX_seq34_2_VE1000.json,492760,868635,41,Woman
37,208835,final-intermixed-textured,v2,jsons/MX_seq34_2_VE1000.json,http://54.235.29.9/FacialAge/BNav_EC2/DepthDuration/MX_fS_VE_MTurk/MX_fS_HTML.html#229,229,1313,602,1313,739,1-8-2024,19-31-15,38,VR_target_stimuli/s19_1x_1.21_263_BC.png,1000,1x,1.21,3,6306,1000,meters,jsons/MX_seq34_2_VE1000.json,492760,868635,41,Woman
38,208835,final-intermixed-textured,v2,jsons/MX_seq34_2_VE1000.json,http://54.235.29.9/FacialAge/BNav_EC2/DepthDuration/MX_fS_VE_MTurk/MX_fS_HTML.html#229,229,1313,602,1313,739,1-8-2024,19-31-15,39,VR_target_stimuli/s21_0.75x_4.22_374.png,1000,0.75x,4.22,1,11237,999,meters,jsons/MX_seq34_2_VE1000.json,492760,868635,41,Woman
39,208835,final-intermixed-textured,v2,jsons/MX_seq34_2_VE1000.json,http://54.235.29.9/FacialAge/BNav_EC2/DepthDuration/MX_fS_VE_MTurk/MX_fS_HTML.html#229,229,1313,602,1313,739,1-8-2024,19-31-15,40,VR_target_stimuli/s8_1.3x_3.1_345_BC.png,1000,1.3x,3.1,1,5442,1000,meters,jsons/MX_seq34_2_VE1000.json,492760,868635,41,Woman
40,208835,final-intermixed-textured,v2,jsons/MX_seq34_2_VE1000.json,http://54.235.29.9/FacialAge/BNav_EC2/DepthDuration/MX_fS_VE_MTurk/MX_fS_HTML.html#229,229,1313,602,1313,739,1-8-2024,19-31-15,41,VR_target_stimuli/s27_0.75x_1.76_243.png,1000,0.75x,1.76,3,10299,999,meters,jsons/MX_seq34_2_VE1000.json,492760,868635,41,Woman
41,208835,final-intermixed-textured,v2,jsons/MX_seq34_2_VE1000.json,http://54.235.29.9/FacialAge/BNav_EC2/DepthDuration/MX_fS_VE_MTurk/MX_fS_HTML.html#229,229,1313,602,1313,739,1-8-2024,19-31-15,42,VR_target_stimuli/s15_1x_4.2_390.png,1000,1x,4.2,3,6506,999,meters,jsons/MX_seq34_2_VE1000.json,492760,868635,41,Woman
42,208835,final-intermixed-textured,v2,jsons/MX_seq34_2_VE1000.json,http://54.235.29.9/FacialAge/BNav_EC2/DepthDuration/MX_fS_VE_MTurk/MX_fS_HTML.html#229,229,1313,602,1313,739,1-8-2024,19-31-15,43,VR_target_stimuli/s4_1.3x_1.4_328_BC.png,1000,1.3x,1.4,1,8867,999,meters,jsons/MX_seq34_2_VE1000.json,492760,868635,41,Woman
43,208835,final-intermixed-textured,v2,jsons/MX_seq34_2_VE1000.json,http://54.235.29.9/FacialAge/BNav_EC2/DepthDuration/MX_fS_VE_MTurk/MX_fS_HTML.html#229,229,1313,602,1313,739,1-8-2024,19-31-15,44,VR_target_stimuli/s35_1x_2_331_BC.png,1000,1x,2.0,1,6207,1000,meters,jsons/MX_seq34_2_VE1000.json,492760,868635,41,Woman
44,208835,final-intermixed-textured,v2,jsons/MX_seq34_2_VE1000.json,http://54.235.29.9/FacialAge/BNav_EC2/DepthDuration/MX_fS_VE_MTurk/MX_fS_HTML.html#229,229,1313,602,1313,739,1-8-2024,19-31-15,45,catch_stimuli/c4.png,1000,,,0,5450,999,meters,jsons/MX_seq34_2_VE1000.json,492760,868635,41,Woman
45,208835,final-intermixed-textured,v2,jsons/MX_seq34_2_VE1000.json,http://54.235.29.9/FacialAge/BNav_EC2/DepthDuration/MX_fS_VE_MTurk/MX_fS_HTML.html#229,229,1313,602,1313,739,1-8-2024,19-31-15,46,VR_target_stimuli/s49_0.75x_4.67_328_BC.png,1000,0.75x,4.67,5,8631,1000,meters,jsons/MX_seq34_2_VE1000.json,492760,868635,41,Woman
46,208835,final-intermixed-textured,v2,jsons/MX_seq34_2_VE1000.json,http://54.235.29.9/FacialAge/BNav_EC2/DepthDuration/MX_fS_VE_MTurk/MX_fS_HTML.html#229,229,1313,602,1313,739,1-8-2024,19-31-15,47,VR_target_stimuli/s7_1.3x_1.5_256.png,1000,1.3x,1.5,2,9450,999,meters,jsons/MX_seq34_2_VE1000.json,492760,868635,41,Woman
47,208835,final-intermixed-textured,v2,jsons/MX_seq34_2_VE1000.json,http://54.235.29.9/FacialAge/BNav_EC2/DepthDuration/MX_fS_VE_MTurk/MX_fS_HTML.html#229,229,1313,602,1313,739,1-8-2024,19-31-15,48,VR_target_stimuli/s20_1.3x_4.99_412.png,1000,1.3x,4.99,6,6908,1001,meters,jsons/MX_seq34_2_VE1000.json,492760,868635,41,Woman
48,208835,final-intermixed-textured,v2,jsons/MX_seq34_2_VE1000.json,http://54.235.29.9/FacialAge/BNav_EC2/DepthDuration/MX_fS_VE_MTurk/MX_fS_HTML.html#229,229,1313,602,1313,739,1-8-2024,19-31-15,49,VR_target_stimuli/s31_1x_4.96_333_BC.png,1000,1x,4.96,5,9350,999,meters,jsons/MX_seq34_2_VE1000.json,492760,868635,41,Woman
49,208835,final-intermixed-textured,v2,jsons/MX_seq34_2_VE1000.json,http://54.235.29.9/FacialAge/BNav_EC2/DepthDuration/MX_fS_VE_MTurk/MX_fS_HTML.html#229,229,1313,602,1313,739,1-8-2024,19-31-15,50,VR_target_stimuli/s33_0.75x_3.1_361.png,1000,0.75x,3.1,5,12661,999,meters,jsons/MX_seq34_2_VE1000.json,492760,868635,41,Woman
50,208835,final-intermixed-textured,v2,jsons/MX_seq34_2_VE1000.json,http://54.235.29.9/FacialAge/BNav_EC2/DepthDuration/MX_fS_VE_MTurk/MX_fS_HTML.html#229,229,1313,602,1313,739,1-8-2024,19-31-15,51,VR_target_stimuli/s52_1x_3.2_275.png,1000,1x,3.2,6,6357,1000,meters,jsons/MX_seq34_2_VE1000.json,492760,868635,41,Woman
51,208835,final-intermixed-textured,v2,jsons/MX_seq34_2_VE1000.json,http://54.235.29.9/FacialAge/BNav_EC2/DepthDuration/MX_fS_VE_MTurk/MX_fS_HTML.html#229,229,1313,602,1313,739,1-8-2024,19-31-15,52,VR_target_stimuli/s32_1.3x_1.5_224_BC.png,1000,1.3x,1.5,3,5279,999,meters,jsons/MX_seq34_2_VE1000.json,492760,868635,41,Woman
52,208835,final-intermixed-textured,v2,jsons/MX_seq34_2_VE1000.json,http://54.235.29.9/FacialAge/BNav_EC2/DepthDuration/MX_fS_VE_MTurk/MX_fS_HTML.html#229,229,1313,602,1313,739,1-8-2024,19-31-15,53,catch_stimuli/c5.png,1000,,,0,7171,999,meters,jsons/MX_seq34_2_VE1000.json,492760,868635,41,Woman
53,208835,final-intermixed-textured,v2,jsons/MX_seq34_2_VE1000.json,http://54.235.29.9/FacialAge/BNav_EC2/DepthDuration/MX_fS_VE_MTurk/MX_fS_HTML.html#229,229,1313,602,1313,739,1-8-2024,19-31-15,54,VR_target_stimuli/s18_0.75x_2.25_341_BC.png,1000,0.75x,2.25,1,9028,1000,meters,jsons/MX_seq34_2_VE1000.json,492760,868635,41,Woman
54,208835,final-intermixed-textured,v2,jsons/MX_seq34_2_VE1000.json,http://54.235.29.9/FacialAge/BNav_EC2/DepthDuration/MX_fS_VE_MTurk/MX_fS_HTML.html#229,229,1313,602,1313,739,1-8-2024,19-31-15,55,VR_target_stimuli/s39_1.3x_1_208_BC.png,1000,1.3x,1.0,1,12280,999,meters,jsons/MX_seq34_2_VE1000.json,492760,868635,41,Woman
55,208835,final-intermixed-textured,v2,jsons/MX_seq34_2_VE1000.json,http://54.235.29.9/FacialAge/BNav_EC2/DepthDuration/MX_fS_VE_MTurk/MX_fS_HTML.html#229,229,1313,602,1313,739,1-8-2024,19-31-15,56,VR_target_stimuli/s51_1x_3.64_461_BC.png,1000,1x,3.64,1,5287,1000,meters,jsons/MX_seq34_2_VE1000.json,492760,868635,41,Woman
56,208835,final-intermixed-textured,v2,jsons/MX_seq34_2_VE1000.json,http://54.235.29.9/FacialAge/BNav_EC2/DepthDuration/MX_fS_VE_MTurk/MX_fS_HTML.html#229,229,1313,602,1313,739,1-8-2024,19-31-15,57,VR_target_stimuli/s43_0.75x_2.2_348_BC.png,1000,0.75x,2.2,1,5547,999,meters,jsons/MX_seq34_2_VE1000.json,492760,868635,41,Woman
57,208835,final-intermixed-textured,v2,jsons/MX_seq34_2_VE1000.json,http://54.235.29.9/FacialAge/BNav_EC2/DepthDuration/MX_fS_VE_MTurk/MX_fS_HTML.html#229,229,1313,602,1313,739,1-8-2024,19-31-15,58,VR_target_stimuli/s24_0.75x_3.3_344.png,1000,0.75x,3.3,2,10310,999,meters,jsons/MX_seq34_2_VE1000.json,492760,868635,41,Woman
58,208835,final-intermixed-textured,v2,jsons/MX_seq34_2_VE1000.json,http://54.235.29.9/FacialAge/BNav_EC2/DepthDuration/MX_fS_VE_MTurk/MX_fS_HTML.html#229,229,1313,602,1313,739,1-8-2024,19-31-15,59,VR_target_stimuli/s10_1.3x_2.7_325.png,1000,1.3x,2.7,4,5323,1000,meters,jsons/MX_seq34_2_VE1000.json,492760,868635,41,Woman
59,208835,final-intermixed-textured,v2,jsons/MX_seq34_2_VE1000.json,http://54.235.29.9/FacialAge/BNav_EC2/DepthDuration/MX_fS_VE_MTurk/MX_fS_HTML.html#229,229,1313,602,1313,739,1-8-2024,19-31-15,60,VR_target_stimuli/s36_1x_4.1_423.png,1000,1x,4.1,5,8651,1000,meters,jsons/MX_seq34_2_VE1000.json,492760,868635,41,Woman
