,subjID,experimentName,versionName,sequenceName,url,selected_row,windowWidth,windowHeight,screenWidth,screenHeight,startDate,startTime,trial,stimulus,duration,scale,actual_depth,depth_estimate,trial_RT,log_sceneDuration,unitSelection,seq_filepath,experimentTime,totalTime,age,gender
0,232507,final-intermixed-textured,v2,jsons/MX_seq53_0_VE1000.json,http://54.235.29.9/FacialAge/BNav_EC2/DepthDuration/MX_fS_VE_MTurk/MX_fS_HTML.html#125,125,1366,607,1366,768,1-8-2024,12-55-40,1,VR_target_stimuli/s44_0.75x_4.4_314_BC.png,1000,0.75x,4.4,5,5141,1004,meters,jsons/MX_seq53_0_VE1000.json,276500,405857,29,Woman
1,232507,final-intermixed-textured,v2,jsons/MX_seq53_0_VE1000.json,http://54.235.29.9/FacialAge/BNav_EC2/DepthDuration/MX_fS_VE_MTurk/MX_fS_HTML.html#125,125,1366,607,1366,768,1-8-2024,12-55-40,2,VR_target_stimuli/s3_1x_5_385_BC.png,1000,1x,5.0,5,4594,999,meters,jsons/MX_seq53_0_VE1000.json,276500,405857,29,Woman
2,232507,final-intermixed-textured,v2,jsons/MX_seq53_0_VE1000.json,http://54.235.29.9/FacialAge/BNav_EC2/DepthDuration/MX_fS_VE_MTurk/MX_fS_HTML.html#125,125,1366,607,1366,768,1-8-2024,12-55-40,3,VR_target_stimuli/s1_1.3x_1.7_261_BC.png,1000,1.3x,1.7,3,4073,995,meters,jsons/MX_seq53_0_VE1000.json,276500,405857,29,Woman
3,232507,final-intermixed-textured,v2,jsons/MX_seq53_0_VE1000.json,http://54.235.29.9/FacialAge/BNav_EC2/DepthDuration/MX_fS_VE_MTurk/MX_fS_HTML.html#125,125,1366,607,1366,768,1-8-2024,12-55-40,4,VR_target_stimuli/s11_1x_5_361.png,1000,1x,5.0,5,3974,997,meters,jsons/MX_seq53_0_VE1000.json,276500,405857,29,Woman
4,232507,final-intermixed-textured,v2,jsons/MX_seq53_0_VE1000.json,http://54.235.29.9/FacialAge/BNav_EC2/DepthDuration/MX_fS_VE_MTurk/MX_fS_HTML.html#125,125,1366,607,1366,768,1-8-2024,12-55-40,5,VR_target_stimuli/s2_0.75x_2.7_384.png,1000,0.75x,2.7,3,3554,1003,meters,jsons/MX_seq53_0_VE1000.json,276500,405857,29,Woman
5,232507,final-intermixed-textured,v2,jsons/MX_seq53_0_VE1000.json,http://54.235.29.9/FacialAge/BNav_EC2/DepthDuration/MX_fS_VE_MTurk/MX_fS_HTML.html#125,125,1366,607,1366,768,1-8-2024,12-55-40,6,VR_target_stimuli/s6_1.3x_2.1_298.png,1000,1.3x,2.1,3,3996,998,meters,jsons/MX_seq53_0_VE1000.json,276500,405857,29,Woman
6,232507,final-intermixed-textured,v2,jsons/MX_seq53_0_VE1000.json,http://54.235.29.9/FacialAge/BNav_EC2/DepthDuration/MX_fS_VE_MTurk/MX_fS_HTML.html#125,125,1366,607,1366,768,1-8-2024,12-55-40,7,catch_stimuli/c0.png,1000,,,0,4161,1006,meters,jsons/MX_seq53_0_VE1000.json,276500,405857,29,Woman
7,232507,final-intermixed-textured,v2,jsons/MX_seq53_0_VE1000.json,http://54.235.29.9/FacialAge/BNav_EC2/DepthDuration/MX_fS_VE_MTurk/MX_fS_HTML.html#125,125,1366,607,1366,768,1-8-2024,12-55-40,8,VR_target_stimuli/s0_1.3x_2.6_356_BC.png,1000,1.3x,2.6,3,3758,1002,meters,jsons/MX_seq53_0_VE1000.json,276500,405857,29,Woman
8,232507,final-intermixed-textured,v2,jsons/MX_seq53_0_VE1000.json,http://54.235.29.9/FacialAge/BNav_EC2/DepthDuration/MX_fS_VE_MTurk/MX_fS_HTML.html#125,125,1366,607,1366,768,1-8-2024,12-55-40,9,VR_target_stimuli/s34_1x_2.8_283.png,1000,1x,2.8,5,3845,996,meters,jsons/MX_seq53_0_VE1000.json,276500,405857,29,Woman
9,232507,final-intermixed-textured,v2,jsons/MX_seq53_0_VE1000.json,http://54.235.29.9/FacialAge/BNav_EC2/DepthDuration/MX_fS_VE_MTurk/MX_fS_HTML.html#125,125,1366,607,1366,768,1-8-2024,12-55-40,10,VR_target_stimuli/s13_0.75x_2.4_308_BC.png,1000,0.75x,2.4,4,3854,996,meters,jsons/MX_seq53_0_VE1000.json,276500,405857,29,Woman
10,232507,final-intermixed-textured,v2,jsons/MX_seq53_0_VE1000.json,http://54.235.29.9/FacialAge/BNav_EC2/DepthDuration/MX_fS_VE_MTurk/MX_fS_HTML.html#125,125,1366,607,1366,768,1-8-2024,12-55-40,11,VR_target_stimuli/s14_1x_ 3.83_357_BC.png,1000,1x,3.83,4,3682,1001,meters,jsons/MX_seq53_0_VE1000.json,276500,405857,29,Woman
11,232507,final-intermixed-textured,v2,jsons/MX_seq53_0_VE1000.json,http://54.235.29.9/FacialAge/BNav_EC2/DepthDuration/MX_fS_VE_MTurk/MX_fS_HTML.html#125,125,1366,607,1366,768,1-8-2024,12-55-40,12,VR_target_stimuli/s47_1.3x_3.45_373.png,1000,1.3x,3.45,6,4009,1000,meters,jsons/MX_seq53_0_VE1000.json,276500,405857,29,Woman
12,232507,final-intermixed-textured,v2,jsons/MX_seq53_0_VE1000.json,http://54.235.29.9/FacialAge/BNav_EC2/DepthDuration/MX_fS_VE_MTurk/MX_fS_HTML.html#125,125,1366,607,1366,768,1-8-2024,12-55-40,13,VR_target_stimuli/s29_0.75x_1.3_246.png,1000,0.75x,1.3,3,4251,997,meters,jsons/MX_seq53_0_VE1000.json,276500,405857,29,Woman
13,232507,final-intermixed-textured,v2,jsons/MX_seq53_0_VE1000.json,http://54.235.29.9/FacialAge/BNav_EC2/DepthDuration/MX_fS_VE_MTurk/MX_fS_HTML.html#125,125,1366,607,1366,768,1-8-2024,12-55-40,14,VR_target_stimuli/s28_1.3x_3.2_365_BC.png,1000,1.3x,3.2,4,4187,1007,meters,jsons/MX_seq53_0_VE1000.json,276500,405857,29,Woman
14,232507,final-intermixed-textured,v2,jsons/MX_seq53_0_VE1000.json,http://54.235.29.9/FacialAge/BNav_EC2/DepthDuration/MX_fS_VE_MTurk/MX_fS_HTML.html#125,125,1366,607,1366,768,1-8-2024,12-55-40,15,VR_target_stimuli/s48_1x_2.55_256_BC.png,1000,1x,2.55,4,3600,988,meters,jsons/MX_seq53_0_VE1000.json,276500,405857,29,Woman
15,232507,final-intermixed-textured,v2,jsons/MX_seq53_0_VE1000.json,http://54.235.29.9/FacialAge/BNav_EC2/DepthDuration/MX_fS_VE_MTurk/MX_fS_HTML.html#125,125,1366,607,1366,768,1-8-2024,12-55-40,16,VR_target_stimuli/s19_0.75x_1.21_257_BC.png,1000,0.75x,1.21,3,3270,1006,meters,jsons/MX_seq53_0_VE1000.json,276500,405857,29,Woman
16,232507,final-intermixed-textured,v2,jsons/MX_seq53_0_VE1000.json,http://54.235.29.9/FacialAge/BNav_EC2/DepthDuration/MX_fS_VE_MTurk/MX_fS_HTML.html#125,125,1366,607,1366,768,1-8-2024,12-55-40,17,catch_stimuli/c1.png,1000,,,0,4369,997,meters,jsons/MX_seq53_0_VE1000.json,276500,405857,29,Woman
17,232507,final-intermixed-textured,v2,jsons/MX_seq53_0_VE1000.json,http://54.235.29.9/FacialAge/BNav_EC2/DepthDuration/MX_fS_VE_MTurk/MX_fS_HTML.html#125,125,1366,607,1366,768,1-8-2024,12-55-40,18,VR_target_stimuli/s21_0.75x_4.22_374.png,1000,0.75x,4.22,7,3987,1011,meters,jsons/MX_seq53_0_VE1000.json,276500,405857,29,Woman
18,232507,final-intermixed-textured,v2,jsons/MX_seq53_0_VE1000.json,http://54.235.29.9/FacialAge/BNav_EC2/DepthDuration/MX_fS_VE_MTurk/MX_fS_HTML.html#125,125,1366,607,1366,768,1-8-2024,12-55-40,19,VR_target_stimuli/s8_1.3x_3.1_345.png,1000,1.3x,3.1,4,4108,1000,meters,jsons/MX_seq53_0_VE1000.json,276500,405857,29,Woman
19,232507,final-intermixed-textured,v2,jsons/MX_seq53_0_VE1000.json,http://54.235.29.9/FacialAge/BNav_EC2/DepthDuration/MX_fS_VE_MTurk/MX_fS_HTML.html#125,125,1366,607,1366,768,1-8-2024,12-55-40,20,VR_target_stimuli/s27_1x_1.76_248.png,1000,1x,1.76,4,3497,996,meters,jsons/MX_seq53_0_VE1000.json,276500,405857,29,Woman
20,232507,final-intermixed-textured,v2,jsons/MX_seq53_0_VE1000.json,http://54.235.29.9/FacialAge/BNav_EC2/DepthDuration/MX_fS_VE_MTurk/MX_fS_HTML.html#125,125,1366,607,1366,768,1-8-2024,12-55-40,21,VR_target_stimuli/s15_1.3x_4.2_389_BC.png,1000,1.3x,4.2,4,4574,995,meters,jsons/MX_seq53_0_VE1000.json,276500,405857,29,Woman
21,232507,final-intermixed-textured,v2,jsons/MX_seq53_0_VE1000.json,http://54.235.29.9/FacialAge/BNav_EC2/DepthDuration/MX_fS_VE_MTurk/MX_fS_HTML.html#125,125,1366,607,1366,768,1-8-2024,12-55-40,22,VR_target_stimuli/s4_0.75x_1.4_301.png,1000,0.75x,1.4,2,5302,1010,meters,jsons/MX_seq53_0_VE1000.json,276500,405857,29,Woman
22,232507,final-intermixed-textured,v2,jsons/MX_seq53_0_VE1000.json,http://54.235.29.9/FacialAge/BNav_EC2/DepthDuration/MX_fS_VE_MTurk/MX_fS_HTML.html#125,125,1366,607,1366,768,1-8-2024,12-55-40,23,VR_target_stimuli/s35_1x_2_331.png,1000,1x,2.0,3,3684,1002,meters,jsons/MX_seq53_0_VE1000.json,276500,405857,29,Woman
23,232507,final-intermixed-textured,v2,jsons/MX_seq53_0_VE1000.json,http://54.235.29.9/FacialAge/BNav_EC2/DepthDuration/MX_fS_VE_MTurk/MX_fS_HTML.html#125,125,1366,607,1366,768,1-8-2024,12-55-40,24,VR_target_stimuli/s49_0.75x_4.67_328_BC.png,1000,0.75x,4.67,5,3596,991,meters,jsons/MX_seq53_0_VE1000.json,276500,405857,29,Woman
24,232507,final-intermixed-textured,v2,jsons/MX_seq53_0_VE1000.json,http://54.235.29.9/FacialAge/BNav_EC2/DepthDuration/MX_fS_VE_MTurk/MX_fS_HTML.html#125,125,1366,607,1366,768,1-8-2024,12-55-40,25,VR_target_stimuli/s7_1.3x_1.5_256.png,1000,1.3x,1.5,2,4082,1008,meters,jsons/MX_seq53_0_VE1000.json,276500,405857,29,Woman
25,232507,final-intermixed-textured,v2,jsons/MX_seq53_0_VE1000.json,http://54.235.29.9/FacialAge/BNav_EC2/DepthDuration/MX_fS_VE_MTurk/MX_fS_HTML.html#125,125,1366,607,1366,768,1-8-2024,12-55-40,26,catch_stimuli/c2.png,1000,,,0,4377,989,meters,jsons/MX_seq53_0_VE1000.json,276500,405857,29,Woman
26,232507,final-intermixed-textured,v2,jsons/MX_seq53_0_VE1000.json,http://54.235.29.9/FacialAge/BNav_EC2/DepthDuration/MX_fS_VE_MTurk/MX_fS_HTML.html#125,125,1366,607,1366,768,1-8-2024,12-55-40,27,VR_target_stimuli/s20_1x_4.99_398_BC.png,1000,1x,4.99,5,3941,996,meters,jsons/MX_seq53_0_VE1000.json,276500,405857,29,Woman
27,232507,final-intermixed-textured,v2,jsons/MX_seq53_0_VE1000.json,http://54.235.29.9/FacialAge/BNav_EC2/DepthDuration/MX_fS_VE_MTurk/MX_fS_HTML.html#125,125,1366,607,1366,768,1-8-2024,12-55-40,28,VR_target_stimuli/s31_1x_4.96_333.png,1000,1x,4.96,4,3464,1000,meters,jsons/MX_seq53_0_VE1000.json,276500,405857,29,Woman
28,232507,final-intermixed-textured,v2,jsons/MX_seq53_0_VE1000.json,http://54.235.29.9/FacialAge/BNav_EC2/DepthDuration/MX_fS_VE_MTurk/MX_fS_HTML.html#125,125,1366,607,1366,768,1-8-2024,12-55-40,29,VR_target_stimuli/s33_0.75x_3.1_361_BC.png,1000,0.75x,3.1,6,3968,995,meters,jsons/MX_seq53_0_VE1000.json,276500,405857,29,Woman
29,232507,final-intermixed-textured,v2,jsons/MX_seq53_0_VE1000.json,http://54.235.29.9/FacialAge/BNav_EC2/DepthDuration/MX_fS_VE_MTurk/MX_fS_HTML.html#125,125,1366,607,1366,768,1-8-2024,12-55-40,30,VR_target_stimuli/s52_1.3x_3.2_280_BC.png,1000,1.3x,3.2,6,5817,992,meters,jsons/MX_seq53_0_VE1000.json,276500,405857,29,Woman
30,232507,final-intermixed-textured,v2,jsons/MX_seq53_0_VE1000.json,http://54.235.29.9/FacialAge/BNav_EC2/DepthDuration/MX_fS_VE_MTurk/MX_fS_HTML.html#125,125,1366,607,1366,768,1-8-2024,12-55-40,31,VR_target_stimuli/s32_1x_1.5_218_BC.png,1000,1x,1.5,5,4791,988,meters,jsons/MX_seq53_0_VE1000.json,276500,405857,29,Woman
31,232507,final-intermixed-textured,v2,jsons/MX_seq53_0_VE1000.json,http://54.235.29.9/FacialAge/BNav_EC2/DepthDuration/MX_fS_VE_MTurk/MX_fS_HTML.html#125,125,1366,607,1366,768,1-8-2024,12-55-40,32,VR_target_stimuli/s18_1.3x_2.25_368.png,1000,1.3x,2.25,5,3942,996,meters,jsons/MX_seq53_0_VE1000.json,276500,405857,29,Woman
32,232507,final-intermixed-textured,v2,jsons/MX_seq53_0_VE1000.json,http://54.235.29.9/FacialAge/BNav_EC2/DepthDuration/MX_fS_VE_MTurk/MX_fS_HTML.html#125,125,1366,607,1366,768,1-8-2024,12-55-40,33,VR_target_stimuli/s39_0.75x_1_205.png,1000,0.75x,1.0,4,3905,997,meters,jsons/MX_seq53_0_VE1000.json,276500,405857,29,Woman
33,232507,final-intermixed-textured,v2,jsons/MX_seq53_0_VE1000.json,http://54.235.29.9/FacialAge/BNav_EC2/DepthDuration/MX_fS_VE_MTurk/MX_fS_HTML.html#125,125,1366,607,1366,768,1-8-2024,12-55-40,34,catch_stimuli/c3.png,1000,,,0,3681,997,meters,jsons/MX_seq53_0_VE1000.json,276500,405857,29,Woman
34,232507,final-intermixed-textured,v2,jsons/MX_seq53_0_VE1000.json,http://54.235.29.9/FacialAge/BNav_EC2/DepthDuration/MX_fS_VE_MTurk/MX_fS_HTML.html#125,125,1366,607,1366,768,1-8-2024,12-55-40,35,VR_target_stimuli/s51_1.3x_3.64_479.png,1000,1.3x,3.64,5,3467,1002,meters,jsons/MX_seq53_0_VE1000.json,276500,405857,29,Woman
35,232507,final-intermixed-textured,v2,jsons/MX_seq53_0_VE1000.json,http://54.235.29.9/FacialAge/BNav_EC2/DepthDuration/MX_fS_VE_MTurk/MX_fS_HTML.html#125,125,1366,607,1366,768,1-8-2024,12-55-40,36,VR_target_stimuli/s43_1x_2.2_354.png,1000,1x,2.2,6,3495,985,meters,jsons/MX_seq53_0_VE1000.json,276500,405857,29,Woman
36,232507,final-intermixed-textured,v2,jsons/MX_seq53_0_VE1000.json,http://54.235.29.9/FacialAge/BNav_EC2/DepthDuration/MX_fS_VE_MTurk/MX_fS_HTML.html#125,125,1366,607,1366,768,1-8-2024,12-55-40,37,VR_target_stimuli/s24_0.75x_3.3_344_BC.png,1000,0.75x,3.3,7,3492,996,meters,jsons/MX_seq53_0_VE1000.json,276500,405857,29,Woman
37,232507,final-intermixed-textured,v2,jsons/MX_seq53_0_VE1000.json,http://54.235.29.9/FacialAge/BNav_EC2/DepthDuration/MX_fS_VE_MTurk/MX_fS_HTML.html#125,125,1366,607,1366,768,1-8-2024,12-55-40,38,VR_target_stimuli/s10_0.75x_2.7_321.png,1000,0.75x,2.7,7,3478,996,meters,jsons/MX_seq53_0_VE1000.json,276500,405857,29,Woman
38,232507,final-intermixed-textured,v2,jsons/MX_seq53_0_VE1000.json,http://54.235.29.9/FacialAge/BNav_EC2/DepthDuration/MX_fS_VE_MTurk/MX_fS_HTML.html#125,125,1366,607,1366,768,1-8-2024,12-55-40,39,VR_target_stimuli/s36_1.3x_4.1_442_BC.png,1000,1.3x,4.1,6,4603,1005,meters,jsons/MX_seq53_0_VE1000.json,276500,405857,29,Woman
39,232507,final-intermixed-textured,v2,jsons/MX_seq53_0_VE1000.json,http://54.235.29.9/FacialAge/BNav_EC2/DepthDuration/MX_fS_VE_MTurk/MX_fS_HTML.html#125,125,1366,607,1366,768,1-8-2024,12-55-40,40,VR_target_stimuli/s40_1x_1.2_319_BC.png,1000,1x,1.2,2,3711,994,meters,jsons/MX_seq53_0_VE1000.json,276500,405857,29,Woman
40,232507,final-intermixed-textured,v2,jsons/MX_seq53_0_VE1000.json,http://54.235.29.9/FacialAge/BNav_EC2/DepthDuration/MX_fS_VE_MTurk/MX_fS_HTML.html#125,125,1366,607,1366,768,1-8-2024,12-55-40,41,VR_target_stimuli/s41_1.3x_2.1_294_BC.png,1000,1.3x,2.1,4,4007,1000,meters,jsons/MX_seq53_0_VE1000.json,276500,405857,29,Woman
41,232507,final-intermixed-textured,v2,jsons/MX_seq53_0_VE1000.json,http://54.235.29.9/FacialAge/BNav_EC2/DepthDuration/MX_fS_VE_MTurk/MX_fS_HTML.html#125,125,1366,607,1366,768,1-8-2024,12-55-40,42,VR_target_stimuli/s45_0.75x_3.5_362.png,1000,0.75x,3.5,5,3526,991,meters,jsons/MX_seq53_0_VE1000.json,276500,405857,29,Woman
42,232507,final-intermixed-textured,v2,jsons/MX_seq53_0_VE1000.json,http://54.235.29.9/FacialAge/BNav_EC2/DepthDuration/MX_fS_VE_MTurk/MX_fS_HTML.html#125,125,1366,607,1366,768,1-8-2024,12-55-40,43,VR_target_stimuli/s23_1x_3.65_353.png,1000,1x,3.65,5,5017,1003,meters,jsons/MX_seq53_0_VE1000.json,276500,405857,29,Woman
43,232507,final-intermixed-textured,v2,jsons/MX_seq53_0_VE1000.json,http://54.235.29.9/FacialAge/BNav_EC2/DepthDuration/MX_fS_VE_MTurk/MX_fS_HTML.html#125,125,1366,607,1366,768,1-8-2024,12-55-40,44,VR_target_stimuli/s26_0.75x_4_430_BC.png,1000,0.75x,4.0,6,4758,1003,meters,jsons/MX_seq53_0_VE1000.json,276500,405857,29,Woman
44,232507,final-intermixed-textured,v2,jsons/MX_seq53_0_VE1000.json,http://54.235.29.9/FacialAge/BNav_EC2/DepthDuration/MX_fS_VE_MTurk/MX_fS_HTML.html#125,125,1366,607,1366,768,1-8-2024,12-55-40,45,catch_stimuli/c4.png,1000,,,0,2878,1005,meters,jsons/MX_seq53_0_VE1000.json,276500,405857,29,Woman
45,232507,final-intermixed-textured,v2,jsons/MX_seq53_0_VE1000.json,http://54.235.29.9/FacialAge/BNav_EC2/DepthDuration/MX_fS_VE_MTurk/MX_fS_HTML.html#125,125,1366,607,1366,768,1-8-2024,12-55-40,46,VR_target_stimuli/s12_1.3x_3.1_375.png,1000,1.3x,3.1,3,5383,995,meters,jsons/MX_seq53_0_VE1000.json,276500,405857,29,Woman
46,232507,final-intermixed-textured,v2,jsons/MX_seq53_0_VE1000.json,http://54.235.29.9/FacialAge/BNav_EC2/DepthDuration/MX_fS_VE_MTurk/MX_fS_HTML.html#125,125,1366,607,1366,768,1-8-2024,12-55-40,47,VR_target_stimuli/s30_1x_2.3_334_BC.png,1000,1x,2.3,5,3656,1012,meters,jsons/MX_seq53_0_VE1000.json,276500,405857,29,Woman
47,232507,final-intermixed-textured,v2,jsons/MX_seq53_0_VE1000.json,http://54.235.29.9/FacialAge/BNav_EC2/DepthDuration/MX_fS_VE_MTurk/MX_fS_HTML.html#125,125,1366,607,1366,768,1-8-2024,12-55-40,48,VR_target_stimuli/s16_1x_1_219.png,1000,1x,1.0,3,3017,1002,meters,jsons/MX_seq53_0_VE1000.json,276500,405857,29,Woman
48,232507,final-intermixed-textured,v2,jsons/MX_seq53_0_VE1000.json,http://54.235.29.9/FacialAge/BNav_EC2/DepthDuration/MX_fS_VE_MTurk/MX_fS_HTML.html#125,125,1366,607,1366,768,1-8-2024,12-55-40,49,VR_target_stimuli/s17_0.75x_1.8_285.png,1000,0.75x,1.8,3,5335,1004,meters,jsons/MX_seq53_0_VE1000.json,276500,405857,29,Woman
49,232507,final-intermixed-textured,v2,jsons/MX_seq53_0_VE1000.json,http://54.235.29.9/FacialAge/BNav_EC2/DepthDuration/MX_fS_VE_MTurk/MX_fS_HTML.html#125,125,1366,607,1366,768,1-8-2024,12-55-40,50,VR_target_stimuli/s5_1.3x_4_393_BC.png,1000,1.3x,4.0,5,6455,1001,meters,jsons/MX_seq53_0_VE1000.json,276500,405857,29,Woman
50,232507,final-intermixed-textured,v2,jsons/MX_seq53_0_VE1000.json,http://54.235.29.9/FacialAge/BNav_EC2/DepthDuration/MX_fS_VE_MTurk/MX_fS_HTML.html#125,125,1366,607,1366,768,1-8-2024,12-55-40,51,VR_target_stimuli/s37_0.75x_3.3_567_BC.png,1000,0.75x,3.3,3,5133,999,meters,jsons/MX_seq53_0_VE1000.json,276500,405857,29,Woman
51,232507,final-intermixed-textured,v2,jsons/MX_seq53_0_VE1000.json,http://54.235.29.9/FacialAge/BNav_EC2/DepthDuration/MX_fS_VE_MTurk/MX_fS_HTML.html#125,125,1366,607,1366,768,1-8-2024,12-55-40,52,VR_target_stimuli/s46_1x_2.42_348_BC.png,1000,1x,2.42,4,3829,1010,meters,jsons/MX_seq53_0_VE1000.json,276500,405857,29,Woman
52,232507,final-intermixed-textured,v2,jsons/MX_seq53_0_VE1000.json,http://54.235.29.9/FacialAge/BNav_EC2/DepthDuration/MX_fS_VE_MTurk/MX_fS_HTML.html#125,125,1366,607,1366,768,1-8-2024,12-55-40,53,catch_stimuli/c5.png,1000,,,0,2942,1000,meters,jsons/MX_seq53_0_VE1000.json,276500,405857,29,Woman
53,232507,final-intermixed-textured,v2,jsons/MX_seq53_0_VE1000.json,http://54.235.29.9/FacialAge/BNav_EC2/DepthDuration/MX_fS_VE_MTurk/MX_fS_HTML.html#125,125,1366,607,1366,768,1-8-2024,12-55-40,54,VR_target_stimuli/s22_1.3x_4.29_364.png,1000,1.3x,4.29,8,5745,999,meters,jsons/MX_seq53_0_VE1000.json,276500,405857,29,Woman
54,232507,final-intermixed-textured,v2,jsons/MX_seq53_0_VE1000.json,http://54.235.29.9/FacialAge/BNav_EC2/DepthDuration/MX_fS_VE_MTurk/MX_fS_HTML.html#125,125,1366,607,1366,768,1-8-2024,12-55-40,55,VR_target_stimuli/s42_1x_3.2_303.png,1000,1x,3.2,5,3839,1010,meters,jsons/MX_seq53_0_VE1000.json,276500,405857,29,Woman
55,232507,final-intermixed-textured,v2,jsons/MX_seq53_0_VE1000.json,http://54.235.29.9/FacialAge/BNav_EC2/DepthDuration/MX_fS_VE_MTurk/MX_fS_HTML.html#125,125,1366,607,1366,768,1-8-2024,12-55-40,56,VR_target_stimuli/s25_0.75x_1.4_281_BC.png,1000,0.75x,1.4,2,3998,1000,meters,jsons/MX_seq53_0_VE1000.json,276500,405857,29,Woman
56,232507,final-intermixed-textured,v2,jsons/MX_seq53_0_VE1000.json,http://54.235.29.9/FacialAge/BNav_EC2/DepthDuration/MX_fS_VE_MTurk/MX_fS_HTML.html#125,125,1366,607,1366,768,1-8-2024,12-55-40,57,VR_target_stimuli/s50_1.3x_4.53_518.png,1000,1.3x,4.53,3,3848,1004,meters,jsons/MX_seq53_0_VE1000.json,276500,405857,29,Woman
57,232507,final-intermixed-textured,v2,jsons/MX_seq53_0_VE1000.json,http://54.235.29.9/FacialAge/BNav_EC2/DepthDuration/MX_fS_VE_MTurk/MX_fS_HTML.html#125,125,1366,607,1366,768,1-8-2024,12-55-40,58,VR_target_stimuli/s53_1.3x_1.6_355_BC.png,1000,1.3x,1.6,1,4073,1009,meters,jsons/MX_seq53_0_VE1000.json,276500,405857,29,Woman
58,232507,final-intermixed-textured,v2,jsons/MX_seq53_0_VE1000.json,http://54.235.29.9/FacialAge/BNav_EC2/DepthDuration/MX_fS_VE_MTurk/MX_fS_HTML.html#125,125,1366,607,1366,768,1-8-2024,12-55-40,59,VR_target_stimuli/s38_1x_3.55_353_BC.png,1000,1x,3.55,5,3772,1002,meters,jsons/MX_seq53_0_VE1000.json,276500,405857,29,Woman
59,232507,final-intermixed-textured,v2,jsons/MX_seq53_0_VE1000.json,http://54.235.29.9/FacialAge/BNav_EC2/DepthDuration/MX_fS_VE_MTurk/MX_fS_HTML.html#125,125,1366,607,1366,768,1-8-2024,12-55-40,60,VR_target_stimuli/s9_0.75x_1.2_260.png,1000,0.75x,1.2,3,3570,990,meters,jsons/MX_seq53_0_VE1000.json,276500,405857,29,Woman
