,subjID,experimentName,versionName,sequenceName,url,selected_row,windowWidth,windowHeight,screenWidth,screenHeight,startDate,startTime,trial,stimulus,duration,scale,actual_depth,depth_estimate,trial_RT,log_sceneDuration,unitSelection,seq_filepath,experimentTime,totalTime,age,gender
0,233225,final-intermixed-textured,v2,jsons/MX_seq45_2_VE1000.json,http://54.235.29.9/FacialAge/BNav_EC2/DepthDuration/MX_fS_VE_MTurk/MX_fS_HTML.html#97,97,2560,1279,2560,1440,1-8-2024,11-26-2,1,VR_target_stimuli/s46_1x_2.42_348_BC.png,1000,1x,2.42,3.0,2981,1002,meters,jsons/MX_seq45_2_VE1000.json,215351,349426,27,Man
1,233225,final-intermixed-textured,v2,jsons/MX_seq45_2_VE1000.json,http://54.235.29.9/FacialAge/BNav_EC2/DepthDuration/MX_fS_VE_MTurk/MX_fS_HTML.html#97,97,2560,1279,2560,1440,1-8-2024,11-26-2,2,VR_target_stimuli/s22_1.3x_4.29_364.png,1000,1.3x,4.29,2.0,3114,992,meters,jsons/MX_seq45_2_VE1000.json,215351,349426,27,Man
2,233225,final-intermixed-textured,v2,jsons/MX_seq45_2_VE1000.json,http://54.235.29.9/FacialAge/BNav_EC2/DepthDuration/MX_fS_VE_MTurk/MX_fS_HTML.html#97,97,2560,1279,2560,1440,1-8-2024,11-26-2,3,VR_target_stimuli/s42_0.75x_3.2_301_BC.png,1000,0.75x,3.2,4.0,3179,1007,meters,jsons/MX_seq45_2_VE1000.json,215351,349426,27,Man
3,233225,final-intermixed-textured,v2,jsons/MX_seq45_2_VE1000.json,http://54.235.29.9/FacialAge/BNav_EC2/DepthDuration/MX_fS_VE_MTurk/MX_fS_HTML.html#97,97,2560,1279,2560,1440,1-8-2024,11-26-2,4,VR_target_stimuli/s25_1.3x_1.4_299_BC.png,1000,1.3x,1.4,1.0,2826,989,meters,jsons/MX_seq45_2_VE1000.json,215351,349426,27,Man
4,233225,final-intermixed-textured,v2,jsons/MX_seq45_2_VE1000.json,http://54.235.29.9/FacialAge/BNav_EC2/DepthDuration/MX_fS_VE_MTurk/MX_fS_HTML.html#97,97,2560,1279,2560,1440,1-8-2024,11-26-2,5,VR_target_stimuli/s50_1x_4.53_518.png,1000,1x,4.53,2.0,3400,1002,meters,jsons/MX_seq45_2_VE1000.json,215351,349426,27,Man
5,233225,final-intermixed-textured,v2,jsons/MX_seq45_2_VE1000.json,http://54.235.29.9/FacialAge/BNav_EC2/DepthDuration/MX_fS_VE_MTurk/MX_fS_HTML.html#97,97,2560,1279,2560,1440,1-8-2024,11-26-2,6,VR_target_stimuli/s53_0.75x_1.6_403.png,1000,0.75x,1.6,1.0,3010,995,meters,jsons/MX_seq45_2_VE1000.json,215351,349426,27,Man
6,233225,final-intermixed-textured,v2,jsons/MX_seq45_2_VE1000.json,http://54.235.29.9/FacialAge/BNav_EC2/DepthDuration/MX_fS_VE_MTurk/MX_fS_HTML.html#97,97,2560,1279,2560,1440,1-8-2024,11-26-2,7,catch_stimuli/c0.png,1000,,,0.0,3141,992,meters,jsons/MX_seq45_2_VE1000.json,215351,349426,27,Man
7,233225,final-intermixed-textured,v2,jsons/MX_seq45_2_VE1000.json,http://54.235.29.9/FacialAge/BNav_EC2/DepthDuration/MX_fS_VE_MTurk/MX_fS_HTML.html#97,97,2560,1279,2560,1440,1-8-2024,11-26-2,8,VR_target_stimuli/s38_0.75x_3.55_346_BC.png,1000,0.75x,3.55,1.0,3206,1002,meters,jsons/MX_seq45_2_VE1000.json,215351,349426,27,Man
8,233225,final-intermixed-textured,v2,jsons/MX_seq45_2_VE1000.json,http://54.235.29.9/FacialAge/BNav_EC2/DepthDuration/MX_fS_VE_MTurk/MX_fS_HTML.html#97,97,2560,1279,2560,1440,1-8-2024,11-26-2,9,VR_target_stimuli/s9_1.3x_1.2_276_BC.png,1000,1.3x,1.2,1.0,3525,998,meters,jsons/MX_seq45_2_VE1000.json,215351,349426,27,Man
9,233225,final-intermixed-textured,v2,jsons/MX_seq45_2_VE1000.json,http://54.235.29.9/FacialAge/BNav_EC2/DepthDuration/MX_fS_VE_MTurk/MX_fS_HTML.html#97,97,2560,1279,2560,1440,1-8-2024,11-26-2,10,VR_target_stimuli/s44_1x_4.4_317_BC.png,1000,1x,4.4,3.0,2939,1009,meters,jsons/MX_seq45_2_VE1000.json,215351,349426,27,Man
10,233225,final-intermixed-textured,v2,jsons/MX_seq45_2_VE1000.json,http://54.235.29.9/FacialAge/BNav_EC2/DepthDuration/MX_fS_VE_MTurk/MX_fS_HTML.html#97,97,2560,1279,2560,1440,1-8-2024,11-26-2,11,VR_target_stimuli/s3_1.3x_5_390.png,1000,1.3x,5.0,2.5,4141,999,meters,jsons/MX_seq45_2_VE1000.json,215351,349426,27,Man
11,233225,final-intermixed-textured,v2,jsons/MX_seq45_2_VE1000.json,http://54.235.29.9/FacialAge/BNav_EC2/DepthDuration/MX_fS_VE_MTurk/MX_fS_HTML.html#97,97,2560,1279,2560,1440,1-8-2024,11-26-2,12,VR_target_stimuli/s1_0.75x_1.7_265.png,1000,0.75x,1.7,1.5,3834,990,meters,jsons/MX_seq45_2_VE1000.json,215351,349426,27,Man
12,233225,final-intermixed-textured,v2,jsons/MX_seq45_2_VE1000.json,http://54.235.29.9/FacialAge/BNav_EC2/DepthDuration/MX_fS_VE_MTurk/MX_fS_HTML.html#97,97,2560,1279,2560,1440,1-8-2024,11-26-2,13,VR_target_stimuli/s11_1x_5_361.png,1000,1x,5.0,4.0,2914,991,meters,jsons/MX_seq45_2_VE1000.json,215351,349426,27,Man
13,233225,final-intermixed-textured,v2,jsons/MX_seq45_2_VE1000.json,http://54.235.29.9/FacialAge/BNav_EC2/DepthDuration/MX_fS_VE_MTurk/MX_fS_HTML.html#97,97,2560,1279,2560,1440,1-8-2024,11-26-2,14,VR_target_stimuli/s2_0.75x_2.7_384.png,1000,0.75x,2.7,3.0,2810,1012,meters,jsons/MX_seq45_2_VE1000.json,215351,349426,27,Man
14,233225,final-intermixed-textured,v2,jsons/MX_seq45_2_VE1000.json,http://54.235.29.9/FacialAge/BNav_EC2/DepthDuration/MX_fS_VE_MTurk/MX_fS_HTML.html#97,97,2560,1279,2560,1440,1-8-2024,11-26-2,15,VR_target_stimuli/s6_1.3x_2.1_298_BC.png,1000,1.3x,2.1,2.0,2618,997,meters,jsons/MX_seq45_2_VE1000.json,215351,349426,27,Man
15,233225,final-intermixed-textured,v2,jsons/MX_seq45_2_VE1000.json,http://54.235.29.9/FacialAge/BNav_EC2/DepthDuration/MX_fS_VE_MTurk/MX_fS_HTML.html#97,97,2560,1279,2560,1440,1-8-2024,11-26-2,16,VR_target_stimuli/s0_1x_2.6_351_BC.png,1000,1x,2.6,1.5,3294,995,meters,jsons/MX_seq45_2_VE1000.json,215351,349426,27,Man
16,233225,final-intermixed-textured,v2,jsons/MX_seq45_2_VE1000.json,http://54.235.29.9/FacialAge/BNav_EC2/DepthDuration/MX_fS_VE_MTurk/MX_fS_HTML.html#97,97,2560,1279,2560,1440,1-8-2024,11-26-2,17,catch_stimuli/c1.png,1000,,,0.0,3207,995,meters,jsons/MX_seq45_2_VE1000.json,215351,349426,27,Man
17,233225,final-intermixed-textured,v2,jsons/MX_seq45_2_VE1000.json,http://54.235.29.9/FacialAge/BNav_EC2/DepthDuration/MX_fS_VE_MTurk/MX_fS_HTML.html#97,97,2560,1279,2560,1440,1-8-2024,11-26-2,18,VR_target_stimuli/s34_1x_2.8_283.png,1000,1x,2.8,1.5,3329,991,meters,jsons/MX_seq45_2_VE1000.json,215351,349426,27,Man
18,233225,final-intermixed-textured,v2,jsons/MX_seq45_2_VE1000.json,http://54.235.29.9/FacialAge/BNav_EC2/DepthDuration/MX_fS_VE_MTurk/MX_fS_HTML.html#97,97,2560,1279,2560,1440,1-8-2024,11-26-2,19,VR_target_stimuli/s13_0.75x_2.4_308_BC.png,1000,0.75x,2.4,2.0,2667,999,meters,jsons/MX_seq45_2_VE1000.json,215351,349426,27,Man
19,233225,final-intermixed-textured,v2,jsons/MX_seq45_2_VE1000.json,http://54.235.29.9/FacialAge/BNav_EC2/DepthDuration/MX_fS_VE_MTurk/MX_fS_HTML.html#97,97,2560,1279,2560,1440,1-8-2024,11-26-2,20,VR_target_stimuli/s14_1.3x_3.83_359.png,1000,1.3x,3.83,2.0,4192,1005,meters,jsons/MX_seq45_2_VE1000.json,215351,349426,27,Man
20,233225,final-intermixed-textured,v2,jsons/MX_seq45_2_VE1000.json,http://54.235.29.9/FacialAge/BNav_EC2/DepthDuration/MX_fS_VE_MTurk/MX_fS_HTML.html#97,97,2560,1279,2560,1440,1-8-2024,11-26-2,21,VR_target_stimuli/s47_0.75x_3.45_366.png,1000,0.75x,3.45,2.0,2889,1001,meters,jsons/MX_seq45_2_VE1000.json,215351,349426,27,Man
21,233225,final-intermixed-textured,v2,jsons/MX_seq45_2_VE1000.json,http://54.235.29.9/FacialAge/BNav_EC2/DepthDuration/MX_fS_VE_MTurk/MX_fS_HTML.html#97,97,2560,1279,2560,1440,1-8-2024,11-26-2,22,VR_target_stimuli/s29_1x_1.3_250.png,1000,1x,1.3,1.0,2571,1001,meters,jsons/MX_seq45_2_VE1000.json,215351,349426,27,Man
22,233225,final-intermixed-textured,v2,jsons/MX_seq45_2_VE1000.json,http://54.235.29.9/FacialAge/BNav_EC2/DepthDuration/MX_fS_VE_MTurk/MX_fS_HTML.html#97,97,2560,1279,2560,1440,1-8-2024,11-26-2,23,VR_target_stimuli/s28_1.3x_3.2_365_BC.png,1000,1.3x,3.2,2.0,2854,1002,meters,jsons/MX_seq45_2_VE1000.json,215351,349426,27,Man
23,233225,final-intermixed-textured,v2,jsons/MX_seq45_2_VE1000.json,http://54.235.29.9/FacialAge/BNav_EC2/DepthDuration/MX_fS_VE_MTurk/MX_fS_HTML.html#97,97,2560,1279,2560,1440,1-8-2024,11-26-2,24,VR_target_stimuli/s48_1x_2.55_256_BC.png,1000,1x,2.55,1.5,3808,1002,meters,jsons/MX_seq45_2_VE1000.json,215351,349426,27,Man
24,233225,final-intermixed-textured,v2,jsons/MX_seq45_2_VE1000.json,http://54.235.29.9/FacialAge/BNav_EC2/DepthDuration/MX_fS_VE_MTurk/MX_fS_HTML.html#97,97,2560,1279,2560,1440,1-8-2024,11-26-2,25,VR_target_stimuli/s19_0.75x_1.21_257_BC.png,1000,0.75x,1.21,1.0,2815,995,meters,jsons/MX_seq45_2_VE1000.json,215351,349426,27,Man
25,233225,final-intermixed-textured,v2,jsons/MX_seq45_2_VE1000.json,http://54.235.29.9/FacialAge/BNav_EC2/DepthDuration/MX_fS_VE_MTurk/MX_fS_HTML.html#97,97,2560,1279,2560,1440,1-8-2024,11-26-2,26,catch_stimuli/c2.png,1000,,,0.0,3524,998,meters,jsons/MX_seq45_2_VE1000.json,215351,349426,27,Man
26,233225,final-intermixed-textured,v2,jsons/MX_seq45_2_VE1000.json,http://54.235.29.9/FacialAge/BNav_EC2/DepthDuration/MX_fS_VE_MTurk/MX_fS_HTML.html#97,97,2560,1279,2560,1440,1-8-2024,11-26-2,27,VR_target_stimuli/s21_1.3x_4.22_384.png,1000,1.3x,4.22,2.0,3465,998,meters,jsons/MX_seq45_2_VE1000.json,215351,349426,27,Man
27,233225,final-intermixed-textured,v2,jsons/MX_seq45_2_VE1000.json,http://54.235.29.9/FacialAge/BNav_EC2/DepthDuration/MX_fS_VE_MTurk/MX_fS_HTML.html#97,97,2560,1279,2560,1440,1-8-2024,11-26-2,28,VR_target_stimuli/s8_1.3x_3.1_345_BC.png,1000,1.3x,3.1,2.0,3844,999,meters,jsons/MX_seq45_2_VE1000.json,215351,349426,27,Man
28,233225,final-intermixed-textured,v2,jsons/MX_seq45_2_VE1000.json,http://54.235.29.9/FacialAge/BNav_EC2/DepthDuration/MX_fS_VE_MTurk/MX_fS_HTML.html#97,97,2560,1279,2560,1440,1-8-2024,11-26-2,29,VR_target_stimuli/s27_1x_1.76_248.png,1000,1x,1.76,3.0,3231,990,meters,jsons/MX_seq45_2_VE1000.json,215351,349426,27,Man
29,233225,final-intermixed-textured,v2,jsons/MX_seq45_2_VE1000.json,http://54.235.29.9/FacialAge/BNav_EC2/DepthDuration/MX_fS_VE_MTurk/MX_fS_HTML.html#97,97,2560,1279,2560,1440,1-8-2024,11-26-2,30,VR_target_stimuli/s15_0.75x_4.2_388_BC.png,1000,0.75x,4.2,4.0,2736,987,meters,jsons/MX_seq45_2_VE1000.json,215351,349426,27,Man
30,233225,final-intermixed-textured,v2,jsons/MX_seq45_2_VE1000.json,http://54.235.29.9/FacialAge/BNav_EC2/DepthDuration/MX_fS_VE_MTurk/MX_fS_HTML.html#97,97,2560,1279,2560,1440,1-8-2024,11-26-2,31,VR_target_stimuli/s4_1.3x_1.4_328.png,1000,1.3x,1.4,1.0,2680,999,meters,jsons/MX_seq45_2_VE1000.json,215351,349426,27,Man
31,233225,final-intermixed-textured,v2,jsons/MX_seq45_2_VE1000.json,http://54.235.29.9/FacialAge/BNav_EC2/DepthDuration/MX_fS_VE_MTurk/MX_fS_HTML.html#97,97,2560,1279,2560,1440,1-8-2024,11-26-2,32,VR_target_stimuli/s35_0.75x_2_323.png,1000,0.75x,2.0,1.0,2727,999,meters,jsons/MX_seq45_2_VE1000.json,215351,349426,27,Man
32,233225,final-intermixed-textured,v2,jsons/MX_seq45_2_VE1000.json,http://54.235.29.9/FacialAge/BNav_EC2/DepthDuration/MX_fS_VE_MTurk/MX_fS_HTML.html#97,97,2560,1279,2560,1440,1-8-2024,11-26-2,33,VR_target_stimuli/s49_1x_4.67_341_BC.png,1000,1x,4.67,2.0,2733,1001,meters,jsons/MX_seq45_2_VE1000.json,215351,349426,27,Man
33,233225,final-intermixed-textured,v2,jsons/MX_seq45_2_VE1000.json,http://54.235.29.9/FacialAge/BNav_EC2/DepthDuration/MX_fS_VE_MTurk/MX_fS_HTML.html#97,97,2560,1279,2560,1440,1-8-2024,11-26-2,34,catch_stimuli/c3.png,1000,,,0.0,3764,997,meters,jsons/MX_seq45_2_VE1000.json,215351,349426,27,Man
34,233225,final-intermixed-textured,v2,jsons/MX_seq45_2_VE1000.json,http://54.235.29.9/FacialAge/BNav_EC2/DepthDuration/MX_fS_VE_MTurk/MX_fS_HTML.html#97,97,2560,1279,2560,1440,1-8-2024,11-26-2,35,VR_target_stimuli/s7_0.75x_1.5_253.png,1000,0.75x,1.5,1.0,2823,1003,meters,jsons/MX_seq45_2_VE1000.json,215351,349426,27,Man
35,233225,final-intermixed-textured,v2,jsons/MX_seq45_2_VE1000.json,http://54.235.29.9/FacialAge/BNav_EC2/DepthDuration/MX_fS_VE_MTurk/MX_fS_HTML.html#97,97,2560,1279,2560,1440,1-8-2024,11-26-2,36,VR_target_stimuli/s20_1.3x_4.99_412.png,1000,1.3x,4.99,2.0,2577,988,meters,jsons/MX_seq45_2_VE1000.json,215351,349426,27,Man
36,233225,final-intermixed-textured,v2,jsons/MX_seq45_2_VE1000.json,http://54.235.29.9/FacialAge/BNav_EC2/DepthDuration/MX_fS_VE_MTurk/MX_fS_HTML.html#97,97,2560,1279,2560,1440,1-8-2024,11-26-2,37,VR_target_stimuli/s31_1x_4.96_333.png,1000,1x,4.96,0.8,4473,1003,meters,jsons/MX_seq45_2_VE1000.json,215351,349426,27,Man
37,233225,final-intermixed-textured,v2,jsons/MX_seq45_2_VE1000.json,http://54.235.29.9/FacialAge/BNav_EC2/DepthDuration/MX_fS_VE_MTurk/MX_fS_HTML.html#97,97,2560,1279,2560,1440,1-8-2024,11-26-2,38,VR_target_stimuli/s33_1x_3.1_366_BC.png,1000,1x,3.1,1.0,2857,989,meters,jsons/MX_seq45_2_VE1000.json,215351,349426,27,Man
38,233225,final-intermixed-textured,v2,jsons/MX_seq45_2_VE1000.json,http://54.235.29.9/FacialAge/BNav_EC2/DepthDuration/MX_fS_VE_MTurk/MX_fS_HTML.html#97,97,2560,1279,2560,1440,1-8-2024,11-26-2,39,VR_target_stimuli/s52_0.75x_3.2_270_BC.png,1000,0.75x,3.2,2.0,2687,999,meters,jsons/MX_seq45_2_VE1000.json,215351,349426,27,Man
39,233225,final-intermixed-textured,v2,jsons/MX_seq45_2_VE1000.json,http://54.235.29.9/FacialAge/BNav_EC2/DepthDuration/MX_fS_VE_MTurk/MX_fS_HTML.html#97,97,2560,1279,2560,1440,1-8-2024,11-26-2,40,VR_target_stimuli/s32_1.3x_1.5_224_BC.png,1000,1.3x,1.5,1.0,2704,989,meters,jsons/MX_seq45_2_VE1000.json,215351,349426,27,Man
40,233225,final-intermixed-textured,v2,jsons/MX_seq45_2_VE1000.json,http://54.235.29.9/FacialAge/BNav_EC2/DepthDuration/MX_fS_VE_MTurk/MX_fS_HTML.html#97,97,2560,1279,2560,1440,1-8-2024,11-26-2,41,VR_target_stimuli/s18_0.75x_2.25_341.png,1000,0.75x,2.25,2.0,2582,994,meters,jsons/MX_seq45_2_VE1000.json,215351,349426,27,Man
41,233225,final-intermixed-textured,v2,jsons/MX_seq45_2_VE1000.json,http://54.235.29.9/FacialAge/BNav_EC2/DepthDuration/MX_fS_VE_MTurk/MX_fS_HTML.html#97,97,2560,1279,2560,1440,1-8-2024,11-26-2,42,VR_target_stimuli/s39_1x_1_207.png,1000,1x,1.0,1.0,2540,1002,meters,jsons/MX_seq45_2_VE1000.json,215351,349426,27,Man
42,233225,final-intermixed-textured,v2,jsons/MX_seq45_2_VE1000.json,http://54.235.29.9/FacialAge/BNav_EC2/DepthDuration/MX_fS_VE_MTurk/MX_fS_HTML.html#97,97,2560,1279,2560,1440,1-8-2024,11-26-2,43,VR_target_stimuli/s51_1.3x_3.64_479_BC.png,1000,1.3x,3.64,2.0,3272,998,meters,jsons/MX_seq45_2_VE1000.json,215351,349426,27,Man
43,233225,final-intermixed-textured,v2,jsons/MX_seq45_2_VE1000.json,http://54.235.29.9/FacialAge/BNav_EC2/DepthDuration/MX_fS_VE_MTurk/MX_fS_HTML.html#97,97,2560,1279,2560,1440,1-8-2024,11-26-2,44,VR_target_stimuli/s43_1x_2.2_354_BC.png,1000,1x,2.2,2.0,2772,1000,meters,jsons/MX_seq45_2_VE1000.json,215351,349426,27,Man
44,233225,final-intermixed-textured,v2,jsons/MX_seq45_2_VE1000.json,http://54.235.29.9/FacialAge/BNav_EC2/DepthDuration/MX_fS_VE_MTurk/MX_fS_HTML.html#97,97,2560,1279,2560,1440,1-8-2024,11-26-2,45,catch_stimuli/c4.png,1000,,,0.0,3692,999,meters,jsons/MX_seq45_2_VE1000.json,215351,349426,27,Man
45,233225,final-intermixed-textured,v2,jsons/MX_seq45_2_VE1000.json,http://54.235.29.9/FacialAge/BNav_EC2/DepthDuration/MX_fS_VE_MTurk/MX_fS_HTML.html#97,97,2560,1279,2560,1440,1-8-2024,11-26-2,46,VR_target_stimuli/s24_0.75x_3.3_344_BC.png,1000,0.75x,3.3,1.5,3481,994,meters,jsons/MX_seq45_2_VE1000.json,215351,349426,27,Man
46,233225,final-intermixed-textured,v2,jsons/MX_seq45_2_VE1000.json,http://54.235.29.9/FacialAge/BNav_EC2/DepthDuration/MX_fS_VE_MTurk/MX_fS_HTML.html#97,97,2560,1279,2560,1440,1-8-2024,11-26-2,47,VR_target_stimuli/s10_1.3x_2.7_325.png,1000,1.3x,2.7,2.0,3322,1005,meters,jsons/MX_seq45_2_VE1000.json,215351,349426,27,Man
47,233225,final-intermixed-textured,v2,jsons/MX_seq45_2_VE1000.json,http://54.235.29.9/FacialAge/BNav_EC2/DepthDuration/MX_fS_VE_MTurk/MX_fS_HTML.html#97,97,2560,1279,2560,1440,1-8-2024,11-26-2,48,VR_target_stimuli/s36_1.3x_4.1_442_BC.png,1000,1.3x,4.1,2.0,2589,1003,meters,jsons/MX_seq45_2_VE1000.json,215351,349426,27,Man
48,233225,final-intermixed-textured,v2,jsons/MX_seq45_2_VE1000.json,http://54.235.29.9/FacialAge/BNav_EC2/DepthDuration/MX_fS_VE_MTurk/MX_fS_HTML.html#97,97,2560,1279,2560,1440,1-8-2024,11-26-2,49,VR_target_stimuli/s40_1x_1.2_319_BC.png,1000,1x,1.2,1.0,2795,1010,meters,jsons/MX_seq45_2_VE1000.json,215351,349426,27,Man
49,233225,final-intermixed-textured,v2,jsons/MX_seq45_2_VE1000.json,http://54.235.29.9/FacialAge/BNav_EC2/DepthDuration/MX_fS_VE_MTurk/MX_fS_HTML.html#97,97,2560,1279,2560,1440,1-8-2024,11-26-2,50,VR_target_stimuli/s41_0.75x_2.1_281_BC.png,1000,0.75x,2.1,2.0,2524,995,meters,jsons/MX_seq45_2_VE1000.json,215351,349426,27,Man
50,233225,final-intermixed-textured,v2,jsons/MX_seq45_2_VE1000.json,http://54.235.29.9/FacialAge/BNav_EC2/DepthDuration/MX_fS_VE_MTurk/MX_fS_HTML.html#97,97,2560,1279,2560,1440,1-8-2024,11-26-2,51,VR_target_stimuli/s45_1x_3.5_368.png,1000,1x,3.5,2.0,3192,1002,meters,jsons/MX_seq45_2_VE1000.json,215351,349426,27,Man
51,233225,final-intermixed-textured,v2,jsons/MX_seq45_2_VE1000.json,http://54.235.29.9/FacialAge/BNav_EC2/DepthDuration/MX_fS_VE_MTurk/MX_fS_HTML.html#97,97,2560,1279,2560,1440,1-8-2024,11-26-2,52,VR_target_stimuli/s23_1.3x_3.65_354.png,1000,1.3x,3.65,2.0,3337,993,meters,jsons/MX_seq45_2_VE1000.json,215351,349426,27,Man
52,233225,final-intermixed-textured,v2,jsons/MX_seq45_2_VE1000.json,http://54.235.29.9/FacialAge/BNav_EC2/DepthDuration/MX_fS_VE_MTurk/MX_fS_HTML.html#97,97,2560,1279,2560,1440,1-8-2024,11-26-2,53,catch_stimuli/c5.png,1000,,,0.0,3983,998,meters,jsons/MX_seq45_2_VE1000.json,215351,349426,27,Man
53,233225,final-intermixed-textured,v2,jsons/MX_seq45_2_VE1000.json,http://54.235.29.9/FacialAge/BNav_EC2/DepthDuration/MX_fS_VE_MTurk/MX_fS_HTML.html#97,97,2560,1279,2560,1440,1-8-2024,11-26-2,54,VR_target_stimuli/s26_0.75x_4_430.png,1000,0.75x,4.0,3.0,2586,995,meters,jsons/MX_seq45_2_VE1000.json,215351,349426,27,Man
54,233225,final-intermixed-textured,v2,jsons/MX_seq45_2_VE1000.json,http://54.235.29.9/FacialAge/BNav_EC2/DepthDuration/MX_fS_VE_MTurk/MX_fS_HTML.html#97,97,2560,1279,2560,1440,1-8-2024,11-26-2,55,VR_target_stimuli/s12_1.3x_3.1_375_BC.png,1000,1.3x,3.1,2.0,2447,991,meters,jsons/MX_seq45_2_VE1000.json,215351,349426,27,Man
55,233225,final-intermixed-textured,v2,jsons/MX_seq45_2_VE1000.json,http://54.235.29.9/FacialAge/BNav_EC2/DepthDuration/MX_fS_VE_MTurk/MX_fS_HTML.html#97,97,2560,1279,2560,1440,1-8-2024,11-26-2,56,VR_target_stimuli/s30_1x_2.3_334.png,1000,1x,2.3,2.0,2488,1000,meters,jsons/MX_seq45_2_VE1000.json,215351,349426,27,Man
56,233225,final-intermixed-textured,v2,jsons/MX_seq45_2_VE1000.json,http://54.235.29.9/FacialAge/BNav_EC2/DepthDuration/MX_fS_VE_MTurk/MX_fS_HTML.html#97,97,2560,1279,2560,1440,1-8-2024,11-26-2,57,VR_target_stimuli/s16_0.75x_1_217.png,1000,0.75x,1.0,1.0,2676,1003,meters,jsons/MX_seq45_2_VE1000.json,215351,349426,27,Man
57,233225,final-intermixed-textured,v2,jsons/MX_seq45_2_VE1000.json,http://54.235.29.9/FacialAge/BNav_EC2/DepthDuration/MX_fS_VE_MTurk/MX_fS_HTML.html#97,97,2560,1279,2560,1440,1-8-2024,11-26-2,58,VR_target_stimuli/s17_0.75x_1.8_285_BC.png,1000,0.75x,1.8,2.0,2815,989,meters,jsons/MX_seq45_2_VE1000.json,215351,349426,27,Man
58,233225,final-intermixed-textured,v2,jsons/MX_seq45_2_VE1000.json,http://54.235.29.9/FacialAge/BNav_EC2/DepthDuration/MX_fS_VE_MTurk/MX_fS_HTML.html#97,97,2560,1279,2560,1440,1-8-2024,11-26-2,59,VR_target_stimuli/s5_1.3x_4_393.png,1000,1.3x,4.0,2.0,2794,1002,meters,jsons/MX_seq45_2_VE1000.json,215351,349426,27,Man
59,233225,final-intermixed-textured,v2,jsons/MX_seq45_2_VE1000.json,http://54.235.29.9/FacialAge/BNav_EC2/DepthDuration/MX_fS_VE_MTurk/MX_fS_HTML.html#97,97,2560,1279,2560,1440,1-8-2024,11-26-2,60,VR_target_stimuli/s37_1x_3.3_563_BC.png,1000,1x,3.3,3.0,2926,1004,meters,jsons/MX_seq45_2_VE1000.json,215351,349426,27,Man
