,subjID,experimentName,versionName,sequenceName,url,selected_row,windowWidth,windowHeight,screenWidth,screenHeight,startDate,startTime,trial,stimulus,duration,scale,actual_depth,depth_estimate,trial_RT,log_sceneDuration,unitSelection,seq_filepath,experimentTime,totalTime,age,gender
0,235661,final-intermixed-textured,v2,jsons/MX_seq31_2_VE1000_flipped.json,http://54.235.29.9/FacialAge/BNav_EC2/DepthDuration/MX_fS_VE_MTurk/MX_fS_HTML.html#217,217,1920,1080,1920,1080,1-8-2024,16-47-59,1,VR_target_stimuli/s24_1x_3.3_349_BC.png,1000,1x,3.3,4.5,6129,999,meters,jsons/MX_seq31_2_VE1000_flipped.json,317273,960146,18,Man
1,235661,final-intermixed-textured,v2,jsons/MX_seq31_2_VE1000_flipped.json,http://54.235.29.9/FacialAge/BNav_EC2/DepthDuration/MX_fS_VE_MTurk/MX_fS_HTML.html#217,217,1920,1080,1920,1080,1-8-2024,16-47-59,2,VR_target_stimuli/s10_1.3x_2.7_325.png,1000,1.3x,2.7,2.7,6225,1084,meters,jsons/MX_seq31_2_VE1000_flipped.json,317273,960146,18,Man
2,235661,final-intermixed-textured,v2,jsons/MX_seq31_2_VE1000_flipped.json,http://54.235.29.9/FacialAge/BNav_EC2/DepthDuration/MX_fS_VE_MTurk/MX_fS_HTML.html#217,217,1920,1080,1920,1080,1-8-2024,16-47-59,3,VR_target_stimuli/s36_0.75x_4.1_407.png,1000,0.75x,4.1,5.5,6509,999,meters,jsons/MX_seq31_2_VE1000_flipped.json,317273,960146,18,Man
3,235661,final-intermixed-textured,v2,jsons/MX_seq31_2_VE1000_flipped.json,http://54.235.29.9/FacialAge/BNav_EC2/DepthDuration/MX_fS_VE_MTurk/MX_fS_HTML.html#217,217,1920,1080,1920,1080,1-8-2024,16-47-59,4,VR_target_stimuli/s40_1.3x_1.2_332_BC.png,1000,1.3x,1.2,1.0,5614,999,meters,jsons/MX_seq31_2_VE1000_flipped.json,317273,960146,18,Man
4,235661,final-intermixed-textured,v2,jsons/MX_seq31_2_VE1000_flipped.json,http://54.235.29.9/FacialAge/BNav_EC2/DepthDuration/MX_fS_VE_MTurk/MX_fS_HTML.html#217,217,1920,1080,1920,1080,1-8-2024,16-47-59,5,VR_target_stimuli/s41_1x_2.1_286.png,1000,1x,2.1,2.5,5320,1001,meters,jsons/MX_seq31_2_VE1000_flipped.json,317273,960146,18,Man
5,235661,final-intermixed-textured,v2,jsons/MX_seq31_2_VE1000_flipped.json,http://54.235.29.9/FacialAge/BNav_EC2/DepthDuration/MX_fS_VE_MTurk/MX_fS_HTML.html#217,217,1920,1080,1920,1080,1-8-2024,16-47-59,6,VR_target_stimuli/s45_0.75x_3.5_362_BC.png,1000,0.75x,3.5,4.0,5683,1000,meters,jsons/MX_seq31_2_VE1000_flipped.json,317273,960146,18,Man
6,235661,final-intermixed-textured,v2,jsons/MX_seq31_2_VE1000_flipped.json,http://54.235.29.9/FacialAge/BNav_EC2/DepthDuration/MX_fS_VE_MTurk/MX_fS_HTML.html#217,217,1920,1080,1920,1080,1-8-2024,16-47-59,7,catch_stimuli/c0_BC.png,1000,,,0.0,4139,1000,meters,jsons/MX_seq31_2_VE1000_flipped.json,317273,960146,18,Man
7,235661,final-intermixed-textured,v2,jsons/MX_seq31_2_VE1000_flipped.json,http://54.235.29.9/FacialAge/BNav_EC2/DepthDuration/MX_fS_VE_MTurk/MX_fS_HTML.html#217,217,1920,1080,1920,1080,1-8-2024,16-47-59,8,VR_target_stimuli/s23_0.75x_3.65_351_BC.png,1000,0.75x,3.65,3.8,5809,999,meters,jsons/MX_seq31_2_VE1000_flipped.json,317273,960146,18,Man
8,235661,final-intermixed-textured,v2,jsons/MX_seq31_2_VE1000_flipped.json,http://54.235.29.9/FacialAge/BNav_EC2/DepthDuration/MX_fS_VE_MTurk/MX_fS_HTML.html#217,217,1920,1080,1920,1080,1-8-2024,16-47-59,9,VR_target_stimuli/s26_1.3x_4_441_BC.png,1000,1.3x,4.0,3.2,6852,999,meters,jsons/MX_seq31_2_VE1000_flipped.json,317273,960146,18,Man
9,235661,final-intermixed-textured,v2,jsons/MX_seq31_2_VE1000_flipped.json,http://54.235.29.9/FacialAge/BNav_EC2/DepthDuration/MX_fS_VE_MTurk/MX_fS_HTML.html#217,217,1920,1080,1920,1080,1-8-2024,16-47-59,10,VR_target_stimuli/s12_1x_3.1_372_BC.png,1000,1x,3.1,3.0,4590,999,meters,jsons/MX_seq31_2_VE1000_flipped.json,317273,960146,18,Man
10,235661,final-intermixed-textured,v2,jsons/MX_seq31_2_VE1000_flipped.json,http://54.235.29.9/FacialAge/BNav_EC2/DepthDuration/MX_fS_VE_MTurk/MX_fS_HTML.html#217,217,1920,1080,1920,1080,1-8-2024,16-47-59,11,VR_target_stimuli/s30_1.3x_2.3_337.png,1000,1.3x,2.3,2.0,3104,1000,meters,jsons/MX_seq31_2_VE1000_flipped.json,317273,960146,18,Man
11,235661,final-intermixed-textured,v2,jsons/MX_seq31_2_VE1000_flipped.json,http://54.235.29.9/FacialAge/BNav_EC2/DepthDuration/MX_fS_VE_MTurk/MX_fS_HTML.html#217,217,1920,1080,1920,1080,1-8-2024,16-47-59,12,VR_target_stimuli/s16_0.75x_1_217.png,1000,0.75x,1.0,1.5,5484,999,meters,jsons/MX_seq31_2_VE1000_flipped.json,317273,960146,18,Man
12,235661,final-intermixed-textured,v2,jsons/MX_seq31_2_VE1000_flipped.json,http://54.235.29.9/FacialAge/BNav_EC2/DepthDuration/MX_fS_VE_MTurk/MX_fS_HTML.html#217,217,1920,1080,1920,1080,1-8-2024,16-47-59,13,VR_target_stimuli/s17_1x_1.8_291.png,1000,1x,1.8,1.5,5367,1000,meters,jsons/MX_seq31_2_VE1000_flipped.json,317273,960146,18,Man
13,235661,final-intermixed-textured,v2,jsons/MX_seq31_2_VE1000_flipped.json,http://54.235.29.9/FacialAge/BNav_EC2/DepthDuration/MX_fS_VE_MTurk/MX_fS_HTML.html#217,217,1920,1080,1920,1080,1-8-2024,16-47-59,14,VR_target_stimuli/s5_0.75x_4_375_BC.png,1000,0.75x,4.0,3.0,3428,998,meters,jsons/MX_seq31_2_VE1000_flipped.json,317273,960146,18,Man
14,235661,final-intermixed-textured,v2,jsons/MX_seq31_2_VE1000_flipped.json,http://54.235.29.9/FacialAge/BNav_EC2/DepthDuration/MX_fS_VE_MTurk/MX_fS_HTML.html#217,217,1920,1080,1920,1080,1-8-2024,16-47-59,15,VR_target_stimuli/s37_1.3x_3.3_555_BC.png,1000,1.3x,3.3,1.3,5271,1070,meters,jsons/MX_seq31_2_VE1000_flipped.json,317273,960146,18,Man
15,235661,final-intermixed-textured,v2,jsons/MX_seq31_2_VE1000_flipped.json,http://54.235.29.9/FacialAge/BNav_EC2/DepthDuration/MX_fS_VE_MTurk/MX_fS_HTML.html#217,217,1920,1080,1920,1080,1-8-2024,16-47-59,16,VR_target_stimuli/s46_1x_2.42_348_BC.png,1000,1x,2.42,3.3,5343,1000,meters,jsons/MX_seq31_2_VE1000_flipped.json,317273,960146,18,Man
16,235661,final-intermixed-textured,v2,jsons/MX_seq31_2_VE1000_flipped.json,http://54.235.29.9/FacialAge/BNav_EC2/DepthDuration/MX_fS_VE_MTurk/MX_fS_HTML.html#217,217,1920,1080,1920,1080,1-8-2024,16-47-59,17,catch_stimuli/c1_BC.png,1000,,,0.0,4239,1025,meters,jsons/MX_seq31_2_VE1000_flipped.json,317273,960146,18,Man
17,235661,final-intermixed-textured,v2,jsons/MX_seq31_2_VE1000_flipped.json,http://54.235.29.9/FacialAge/BNav_EC2/DepthDuration/MX_fS_VE_MTurk/MX_fS_HTML.html#217,217,1920,1080,1920,1080,1-8-2024,16-47-59,18,VR_target_stimuli/s22_1x_4.29_354.png,1000,1x,4.29,5.0,3675,999,meters,jsons/MX_seq31_2_VE1000_flipped.json,317273,960146,18,Man
18,235661,final-intermixed-textured,v2,jsons/MX_seq31_2_VE1000_flipped.json,http://54.235.29.9/FacialAge/BNav_EC2/DepthDuration/MX_fS_VE_MTurk/MX_fS_HTML.html#217,217,1920,1080,1920,1080,1-8-2024,16-47-59,19,VR_target_stimuli/s42_0.75x_3.2_301.png,1000,0.75x,3.2,5.5,4690,1046,meters,jsons/MX_seq31_2_VE1000_flipped.json,317273,960146,18,Man
19,235661,final-intermixed-textured,v2,jsons/MX_seq31_2_VE1000_flipped.json,http://54.235.29.9/FacialAge/BNav_EC2/DepthDuration/MX_fS_VE_MTurk/MX_fS_HTML.html#217,217,1920,1080,1920,1080,1-8-2024,16-47-59,20,VR_target_stimuli/s25_1.3x_1.4_299.png,1000,1.3x,1.4,1.0,5956,999,meters,jsons/MX_seq31_2_VE1000_flipped.json,317273,960146,18,Man
20,235661,final-intermixed-textured,v2,jsons/MX_seq31_2_VE1000_flipped.json,http://54.235.29.9/FacialAge/BNav_EC2/DepthDuration/MX_fS_VE_MTurk/MX_fS_HTML.html#217,217,1920,1080,1920,1080,1-8-2024,16-47-59,21,VR_target_stimuli/s50_0.75x_4.53_517.png,1000,0.75x,4.53,2.7,4617,1000,meters,jsons/MX_seq31_2_VE1000_flipped.json,317273,960146,18,Man
21,235661,final-intermixed-textured,v2,jsons/MX_seq31_2_VE1000_flipped.json,http://54.235.29.9/FacialAge/BNav_EC2/DepthDuration/MX_fS_VE_MTurk/MX_fS_HTML.html#217,217,1920,1080,1920,1080,1-8-2024,16-47-59,22,VR_target_stimuli/s53_1x_1.6_387_BC.png,1000,1x,1.6,1.0,3555,999,meters,jsons/MX_seq31_2_VE1000_flipped.json,317273,960146,18,Man
22,235661,final-intermixed-textured,v2,jsons/MX_seq31_2_VE1000_flipped.json,http://54.235.29.9/FacialAge/BNav_EC2/DepthDuration/MX_fS_VE_MTurk/MX_fS_HTML.html#217,217,1920,1080,1920,1080,1-8-2024,16-47-59,23,VR_target_stimuli/s38_1.3x_3.55_358_BC.png,1000,1.3x,3.55,5.0,5528,998,meters,jsons/MX_seq31_2_VE1000_flipped.json,317273,960146,18,Man
23,235661,final-intermixed-textured,v2,jsons/MX_seq31_2_VE1000_flipped.json,http://54.235.29.9/FacialAge/BNav_EC2/DepthDuration/MX_fS_VE_MTurk/MX_fS_HTML.html#217,217,1920,1080,1920,1080,1-8-2024,16-47-59,24,VR_target_stimuli/s9_1x_1.2_263.png,1000,1x,1.2,1.0,3339,999,meters,jsons/MX_seq31_2_VE1000_flipped.json,317273,960146,18,Man
24,235661,final-intermixed-textured,v2,jsons/MX_seq31_2_VE1000_flipped.json,http://54.235.29.9/FacialAge/BNav_EC2/DepthDuration/MX_fS_VE_MTurk/MX_fS_HTML.html#217,217,1920,1080,1920,1080,1-8-2024,16-47-59,25,VR_target_stimuli/s44_0.75x_4.4_314_BC.png,1000,0.75x,4.4,6.0,5502,1000,meters,jsons/MX_seq31_2_VE1000_flipped.json,317273,960146,18,Man
25,235661,final-intermixed-textured,v2,jsons/MX_seq31_2_VE1000_flipped.json,http://54.235.29.9/FacialAge/BNav_EC2/DepthDuration/MX_fS_VE_MTurk/MX_fS_HTML.html#217,217,1920,1080,1920,1080,1-8-2024,16-47-59,26,catch_stimuli/c2_BC.png,1000,,,0.0,5287,998,meters,jsons/MX_seq31_2_VE1000_flipped.json,317273,960146,18,Man
26,235661,final-intermixed-textured,v2,jsons/MX_seq31_2_VE1000_flipped.json,http://54.235.29.9/FacialAge/BNav_EC2/DepthDuration/MX_fS_VE_MTurk/MX_fS_HTML.html#217,217,1920,1080,1920,1080,1-8-2024,16-47-59,27,VR_target_stimuli/s3_1.3x_5_390.png,1000,1.3x,5.0,4.0,3110,999,meters,jsons/MX_seq31_2_VE1000_flipped.json,317273,960146,18,Man
27,235661,final-intermixed-textured,v2,jsons/MX_seq31_2_VE1000_flipped.json,http://54.235.29.9/FacialAge/BNav_EC2/DepthDuration/MX_fS_VE_MTurk/MX_fS_HTML.html#217,217,1920,1080,1920,1080,1-8-2024,16-47-59,28,VR_target_stimuli/s1_1.3x_1.7_261_BC.png,1000,1.3x,1.7,1.5,4403,999,meters,jsons/MX_seq31_2_VE1000_flipped.json,317273,960146,18,Man
28,235661,final-intermixed-textured,v2,jsons/MX_seq31_2_VE1000_flipped.json,http://54.235.29.9/FacialAge/BNav_EC2/DepthDuration/MX_fS_VE_MTurk/MX_fS_HTML.html#217,217,1920,1080,1920,1080,1-8-2024,16-47-59,29,VR_target_stimuli/s11_1x_5_361_BC.png,1000,1x,5.0,3.5,5816,1000,meters,jsons/MX_seq31_2_VE1000_flipped.json,317273,960146,18,Man
29,235661,final-intermixed-textured,v2,jsons/MX_seq31_2_VE1000_flipped.json,http://54.235.29.9/FacialAge/BNav_EC2/DepthDuration/MX_fS_VE_MTurk/MX_fS_HTML.html#217,217,1920,1080,1920,1080,1-8-2024,16-47-59,30,VR_target_stimuli/s2_0.75x_2.7_384.png,1000,0.75x,2.7,2.0,3501,1108,meters,jsons/MX_seq31_2_VE1000_flipped.json,317273,960146,18,Man
30,235661,final-intermixed-textured,v2,jsons/MX_seq31_2_VE1000_flipped.json,http://54.235.29.9/FacialAge/BNav_EC2/DepthDuration/MX_fS_VE_MTurk/MX_fS_HTML.html#217,217,1920,1080,1920,1080,1-8-2024,16-47-59,31,VR_target_stimuli/s6_1.3x_2.1_298.png,1000,1.3x,2.1,2.3,4499,1116,meters,jsons/MX_seq31_2_VE1000_flipped.json,317273,960146,18,Man
31,235661,final-intermixed-textured,v2,jsons/MX_seq31_2_VE1000_flipped.json,http://54.235.29.9/FacialAge/BNav_EC2/DepthDuration/MX_fS_VE_MTurk/MX_fS_HTML.html#217,217,1920,1080,1920,1080,1-8-2024,16-47-59,32,VR_target_stimuli/s0_0.75x_2.6_345_BC.png,1000,0.75x,2.6,2.5,4734,999,meters,jsons/MX_seq31_2_VE1000_flipped.json,317273,960146,18,Man
32,235661,final-intermixed-textured,v2,jsons/MX_seq31_2_VE1000_flipped.json,http://54.235.29.9/FacialAge/BNav_EC2/DepthDuration/MX_fS_VE_MTurk/MX_fS_HTML.html#217,217,1920,1080,1920,1080,1-8-2024,16-47-59,33,VR_target_stimuli/s34_1x_2.8_283.png,1000,1x,2.8,3.5,4807,998,meters,jsons/MX_seq31_2_VE1000_flipped.json,317273,960146,18,Man
33,235661,final-intermixed-textured,v2,jsons/MX_seq31_2_VE1000_flipped.json,http://54.235.29.9/FacialAge/BNav_EC2/DepthDuration/MX_fS_VE_MTurk/MX_fS_HTML.html#217,217,1920,1080,1920,1080,1-8-2024,16-47-59,34,catch_stimuli/c3_BC.png,1000,,,0.0,3657,1097,meters,jsons/MX_seq31_2_VE1000_flipped.json,317273,960146,18,Man
34,235661,final-intermixed-textured,v2,jsons/MX_seq31_2_VE1000_flipped.json,http://54.235.29.9/FacialAge/BNav_EC2/DepthDuration/MX_fS_VE_MTurk/MX_fS_HTML.html#217,217,1920,1080,1920,1080,1-8-2024,16-47-59,35,VR_target_stimuli/s13_0.75x_2.4_308.png,1000,0.75x,2.4,3.2,4959,999,meters,jsons/MX_seq31_2_VE1000_flipped.json,317273,960146,18,Man
35,235661,final-intermixed-textured,v2,jsons/MX_seq31_2_VE1000_flipped.json,http://54.235.29.9/FacialAge/BNav_EC2/DepthDuration/MX_fS_VE_MTurk/MX_fS_HTML.html#217,217,1920,1080,1920,1080,1-8-2024,16-47-59,36,VR_target_stimuli/s14_1.3x_3.83_359.png,1000,1.3x,3.83,3.0,4419,1002,meters,jsons/MX_seq31_2_VE1000_flipped.json,317273,960146,18,Man
36,235661,final-intermixed-textured,v2,jsons/MX_seq31_2_VE1000_flipped.json,http://54.235.29.9/FacialAge/BNav_EC2/DepthDuration/MX_fS_VE_MTurk/MX_fS_HTML.html#217,217,1920,1080,1920,1080,1-8-2024,16-47-59,37,VR_target_stimuli/s47_1x_3.45_370_BC.png,1000,1x,3.45,4.2,5540,1069,meters,jsons/MX_seq31_2_VE1000_flipped.json,317273,960146,18,Man
37,235661,final-intermixed-textured,v2,jsons/MX_seq31_2_VE1000_flipped.json,http://54.235.29.9/FacialAge/BNav_EC2/DepthDuration/MX_fS_VE_MTurk/MX_fS_HTML.html#217,217,1920,1080,1920,1080,1-8-2024,16-47-59,38,VR_target_stimuli/s29_1x_1.3_250.png,1000,1x,1.3,1.5,4569,969,meters,jsons/MX_seq31_2_VE1000_flipped.json,317273,960146,18,Man
38,235661,final-intermixed-textured,v2,jsons/MX_seq31_2_VE1000_flipped.json,http://54.235.29.9/FacialAge/BNav_EC2/DepthDuration/MX_fS_VE_MTurk/MX_fS_HTML.html#217,217,1920,1080,1920,1080,1-8-2024,16-47-59,39,VR_target_stimuli/s28_0.75x_3.2_357_BC.png,1000,0.75x,3.2,4.0,3195,999,meters,jsons/MX_seq31_2_VE1000_flipped.json,317273,960146,18,Man
39,235661,final-intermixed-textured,v2,jsons/MX_seq31_2_VE1000_flipped.json,http://54.235.29.9/FacialAge/BNav_EC2/DepthDuration/MX_fS_VE_MTurk/MX_fS_HTML.html#217,217,1920,1080,1920,1080,1-8-2024,16-47-59,40,VR_target_stimuli/s48_1.3x_2.55_255_BC.png,1000,1.3x,2.55,2.5,4694,998,meters,jsons/MX_seq31_2_VE1000_flipped.json,317273,960146,18,Man
40,235661,final-intermixed-textured,v2,jsons/MX_seq31_2_VE1000_flipped.json,http://54.235.29.9/FacialAge/BNav_EC2/DepthDuration/MX_fS_VE_MTurk/MX_fS_HTML.html#217,217,1920,1080,1920,1080,1-8-2024,16-47-59,41,VR_target_stimuli/s19_0.75x_1.21_257_BC.png,1000,0.75x,1.21,1.5,4915,999,meters,jsons/MX_seq31_2_VE1000_flipped.json,317273,960146,18,Man
41,235661,final-intermixed-textured,v2,jsons/MX_seq31_2_VE1000_flipped.json,http://54.235.29.9/FacialAge/BNav_EC2/DepthDuration/MX_fS_VE_MTurk/MX_fS_HTML.html#217,217,1920,1080,1920,1080,1-8-2024,16-47-59,42,VR_target_stimuli/s21_1x_4.22_379.png,1000,1x,4.22,6.5,5086,1000,meters,jsons/MX_seq31_2_VE1000_flipped.json,317273,960146,18,Man
42,235661,final-intermixed-textured,v2,jsons/MX_seq31_2_VE1000_flipped.json,http://54.235.29.9/FacialAge/BNav_EC2/DepthDuration/MX_fS_VE_MTurk/MX_fS_HTML.html#217,217,1920,1080,1920,1080,1-8-2024,16-47-59,43,VR_target_stimuli/s8_1.3x_3.1_345.png,1000,1.3x,3.1,3.0,3748,1044,meters,jsons/MX_seq31_2_VE1000_flipped.json,317273,960146,18,Man
43,235661,final-intermixed-textured,v2,jsons/MX_seq31_2_VE1000_flipped.json,http://54.235.29.9/FacialAge/BNav_EC2/DepthDuration/MX_fS_VE_MTurk/MX_fS_HTML.html#217,217,1920,1080,1920,1080,1-8-2024,16-47-59,44,VR_target_stimuli/s27_1x_1.76_248_BC.png,1000,1x,1.76,2.6,5595,1002,meters,jsons/MX_seq31_2_VE1000_flipped.json,317273,960146,18,Man
44,235661,final-intermixed-textured,v2,jsons/MX_seq31_2_VE1000_flipped.json,http://54.235.29.9/FacialAge/BNav_EC2/DepthDuration/MX_fS_VE_MTurk/MX_fS_HTML.html#217,217,1920,1080,1920,1080,1-8-2024,16-47-59,45,catch_stimuli/c4_BC.png,1000,,,0.0,4134,998,meters,jsons/MX_seq31_2_VE1000_flipped.json,317273,960146,18,Man
45,235661,final-intermixed-textured,v2,jsons/MX_seq31_2_VE1000_flipped.json,http://54.235.29.9/FacialAge/BNav_EC2/DepthDuration/MX_fS_VE_MTurk/MX_fS_HTML.html#217,217,1920,1080,1920,1080,1-8-2024,16-47-59,46,VR_target_stimuli/s15_0.75x_4.2_388.png,1000,0.75x,4.2,4.5,4693,998,meters,jsons/MX_seq31_2_VE1000_flipped.json,317273,960146,18,Man
46,235661,final-intermixed-textured,v2,jsons/MX_seq31_2_VE1000_flipped.json,http://54.235.29.9/FacialAge/BNav_EC2/DepthDuration/MX_fS_VE_MTurk/MX_fS_HTML.html#217,217,1920,1080,1920,1080,1-8-2024,16-47-59,47,VR_target_stimuli/s4_1.3x_1.4_328_BC.png,1000,1.3x,1.4,2.5,4831,1092,meters,jsons/MX_seq31_2_VE1000_flipped.json,317273,960146,18,Man
47,235661,final-intermixed-textured,v2,jsons/MX_seq31_2_VE1000_flipped.json,http://54.235.29.9/FacialAge/BNav_EC2/DepthDuration/MX_fS_VE_MTurk/MX_fS_HTML.html#217,217,1920,1080,1920,1080,1-8-2024,16-47-59,48,VR_target_stimuli/s35_1.3x_2_338.png,1000,1.3x,2.0,2.7,5116,999,meters,jsons/MX_seq31_2_VE1000_flipped.json,317273,960146,18,Man
48,235661,final-intermixed-textured,v2,jsons/MX_seq31_2_VE1000_flipped.json,http://54.235.29.9/FacialAge/BNav_EC2/DepthDuration/MX_fS_VE_MTurk/MX_fS_HTML.html#217,217,1920,1080,1920,1080,1-8-2024,16-47-59,49,VR_target_stimuli/s49_1x_4.67_341.png,1000,1x,4.67,4.3,5346,999,meters,jsons/MX_seq31_2_VE1000_flipped.json,317273,960146,18,Man
49,235661,final-intermixed-textured,v2,jsons/MX_seq31_2_VE1000_flipped.json,http://54.235.29.9/FacialAge/BNav_EC2/DepthDuration/MX_fS_VE_MTurk/MX_fS_HTML.html#217,217,1920,1080,1920,1080,1-8-2024,16-47-59,50,VR_target_stimuli/s7_0.75x_1.5_253.png,1000,0.75x,1.5,2.0,3330,1114,meters,jsons/MX_seq31_2_VE1000_flipped.json,317273,960146,18,Man
50,235661,final-intermixed-textured,v2,jsons/MX_seq31_2_VE1000_flipped.json,http://54.235.29.9/FacialAge/BNav_EC2/DepthDuration/MX_fS_VE_MTurk/MX_fS_HTML.html#217,217,1920,1080,1920,1080,1-8-2024,16-47-59,51,VR_target_stimuli/s20_1x_4.99_398_BC.png,1000,1x,4.99,6.0,4159,999,meters,jsons/MX_seq31_2_VE1000_flipped.json,317273,960146,18,Man
51,235661,final-intermixed-textured,v2,jsons/MX_seq31_2_VE1000_flipped.json,http://54.235.29.9/FacialAge/BNav_EC2/DepthDuration/MX_fS_VE_MTurk/MX_fS_HTML.html#217,217,1920,1080,1920,1080,1-8-2024,16-47-59,52,VR_target_stimuli/s31_1.3x_4.96_342_BC.png,1000,1.3x,4.96,2.5,6483,999,meters,jsons/MX_seq31_2_VE1000_flipped.json,317273,960146,18,Man
52,235661,final-intermixed-textured,v2,jsons/MX_seq31_2_VE1000_flipped.json,http://54.235.29.9/FacialAge/BNav_EC2/DepthDuration/MX_fS_VE_MTurk/MX_fS_HTML.html#217,217,1920,1080,1920,1080,1-8-2024,16-47-59,53,catch_stimuli/c5_BC.png,1000,,,0.0,3308,1017,meters,jsons/MX_seq31_2_VE1000_flipped.json,317273,960146,18,Man
53,235661,final-intermixed-textured,v2,jsons/MX_seq31_2_VE1000_flipped.json,http://54.235.29.9/FacialAge/BNav_EC2/DepthDuration/MX_fS_VE_MTurk/MX_fS_HTML.html#217,217,1920,1080,1920,1080,1-8-2024,16-47-59,54,VR_target_stimuli/s33_0.75x_3.1_361_BC.png,1000,0.75x,3.1,4.0,2997,998,meters,jsons/MX_seq31_2_VE1000_flipped.json,317273,960146,18,Man
54,235661,final-intermixed-textured,v2,jsons/MX_seq31_2_VE1000_flipped.json,http://54.235.29.9/FacialAge/BNav_EC2/DepthDuration/MX_fS_VE_MTurk/MX_fS_HTML.html#217,217,1920,1080,1920,1080,1-8-2024,16-47-59,55,VR_target_stimuli/s52_1.3x_3.2_280_BC.png,1000,1.3x,3.2,4.5,5168,999,meters,jsons/MX_seq31_2_VE1000_flipped.json,317273,960146,18,Man
55,235661,final-intermixed-textured,v2,jsons/MX_seq31_2_VE1000_flipped.json,http://54.235.29.9/FacialAge/BNav_EC2/DepthDuration/MX_fS_VE_MTurk/MX_fS_HTML.html#217,217,1920,1080,1920,1080,1-8-2024,16-47-59,56,VR_target_stimuli/s32_1x_1.5_218.png,1000,1x,1.5,3.0,3878,999,meters,jsons/MX_seq31_2_VE1000_flipped.json,317273,960146,18,Man
56,235661,final-intermixed-textured,v2,jsons/MX_seq31_2_VE1000_flipped.json,http://54.235.29.9/FacialAge/BNav_EC2/DepthDuration/MX_fS_VE_MTurk/MX_fS_HTML.html#217,217,1920,1080,1920,1080,1-8-2024,16-47-59,57,VR_target_stimuli/s18_0.75x_2.25_341_BC.png,1000,0.75x,2.25,2.7,5136,1000,meters,jsons/MX_seq31_2_VE1000_flipped.json,317273,960146,18,Man
57,235661,final-intermixed-textured,v2,jsons/MX_seq31_2_VE1000_flipped.json,http://54.235.29.9/FacialAge/BNav_EC2/DepthDuration/MX_fS_VE_MTurk/MX_fS_HTML.html#217,217,1920,1080,1920,1080,1-8-2024,16-47-59,58,VR_target_stimuli/s39_0.75x_1_205.png,1000,0.75x,1.0,1.5,4998,1085,meters,jsons/MX_seq31_2_VE1000_flipped.json,317273,960146,18,Man
58,235661,final-intermixed-textured,v2,jsons/MX_seq31_2_VE1000_flipped.json,http://54.235.29.9/FacialAge/BNav_EC2/DepthDuration/MX_fS_VE_MTurk/MX_fS_HTML.html#217,217,1920,1080,1920,1080,1-8-2024,16-47-59,59,VR_target_stimuli/s51_1.3x_3.64_479.png,1000,1.3x,3.64,2.4,5987,998,meters,jsons/MX_seq31_2_VE1000_flipped.json,317273,960146,18,Man
59,235661,final-intermixed-textured,v2,jsons/MX_seq31_2_VE1000_flipped.json,http://54.235.29.9/FacialAge/BNav_EC2/DepthDuration/MX_fS_VE_MTurk/MX_fS_HTML.html#217,217,1920,1080,1920,1080,1-8-2024,16-47-59,60,VR_target_stimuli/s43_1x_2.2_354_BC.png,1000,1x,2.2,2.5,5104,998,meters,jsons/MX_seq31_2_VE1000_flipped.json,317273,960146,18,Man
