,subjID,experimentName,versionName,sequenceName,url,selected_row,windowWidth,windowHeight,screenWidth,screenHeight,startDate,startTime,trial,stimulus,duration,scale,actual_depth,depth_estimate,trial_RT,log_sceneDuration,unitSelection,seq_filepath,experimentTime,totalTime,age,gender
0,241685,final-intermixed-textured,v2,jsons/MX_seq44_0_VE1000.json,http://54.235.29.9/FacialAge/BNav_EC2/DepthDuration/MX_fS_VE_MTurk/MX_fS_HTML.html#130,130,1904,883,1920,1080,1-8-2024,7-56-24,1,VR_target_stimuli/s37_0.75x_3.3_567_BC.png,1000,0.75x,3.3,10,4884,1003,feet,jsons/MX_seq44_0_VE1000.json,270720,436157,32,Woman
1,241685,final-intermixed-textured,v2,jsons/MX_seq44_0_VE1000.json,http://54.235.29.9/FacialAge/BNav_EC2/DepthDuration/MX_fS_VE_MTurk/MX_fS_HTML.html#130,130,1904,883,1920,1080,1-8-2024,7-56-24,2,VR_target_stimuli/s46_1x_2.42_348.png,1000,1x,2.42,10,4297,1005,feet,jsons/MX_seq44_0_VE1000.json,270720,436157,32,Woman
2,241685,final-intermixed-textured,v2,jsons/MX_seq44_0_VE1000.json,http://54.235.29.9/FacialAge/BNav_EC2/DepthDuration/MX_fS_VE_MTurk/MX_fS_HTML.html#130,130,1904,883,1920,1080,1-8-2024,7-56-24,3,VR_target_stimuli/s22_1.3x_4.29_364.png,1000,1.3x,4.29,13,4613,998,feet,jsons/MX_seq44_0_VE1000.json,270720,436157,32,Woman
3,241685,final-intermixed-textured,v2,jsons/MX_seq44_0_VE1000.json,http://54.235.29.9/FacialAge/BNav_EC2/DepthDuration/MX_fS_VE_MTurk/MX_fS_HTML.html#130,130,1904,883,1920,1080,1-8-2024,7-56-24,4,VR_target_stimuli/s42_1x_3.2_303_BC.png,1000,1x,3.2,12,4541,1000,feet,jsons/MX_seq44_0_VE1000.json,270720,436157,32,Woman
4,241685,final-intermixed-textured,v2,jsons/MX_seq44_0_VE1000.json,http://54.235.29.9/FacialAge/BNav_EC2/DepthDuration/MX_fS_VE_MTurk/MX_fS_HTML.html#130,130,1904,883,1920,1080,1-8-2024,7-56-24,5,VR_target_stimuli/s25_0.75x_1.4_281.png,1000,0.75x,1.4,6,4048,1003,feet,jsons/MX_seq44_0_VE1000.json,270720,436157,32,Woman
5,241685,final-intermixed-textured,v2,jsons/MX_seq44_0_VE1000.json,http://54.235.29.9/FacialAge/BNav_EC2/DepthDuration/MX_fS_VE_MTurk/MX_fS_HTML.html#130,130,1904,883,1920,1080,1-8-2024,7-56-24,6,VR_target_stimuli/s50_1.3x_4.53_518_BC.png,1000,1.3x,4.53,6,4515,1000,feet,jsons/MX_seq44_0_VE1000.json,270720,436157,32,Woman
6,241685,final-intermixed-textured,v2,jsons/MX_seq44_0_VE1000.json,http://54.235.29.9/FacialAge/BNav_EC2/DepthDuration/MX_fS_VE_MTurk/MX_fS_HTML.html#130,130,1904,883,1920,1080,1-8-2024,7-56-24,7,catch_stimuli/c0.png,1000,,,0,4178,998,feet,jsons/MX_seq44_0_VE1000.json,270720,436157,32,Woman
7,241685,final-intermixed-textured,v2,jsons/MX_seq44_0_VE1000.json,http://54.235.29.9/FacialAge/BNav_EC2/DepthDuration/MX_fS_VE_MTurk/MX_fS_HTML.html#130,130,1904,883,1920,1080,1-8-2024,7-56-24,8,VR_target_stimuli/s53_1.3x_1.6_355.png,1000,1.3x,1.6,4,3967,1003,feet,jsons/MX_seq44_0_VE1000.json,270720,436157,32,Woman
8,241685,final-intermixed-textured,v2,jsons/MX_seq44_0_VE1000.json,http://54.235.29.9/FacialAge/BNav_EC2/DepthDuration/MX_fS_VE_MTurk/MX_fS_HTML.html#130,130,1904,883,1920,1080,1-8-2024,7-56-24,9,VR_target_stimuli/s38_1x_3.55_353.png,1000,1x,3.55,15,4413,1001,feet,jsons/MX_seq44_0_VE1000.json,270720,436157,32,Woman
9,241685,final-intermixed-textured,v2,jsons/MX_seq44_0_VE1000.json,http://54.235.29.9/FacialAge/BNav_EC2/DepthDuration/MX_fS_VE_MTurk/MX_fS_HTML.html#130,130,1904,883,1920,1080,1-8-2024,7-56-24,10,VR_target_stimuli/s9_0.75x_1.2_260_BC.png,1000,0.75x,1.2,6,4678,1002,feet,jsons/MX_seq44_0_VE1000.json,270720,436157,32,Woman
10,241685,final-intermixed-textured,v2,jsons/MX_seq44_0_VE1000.json,http://54.235.29.9/FacialAge/BNav_EC2/DepthDuration/MX_fS_VE_MTurk/MX_fS_HTML.html#130,130,1904,883,1920,1080,1-8-2024,7-56-24,11,VR_target_stimuli/s44_1x_4.4_317_BC.png,1000,1x,4.4,15,4414,1001,feet,jsons/MX_seq44_0_VE1000.json,270720,436157,32,Woman
11,241685,final-intermixed-textured,v2,jsons/MX_seq44_0_VE1000.json,http://54.235.29.9/FacialAge/BNav_EC2/DepthDuration/MX_fS_VE_MTurk/MX_fS_HTML.html#130,130,1904,883,1920,1080,1-8-2024,7-56-24,12,VR_target_stimuli/s3_1.3x_5_390_BC.png,1000,1.3x,5.0,13,4580,995,feet,jsons/MX_seq44_0_VE1000.json,270720,436157,32,Woman
12,241685,final-intermixed-textured,v2,jsons/MX_seq44_0_VE1000.json,http://54.235.29.9/FacialAge/BNav_EC2/DepthDuration/MX_fS_VE_MTurk/MX_fS_HTML.html#130,130,1904,883,1920,1080,1-8-2024,7-56-24,13,VR_target_stimuli/s1_0.75x_1.7_265.png,1000,0.75x,1.7,6,4159,997,feet,jsons/MX_seq44_0_VE1000.json,270720,436157,32,Woman
13,241685,final-intermixed-textured,v2,jsons/MX_seq44_0_VE1000.json,http://54.235.29.9/FacialAge/BNav_EC2/DepthDuration/MX_fS_VE_MTurk/MX_fS_HTML.html#130,130,1904,883,1920,1080,1-8-2024,7-56-24,14,VR_target_stimuli/s11_1.3x_5_363.png,1000,1.3x,5.0,12,3347,1002,feet,jsons/MX_seq44_0_VE1000.json,270720,436157,32,Woman
14,241685,final-intermixed-textured,v2,jsons/MX_seq44_0_VE1000.json,http://54.235.29.9/FacialAge/BNav_EC2/DepthDuration/MX_fS_VE_MTurk/MX_fS_HTML.html#130,130,1904,883,1920,1080,1-8-2024,7-56-24,15,VR_target_stimuli/s2_1x_2.7_390_BC.png,1000,1x,2.7,6,4579,1001,feet,jsons/MX_seq44_0_VE1000.json,270720,436157,32,Woman
15,241685,final-intermixed-textured,v2,jsons/MX_seq44_0_VE1000.json,http://54.235.29.9/FacialAge/BNav_EC2/DepthDuration/MX_fS_VE_MTurk/MX_fS_HTML.html#130,130,1904,883,1920,1080,1-8-2024,7-56-24,16,VR_target_stimuli/s6_0.75x_2.1_290.png,1000,0.75x,2.1,8,3779,1002,feet,jsons/MX_seq44_0_VE1000.json,270720,436157,32,Woman
16,241685,final-intermixed-textured,v2,jsons/MX_seq44_0_VE1000.json,http://54.235.29.9/FacialAge/BNav_EC2/DepthDuration/MX_fS_VE_MTurk/MX_fS_HTML.html#130,130,1904,883,1920,1080,1-8-2024,7-56-24,17,catch_stimuli/c1.png,1000,,,0,3712,996,feet,jsons/MX_seq44_0_VE1000.json,270720,436157,32,Woman
17,241685,final-intermixed-textured,v2,jsons/MX_seq44_0_VE1000.json,http://54.235.29.9/FacialAge/BNav_EC2/DepthDuration/MX_fS_VE_MTurk/MX_fS_HTML.html#130,130,1904,883,1920,1080,1-8-2024,7-56-24,18,VR_target_stimuli/s0_0.75x_2.6_345_BC.png,1000,0.75x,2.6,6,4500,1002,feet,jsons/MX_seq44_0_VE1000.json,270720,436157,32,Woman
18,241685,final-intermixed-textured,v2,jsons/MX_seq44_0_VE1000.json,http://54.235.29.9/FacialAge/BNav_EC2/DepthDuration/MX_fS_VE_MTurk/MX_fS_HTML.html#130,130,1904,883,1920,1080,1-8-2024,7-56-24,19,VR_target_stimuli/s34_1.3x_2.8_294_BC.png,1000,1.3x,2.8,8,4029,1003,feet,jsons/MX_seq44_0_VE1000.json,270720,436157,32,Woman
19,241685,final-intermixed-textured,v2,jsons/MX_seq44_0_VE1000.json,http://54.235.29.9/FacialAge/BNav_EC2/DepthDuration/MX_fS_VE_MTurk/MX_fS_HTML.html#130,130,1904,883,1920,1080,1-8-2024,7-56-24,20,VR_target_stimuli/s13_1x_2.4_310.png,1000,1x,2.4,9,3981,1003,feet,jsons/MX_seq44_0_VE1000.json,270720,436157,32,Woman
20,241685,final-intermixed-textured,v2,jsons/MX_seq44_0_VE1000.json,http://54.235.29.9/FacialAge/BNav_EC2/DepthDuration/MX_fS_VE_MTurk/MX_fS_HTML.html#130,130,1904,883,1920,1080,1-8-2024,7-56-24,21,VR_target_stimuli/s14_1.3x_3.83_359_BC.png,1000,1.3x,3.83,7,3817,1004,feet,jsons/MX_seq44_0_VE1000.json,270720,436157,32,Woman
21,241685,final-intermixed-textured,v2,jsons/MX_seq44_0_VE1000.json,http://54.235.29.9/FacialAge/BNav_EC2/DepthDuration/MX_fS_VE_MTurk/MX_fS_HTML.html#130,130,1904,883,1920,1080,1-8-2024,7-56-24,22,VR_target_stimuli/s47_0.75x_3.45_366.png,1000,0.75x,3.45,8,4344,1000,feet,jsons/MX_seq44_0_VE1000.json,270720,436157,32,Woman
22,241685,final-intermixed-textured,v2,jsons/MX_seq44_0_VE1000.json,http://54.235.29.9/FacialAge/BNav_EC2/DepthDuration/MX_fS_VE_MTurk/MX_fS_HTML.html#130,130,1904,883,1920,1080,1-8-2024,7-56-24,23,VR_target_stimuli/s29_1x_1.3_250.png,1000,1x,1.3,5,3646,997,feet,jsons/MX_seq44_0_VE1000.json,270720,436157,32,Woman
23,241685,final-intermixed-textured,v2,jsons/MX_seq44_0_VE1000.json,http://54.235.29.9/FacialAge/BNav_EC2/DepthDuration/MX_fS_VE_MTurk/MX_fS_HTML.html#130,130,1904,883,1920,1080,1-8-2024,7-56-24,24,VR_target_stimuli/s28_0.75x_3.2_357_BC.png,1000,0.75x,3.2,8,3480,1001,feet,jsons/MX_seq44_0_VE1000.json,270720,436157,32,Woman
24,241685,final-intermixed-textured,v2,jsons/MX_seq44_0_VE1000.json,http://54.235.29.9/FacialAge/BNav_EC2/DepthDuration/MX_fS_VE_MTurk/MX_fS_HTML.html#130,130,1904,883,1920,1080,1-8-2024,7-56-24,25,VR_target_stimuli/s48_1.3x_2.55_255.png,1000,1.3x,2.55,6,3681,1004,feet,jsons/MX_seq44_0_VE1000.json,270720,436157,32,Woman
25,241685,final-intermixed-textured,v2,jsons/MX_seq44_0_VE1000.json,http://54.235.29.9/FacialAge/BNav_EC2/DepthDuration/MX_fS_VE_MTurk/MX_fS_HTML.html#130,130,1904,883,1920,1080,1-8-2024,7-56-24,26,catch_stimuli/c2.png,1000,,,0,3616,1000,feet,jsons/MX_seq44_0_VE1000.json,270720,436157,32,Woman
26,241685,final-intermixed-textured,v2,jsons/MX_seq44_0_VE1000.json,http://54.235.29.9/FacialAge/BNav_EC2/DepthDuration/MX_fS_VE_MTurk/MX_fS_HTML.html#130,130,1904,883,1920,1080,1-8-2024,7-56-24,27,VR_target_stimuli/s19_1x_1.21_263_BC.png,1000,1x,1.21,4,3515,995,feet,jsons/MX_seq44_0_VE1000.json,270720,436157,32,Woman
27,241685,final-intermixed-textured,v2,jsons/MX_seq44_0_VE1000.json,http://54.235.29.9/FacialAge/BNav_EC2/DepthDuration/MX_fS_VE_MTurk/MX_fS_HTML.html#130,130,1904,883,1920,1080,1-8-2024,7-56-24,28,VR_target_stimuli/s21_1x_4.22_379_BC.png,1000,1x,4.22,3,6637,999,feet,jsons/MX_seq44_0_VE1000.json,270720,436157,32,Woman
28,241685,final-intermixed-textured,v2,jsons/MX_seq44_0_VE1000.json,http://54.235.29.9/FacialAge/BNav_EC2/DepthDuration/MX_fS_VE_MTurk/MX_fS_HTML.html#130,130,1904,883,1920,1080,1-8-2024,7-56-24,29,VR_target_stimuli/s8_0.75x_3.1_325_BC.png,1000,0.75x,3.1,6,4114,1003,feet,jsons/MX_seq44_0_VE1000.json,270720,436157,32,Woman
29,241685,final-intermixed-textured,v2,jsons/MX_seq44_0_VE1000.json,http://54.235.29.9/FacialAge/BNav_EC2/DepthDuration/MX_fS_VE_MTurk/MX_fS_HTML.html#130,130,1904,883,1920,1080,1-8-2024,7-56-24,30,VR_target_stimuli/s27_1.3x_1.76_250_BC.png,1000,1.3x,1.76,4,3480,1001,feet,jsons/MX_seq44_0_VE1000.json,270720,436157,32,Woman
30,241685,final-intermixed-textured,v2,jsons/MX_seq44_0_VE1000.json,http://54.235.29.9/FacialAge/BNav_EC2/DepthDuration/MX_fS_VE_MTurk/MX_fS_HTML.html#130,130,1904,883,1920,1080,1-8-2024,7-56-24,31,VR_target_stimuli/s15_1x_4.2_390.png,1000,1x,4.2,8,3879,999,feet,jsons/MX_seq44_0_VE1000.json,270720,436157,32,Woman
31,241685,final-intermixed-textured,v2,jsons/MX_seq44_0_VE1000.json,http://54.235.29.9/FacialAge/BNav_EC2/DepthDuration/MX_fS_VE_MTurk/MX_fS_HTML.html#130,130,1904,883,1920,1080,1-8-2024,7-56-24,32,VR_target_stimuli/s4_1.3x_1.4_328.png,1000,1.3x,1.4,3,3514,1003,feet,jsons/MX_seq44_0_VE1000.json,270720,436157,32,Woman
32,241685,final-intermixed-textured,v2,jsons/MX_seq44_0_VE1000.json,http://54.235.29.9/FacialAge/BNav_EC2/DepthDuration/MX_fS_VE_MTurk/MX_fS_HTML.html#130,130,1904,883,1920,1080,1-8-2024,7-56-24,33,VR_target_stimuli/s35_0.75x_2_323.png,1000,0.75x,2.0,6,3449,1004,feet,jsons/MX_seq44_0_VE1000.json,270720,436157,32,Woman
33,241685,final-intermixed-textured,v2,jsons/MX_seq44_0_VE1000.json,http://54.235.29.9/FacialAge/BNav_EC2/DepthDuration/MX_fS_VE_MTurk/MX_fS_HTML.html#130,130,1904,883,1920,1080,1-8-2024,7-56-24,34,catch_stimuli/c3.png,1000,,,0,3665,1004,feet,jsons/MX_seq44_0_VE1000.json,270720,436157,32,Woman
34,241685,final-intermixed-textured,v2,jsons/MX_seq44_0_VE1000.json,http://54.235.29.9/FacialAge/BNav_EC2/DepthDuration/MX_fS_VE_MTurk/MX_fS_HTML.html#130,130,1904,883,1920,1080,1-8-2024,7-56-24,35,VR_target_stimuli/s49_1.3x_4.67_354.png,1000,1.3x,4.67,10,3912,1001,feet,jsons/MX_seq44_0_VE1000.json,270720,436157,32,Woman
35,241685,final-intermixed-textured,v2,jsons/MX_seq44_0_VE1000.json,http://54.235.29.9/FacialAge/BNav_EC2/DepthDuration/MX_fS_VE_MTurk/MX_fS_HTML.html#130,130,1904,883,1920,1080,1-8-2024,7-56-24,36,VR_target_stimuli/s7_1x_1.5_255.png,1000,1x,1.5,5,3816,1002,feet,jsons/MX_seq44_0_VE1000.json,270720,436157,32,Woman
36,241685,final-intermixed-textured,v2,jsons/MX_seq44_0_VE1000.json,http://54.235.29.9/FacialAge/BNav_EC2/DepthDuration/MX_fS_VE_MTurk/MX_fS_HTML.html#130,130,1904,883,1920,1080,1-8-2024,7-56-24,37,VR_target_stimuli/s20_0.75x_4.99_390_BC.png,1000,0.75x,4.99,10,4211,1001,feet,jsons/MX_seq44_0_VE1000.json,270720,436157,32,Woman
37,241685,final-intermixed-textured,v2,jsons/MX_seq44_0_VE1000.json,http://54.235.29.9/FacialAge/BNav_EC2/DepthDuration/MX_fS_VE_MTurk/MX_fS_HTML.html#130,130,1904,883,1920,1080,1-8-2024,7-56-24,38,VR_target_stimuli/s31_0.75x_4.96_329.png,1000,0.75x,4.96,12,4635,1002,feet,jsons/MX_seq44_0_VE1000.json,270720,436157,32,Woman
38,241685,final-intermixed-textured,v2,jsons/MX_seq44_0_VE1000.json,http://54.235.29.9/FacialAge/BNav_EC2/DepthDuration/MX_fS_VE_MTurk/MX_fS_HTML.html#130,130,1904,883,1920,1080,1-8-2024,7-56-24,39,VR_target_stimuli/s33_1.3x_3.1_378_BC.png,1000,1.3x,3.1,8,4142,1002,feet,jsons/MX_seq44_0_VE1000.json,270720,436157,32,Woman
39,241685,final-intermixed-textured,v2,jsons/MX_seq44_0_VE1000.json,http://54.235.29.9/FacialAge/BNav_EC2/DepthDuration/MX_fS_VE_MTurk/MX_fS_HTML.html#130,130,1904,883,1920,1080,1-8-2024,7-56-24,40,VR_target_stimuli/s52_1x_3.2_275_BC.png,1000,1x,3.2,7,4382,1001,feet,jsons/MX_seq44_0_VE1000.json,270720,436157,32,Woman
40,241685,final-intermixed-textured,v2,jsons/MX_seq44_0_VE1000.json,http://54.235.29.9/FacialAge/BNav_EC2/DepthDuration/MX_fS_VE_MTurk/MX_fS_HTML.html#130,130,1904,883,1920,1080,1-8-2024,7-56-24,41,VR_target_stimuli/s32_1.3x_1.5_224_BC.png,1000,1.3x,1.5,4,3862,995,feet,jsons/MX_seq44_0_VE1000.json,270720,436157,32,Woman
41,241685,final-intermixed-textured,v2,jsons/MX_seq44_0_VE1000.json,http://54.235.29.9/FacialAge/BNav_EC2/DepthDuration/MX_fS_VE_MTurk/MX_fS_HTML.html#130,130,1904,883,1920,1080,1-8-2024,7-56-24,42,VR_target_stimuli/s18_0.75x_2.25_341_BC.png,1000,0.75x,2.25,4,4034,1005,feet,jsons/MX_seq44_0_VE1000.json,270720,436157,32,Woman
42,241685,final-intermixed-textured,v2,jsons/MX_seq44_0_VE1000.json,http://54.235.29.9/FacialAge/BNav_EC2/DepthDuration/MX_fS_VE_MTurk/MX_fS_HTML.html#130,130,1904,883,1920,1080,1-8-2024,7-56-24,43,VR_target_stimuli/s39_1x_1_207.png,1000,1x,1.0,3,3159,1002,feet,jsons/MX_seq44_0_VE1000.json,270720,436157,32,Woman
43,241685,final-intermixed-textured,v2,jsons/MX_seq44_0_VE1000.json,http://54.235.29.9/FacialAge/BNav_EC2/DepthDuration/MX_fS_VE_MTurk/MX_fS_HTML.html#130,130,1904,883,1920,1080,1-8-2024,7-56-24,44,VR_target_stimuli/s51_0.75x_3.64_460.png,1000,0.75x,3.64,6,3581,999,feet,jsons/MX_seq44_0_VE1000.json,270720,436157,32,Woman
44,241685,final-intermixed-textured,v2,jsons/MX_seq44_0_VE1000.json,http://54.235.29.9/FacialAge/BNav_EC2/DepthDuration/MX_fS_VE_MTurk/MX_fS_HTML.html#130,130,1904,883,1920,1080,1-8-2024,7-56-24,45,catch_stimuli/c4.png,1000,,,0,3695,1000,feet,jsons/MX_seq44_0_VE1000.json,270720,436157,32,Woman
45,241685,final-intermixed-textured,v2,jsons/MX_seq44_0_VE1000.json,http://54.235.29.9/FacialAge/BNav_EC2/DepthDuration/MX_fS_VE_MTurk/MX_fS_HTML.html#130,130,1904,883,1920,1080,1-8-2024,7-56-24,46,VR_target_stimuli/s43_1.3x_2.2_363.png,1000,1.3x,2.2,6,4845,998,feet,jsons/MX_seq44_0_VE1000.json,270720,436157,32,Woman
46,241685,final-intermixed-textured,v2,jsons/MX_seq44_0_VE1000.json,http://54.235.29.9/FacialAge/BNav_EC2/DepthDuration/MX_fS_VE_MTurk/MX_fS_HTML.html#130,130,1904,883,1920,1080,1-8-2024,7-56-24,47,VR_target_stimuli/s24_1x_3.3_349_BC.png,1000,1x,3.3,8,3647,1001,feet,jsons/MX_seq44_0_VE1000.json,270720,436157,32,Woman
47,241685,final-intermixed-textured,v2,jsons/MX_seq44_0_VE1000.json,http://54.235.29.9/FacialAge/BNav_EC2/DepthDuration/MX_fS_VE_MTurk/MX_fS_HTML.html#130,130,1904,883,1920,1080,1-8-2024,7-56-24,48,VR_target_stimuli/s10_1x_2.7_324_BC.png,1000,1x,2.7,8,3595,1002,feet,jsons/MX_seq44_0_VE1000.json,270720,436157,32,Woman
48,241685,final-intermixed-textured,v2,jsons/MX_seq44_0_VE1000.json,http://54.235.29.9/FacialAge/BNav_EC2/DepthDuration/MX_fS_VE_MTurk/MX_fS_HTML.html#130,130,1904,883,1920,1080,1-8-2024,7-56-24,49,VR_target_stimuli/s36_0.75x_4.1_407_BC.png,1000,0.75x,4.1,9,4100,1003,feet,jsons/MX_seq44_0_VE1000.json,270720,436157,32,Woman
49,241685,final-intermixed-textured,v2,jsons/MX_seq44_0_VE1000.json,http://54.235.29.9/FacialAge/BNav_EC2/DepthDuration/MX_fS_VE_MTurk/MX_fS_HTML.html#130,130,1904,883,1920,1080,1-8-2024,7-56-24,50,VR_target_stimuli/s40_1.3x_1.2_332.png,1000,1.3x,1.2,2,3747,1002,feet,jsons/MX_seq44_0_VE1000.json,270720,436157,32,Woman
50,241685,final-intermixed-textured,v2,jsons/MX_seq44_0_VE1000.json,http://54.235.29.9/FacialAge/BNav_EC2/DepthDuration/MX_fS_VE_MTurk/MX_fS_HTML.html#130,130,1904,883,1920,1080,1-8-2024,7-56-24,51,VR_target_stimuli/s41_0.75x_2.1_281.png,1000,0.75x,2.1,5,3609,999,feet,jsons/MX_seq44_0_VE1000.json,270720,436157,32,Woman
51,241685,final-intermixed-textured,v2,jsons/MX_seq44_0_VE1000.json,http://54.235.29.9/FacialAge/BNav_EC2/DepthDuration/MX_fS_VE_MTurk/MX_fS_HTML.html#130,130,1904,883,1920,1080,1-8-2024,7-56-24,52,VR_target_stimuli/s45_1x_3.5_368.png,1000,1x,3.5,7,3700,1003,feet,jsons/MX_seq44_0_VE1000.json,270720,436157,32,Woman
52,241685,final-intermixed-textured,v2,jsons/MX_seq44_0_VE1000.json,http://54.235.29.9/FacialAge/BNav_EC2/DepthDuration/MX_fS_VE_MTurk/MX_fS_HTML.html#130,130,1904,883,1920,1080,1-8-2024,7-56-24,53,catch_stimuli/c5.png,1000,,,0,3862,1001,feet,jsons/MX_seq44_0_VE1000.json,270720,436157,32,Woman
53,241685,final-intermixed-textured,v2,jsons/MX_seq44_0_VE1000.json,http://54.235.29.9/FacialAge/BNav_EC2/DepthDuration/MX_fS_VE_MTurk/MX_fS_HTML.html#130,130,1904,883,1920,1080,1-8-2024,7-56-24,54,VR_target_stimuli/s23_1.3x_3.65_354_BC.png,1000,1.3x,3.65,5,3696,999,feet,jsons/MX_seq44_0_VE1000.json,270720,436157,32,Woman
54,241685,final-intermixed-textured,v2,jsons/MX_seq44_0_VE1000.json,http://54.235.29.9/FacialAge/BNav_EC2/DepthDuration/MX_fS_VE_MTurk/MX_fS_HTML.html#130,130,1904,883,1920,1080,1-8-2024,7-56-24,55,VR_target_stimuli/s26_1x_4_433.png,1000,1x,4.0,5,3681,998,feet,jsons/MX_seq44_0_VE1000.json,270720,436157,32,Woman
55,241685,final-intermixed-textured,v2,jsons/MX_seq44_0_VE1000.json,http://54.235.29.9/FacialAge/BNav_EC2/DepthDuration/MX_fS_VE_MTurk/MX_fS_HTML.html#130,130,1904,883,1920,1080,1-8-2024,7-56-24,56,VR_target_stimuli/s12_0.75x_3.1_364.png,1000,0.75x,3.1,6,3697,1004,feet,jsons/MX_seq44_0_VE1000.json,270720,436157,32,Woman
56,241685,final-intermixed-textured,v2,jsons/MX_seq44_0_VE1000.json,http://54.235.29.9/FacialAge/BNav_EC2/DepthDuration/MX_fS_VE_MTurk/MX_fS_HTML.html#130,130,1904,883,1920,1080,1-8-2024,7-56-24,57,VR_target_stimuli/s30_1.3x_2.3_337_BC.png,1000,1.3x,2.3,4,3713,1002,feet,jsons/MX_seq44_0_VE1000.json,270720,436157,32,Woman
57,241685,final-intermixed-textured,v2,jsons/MX_seq44_0_VE1000.json,http://54.235.29.9/FacialAge/BNav_EC2/DepthDuration/MX_fS_VE_MTurk/MX_fS_HTML.html#130,130,1904,883,1920,1080,1-8-2024,7-56-24,58,VR_target_stimuli/s16_1.3x_1_223.png,1000,1.3x,1.0,3,3481,999,feet,jsons/MX_seq44_0_VE1000.json,270720,436157,32,Woman
58,241685,final-intermixed-textured,v2,jsons/MX_seq44_0_VE1000.json,http://54.235.29.9/FacialAge/BNav_EC2/DepthDuration/MX_fS_VE_MTurk/MX_fS_HTML.html#130,130,1904,883,1920,1080,1-8-2024,7-56-24,59,VR_target_stimuli/s17_1x_1.8_291_BC.png,1000,1x,1.8,4,3536,1005,feet,jsons/MX_seq44_0_VE1000.json,270720,436157,32,Woman
59,241685,final-intermixed-textured,v2,jsons/MX_seq44_0_VE1000.json,http://54.235.29.9/FacialAge/BNav_EC2/DepthDuration/MX_fS_VE_MTurk/MX_fS_HTML.html#130,130,1904,883,1920,1080,1-8-2024,7-56-24,60,VR_target_stimuli/s5_0.75x_4_375_BC.png,1000,0.75x,4.0,7,4128,997,feet,jsons/MX_seq44_0_VE1000.json,270720,436157,32,Woman
