,subjID,experimentName,versionName,sequenceName,url,selected_row,windowWidth,windowHeight,screenWidth,screenHeight,startDate,startTime,trial,stimulus,duration,scale,actual_depth,depth_estimate,trial_RT,log_sceneDuration,unitSelection,seq_filepath,experimentTime,totalTime,age,gender
0,252715,final-intermixed-textured,v2,jsons/MX_seq13_1_VE1000.json,http://54.235.29.9/FacialAge/BNav_EC2/DepthDuration/MX_fS_VE_MTurk/MX_fS_HTML.html#163,163,1440,813,1440,900,1-8-2024,14-2-37,1,VR_target_stimuli/s19_1.3x_1.21_270.png,1000,1.3x,1.21,0.8,6042,1001,meters,jsons/MX_seq13_1_VE1000.json,334624,577638,40,Woman
1,252715,final-intermixed-textured,v2,jsons/MX_seq13_1_VE1000.json,http://54.235.29.9/FacialAge/BNav_EC2/DepthDuration/MX_fS_VE_MTurk/MX_fS_HTML.html#163,163,1440,813,1440,900,1-8-2024,14-2-37,2,VR_target_stimuli/s21_0.75x_4.22_374_BC.png,1000,0.75x,4.22,5.0,7563,1000,meters,jsons/MX_seq13_1_VE1000.json,334624,577638,40,Woman
2,252715,final-intermixed-textured,v2,jsons/MX_seq13_1_VE1000.json,http://54.235.29.9/FacialAge/BNav_EC2/DepthDuration/MX_fS_VE_MTurk/MX_fS_HTML.html#163,163,1440,813,1440,900,1-8-2024,14-2-37,3,VR_target_stimuli/s8_1x_3.1_332_BC.png,1000,1x,3.1,3.0,5100,1001,meters,jsons/MX_seq13_1_VE1000.json,334624,577638,40,Woman
3,252715,final-intermixed-textured,v2,jsons/MX_seq13_1_VE1000.json,http://54.235.29.9/FacialAge/BNav_EC2/DepthDuration/MX_fS_VE_MTurk/MX_fS_HTML.html#163,163,1440,813,1440,900,1-8-2024,14-2-37,4,VR_target_stimuli/s27_0.75x_1.76_243.png,1000,0.75x,1.76,3.0,6245,1001,meters,jsons/MX_seq13_1_VE1000.json,334624,577638,40,Woman
4,252715,final-intermixed-textured,v2,jsons/MX_seq13_1_VE1000.json,http://54.235.29.9/FacialAge/BNav_EC2/DepthDuration/MX_fS_VE_MTurk/MX_fS_HTML.html#163,163,1440,813,1440,900,1-8-2024,14-2-37,5,VR_target_stimuli/s15_1.3x_4.2_389_BC.png,1000,1.3x,4.2,3.5,10312,1001,meters,jsons/MX_seq13_1_VE1000.json,334624,577638,40,Woman
5,252715,final-intermixed-textured,v2,jsons/MX_seq13_1_VE1000.json,http://54.235.29.9/FacialAge/BNav_EC2/DepthDuration/MX_fS_VE_MTurk/MX_fS_HTML.html#163,163,1440,813,1440,900,1-8-2024,14-2-37,6,VR_target_stimuli/s4_1x_1.4_313.png,1000,1x,1.4,1.0,4921,1001,meters,jsons/MX_seq13_1_VE1000.json,334624,577638,40,Woman
6,252715,final-intermixed-textured,v2,jsons/MX_seq13_1_VE1000.json,http://54.235.29.9/FacialAge/BNav_EC2/DepthDuration/MX_fS_VE_MTurk/MX_fS_HTML.html#163,163,1440,813,1440,900,1-8-2024,14-2-37,7,catch_stimuli/c0.png,1000,,,0.0,3661,1000,meters,jsons/MX_seq13_1_VE1000.json,334624,577638,40,Woman
7,252715,final-intermixed-textured,v2,jsons/MX_seq13_1_VE1000.json,http://54.235.29.9/FacialAge/BNav_EC2/DepthDuration/MX_fS_VE_MTurk/MX_fS_HTML.html#163,163,1440,813,1440,900,1-8-2024,14-2-37,8,VR_target_stimuli/s35_1x_2_331.png,1000,1x,2.0,1.5,4627,1000,meters,jsons/MX_seq13_1_VE1000.json,334624,577638,40,Woman
8,252715,final-intermixed-textured,v2,jsons/MX_seq13_1_VE1000.json,http://54.235.29.9/FacialAge/BNav_EC2/DepthDuration/MX_fS_VE_MTurk/MX_fS_HTML.html#163,163,1440,813,1440,900,1-8-2024,14-2-37,9,VR_target_stimuli/s49_0.75x_4.67_328_BC.png,1000,0.75x,4.67,4.0,8586,1000,meters,jsons/MX_seq13_1_VE1000.json,334624,577638,40,Woman
9,252715,final-intermixed-textured,v2,jsons/MX_seq13_1_VE1000.json,http://54.235.29.9/FacialAge/BNav_EC2/DepthDuration/MX_fS_VE_MTurk/MX_fS_HTML.html#163,163,1440,813,1440,900,1-8-2024,14-2-37,10,VR_target_stimuli/s7_1.3x_1.5_256_BC.png,1000,1.3x,1.5,1.5,5622,1001,meters,jsons/MX_seq13_1_VE1000.json,334624,577638,40,Woman
10,252715,final-intermixed-textured,v2,jsons/MX_seq13_1_VE1000.json,http://54.235.29.9/FacialAge/BNav_EC2/DepthDuration/MX_fS_VE_MTurk/MX_fS_HTML.html#163,163,1440,813,1440,900,1-8-2024,14-2-37,11,VR_target_stimuli/s20_0.75x_4.99_390.png,1000,0.75x,4.99,4.5,5594,1001,meters,jsons/MX_seq13_1_VE1000.json,334624,577638,40,Woman
11,252715,final-intermixed-textured,v2,jsons/MX_seq13_1_VE1000.json,http://54.235.29.9/FacialAge/BNav_EC2/DepthDuration/MX_fS_VE_MTurk/MX_fS_HTML.html#163,163,1440,813,1440,900,1-8-2024,14-2-37,12,VR_target_stimuli/s31_1x_4.96_333_BC.png,1000,1x,4.96,5.0,5283,999,meters,jsons/MX_seq13_1_VE1000.json,334624,577638,40,Woman
12,252715,final-intermixed-textured,v2,jsons/MX_seq13_1_VE1000.json,http://54.235.29.9/FacialAge/BNav_EC2/DepthDuration/MX_fS_VE_MTurk/MX_fS_HTML.html#163,163,1440,813,1440,900,1-8-2024,14-2-37,13,VR_target_stimuli/s33_1.3x_3.1_378.png,1000,1.3x,3.1,3.0,8413,1000,meters,jsons/MX_seq13_1_VE1000.json,334624,577638,40,Woman
13,252715,final-intermixed-textured,v2,jsons/MX_seq13_1_VE1000.json,http://54.235.29.9/FacialAge/BNav_EC2/DepthDuration/MX_fS_VE_MTurk/MX_fS_HTML.html#163,163,1440,813,1440,900,1-8-2024,14-2-37,14,VR_target_stimuli/s52_1x_3.2_275_BC.png,1000,1x,3.2,2.5,5226,1001,meters,jsons/MX_seq13_1_VE1000.json,334624,577638,40,Woman
14,252715,final-intermixed-textured,v2,jsons/MX_seq13_1_VE1000.json,http://54.235.29.9/FacialAge/BNav_EC2/DepthDuration/MX_fS_VE_MTurk/MX_fS_HTML.html#163,163,1440,813,1440,900,1-8-2024,14-2-37,15,VR_target_stimuli/s32_0.75x_1.5_213.png,1000,0.75x,1.5,2.0,3543,1001,meters,jsons/MX_seq13_1_VE1000.json,334624,577638,40,Woman
15,252715,final-intermixed-textured,v2,jsons/MX_seq13_1_VE1000.json,http://54.235.29.9/FacialAge/BNav_EC2/DepthDuration/MX_fS_VE_MTurk/MX_fS_HTML.html#163,163,1440,813,1440,900,1-8-2024,14-2-37,16,VR_target_stimuli/s18_1.3x_2.25_368_BC.png,1000,1.3x,2.25,1.2,4647,1000,meters,jsons/MX_seq13_1_VE1000.json,334624,577638,40,Woman
16,252715,final-intermixed-textured,v2,jsons/MX_seq13_1_VE1000.json,http://54.235.29.9/FacialAge/BNav_EC2/DepthDuration/MX_fS_VE_MTurk/MX_fS_HTML.html#163,163,1440,813,1440,900,1-8-2024,14-2-37,17,catch_stimuli/c1.png,1000,,,0.0,3512,1000,meters,jsons/MX_seq13_1_VE1000.json,334624,577638,40,Woman
17,252715,final-intermixed-textured,v2,jsons/MX_seq13_1_VE1000.json,http://54.235.29.9/FacialAge/BNav_EC2/DepthDuration/MX_fS_VE_MTurk/MX_fS_HTML.html#163,163,1440,813,1440,900,1-8-2024,14-2-37,18,VR_target_stimuli/s39_1.3x_1_208.png,1000,1.3x,1.0,0.6,5370,1001,meters,jsons/MX_seq13_1_VE1000.json,334624,577638,40,Woman
18,252715,final-intermixed-textured,v2,jsons/MX_seq13_1_VE1000.json,http://54.235.29.9/FacialAge/BNav_EC2/DepthDuration/MX_fS_VE_MTurk/MX_fS_HTML.html#163,163,1440,813,1440,900,1-8-2024,14-2-37,19,VR_target_stimuli/s51_1x_3.64_461.png,1000,1x,3.64,1.3,5098,1000,meters,jsons/MX_seq13_1_VE1000.json,334624,577638,40,Woman
19,252715,final-intermixed-textured,v2,jsons/MX_seq13_1_VE1000.json,http://54.235.29.9/FacialAge/BNav_EC2/DepthDuration/MX_fS_VE_MTurk/MX_fS_HTML.html#163,163,1440,813,1440,900,1-8-2024,14-2-37,20,VR_target_stimuli/s43_0.75x_2.2_348_BC.png,1000,0.75x,2.2,2.0,3531,1001,meters,jsons/MX_seq13_1_VE1000.json,334624,577638,40,Woman
20,252715,final-intermixed-textured,v2,jsons/MX_seq13_1_VE1000.json,http://54.235.29.9/FacialAge/BNav_EC2/DepthDuration/MX_fS_VE_MTurk/MX_fS_HTML.html#163,163,1440,813,1440,900,1-8-2024,14-2-37,21,VR_target_stimuli/s24_1x_3.3_349.png,1000,1x,3.3,3.0,4043,1001,meters,jsons/MX_seq13_1_VE1000.json,334624,577638,40,Woman
21,252715,final-intermixed-textured,v2,jsons/MX_seq13_1_VE1000.json,http://54.235.29.9/FacialAge/BNav_EC2/DepthDuration/MX_fS_VE_MTurk/MX_fS_HTML.html#163,163,1440,813,1440,900,1-8-2024,14-2-37,22,VR_target_stimuli/s10_1.3x_2.7_325.png,1000,1.3x,2.7,2.5,4611,1001,meters,jsons/MX_seq13_1_VE1000.json,334624,577638,40,Woman
22,252715,final-intermixed-textured,v2,jsons/MX_seq13_1_VE1000.json,http://54.235.29.9/FacialAge/BNav_EC2/DepthDuration/MX_fS_VE_MTurk/MX_fS_HTML.html#163,163,1440,813,1440,900,1-8-2024,14-2-37,23,VR_target_stimuli/s36_0.75x_4.1_407.png,1000,0.75x,4.1,3.2,4878,1001,meters,jsons/MX_seq13_1_VE1000.json,334624,577638,40,Woman
23,252715,final-intermixed-textured,v2,jsons/MX_seq13_1_VE1000.json,http://54.235.29.9/FacialAge/BNav_EC2/DepthDuration/MX_fS_VE_MTurk/MX_fS_HTML.html#163,163,1440,813,1440,900,1-8-2024,14-2-37,24,VR_target_stimuli/s40_1.3x_1.2_332_BC.png,1000,1.3x,1.2,0.7,5135,1000,meters,jsons/MX_seq13_1_VE1000.json,334624,577638,40,Woman
24,252715,final-intermixed-textured,v2,jsons/MX_seq13_1_VE1000.json,http://54.235.29.9/FacialAge/BNav_EC2/DepthDuration/MX_fS_VE_MTurk/MX_fS_HTML.html#163,163,1440,813,1440,900,1-8-2024,14-2-37,25,VR_target_stimuli/s41_1x_2.1_286_BC.png,1000,1x,2.1,1.5,5148,1001,meters,jsons/MX_seq13_1_VE1000.json,334624,577638,40,Woman
25,252715,final-intermixed-textured,v2,jsons/MX_seq13_1_VE1000.json,http://54.235.29.9/FacialAge/BNav_EC2/DepthDuration/MX_fS_VE_MTurk/MX_fS_HTML.html#163,163,1440,813,1440,900,1-8-2024,14-2-37,26,catch_stimuli/c2.png,1000,,,0.0,3144,1000,meters,jsons/MX_seq13_1_VE1000.json,334624,577638,40,Woman
26,252715,final-intermixed-textured,v2,jsons/MX_seq13_1_VE1000.json,http://54.235.29.9/FacialAge/BNav_EC2/DepthDuration/MX_fS_VE_MTurk/MX_fS_HTML.html#163,163,1440,813,1440,900,1-8-2024,14-2-37,27,VR_target_stimuli/s45_0.75x_3.5_362_BC.png,1000,0.75x,3.5,2.2,5094,1001,meters,jsons/MX_seq13_1_VE1000.json,334624,577638,40,Woman
27,252715,final-intermixed-textured,v2,jsons/MX_seq13_1_VE1000.json,http://54.235.29.9/FacialAge/BNav_EC2/DepthDuration/MX_fS_VE_MTurk/MX_fS_HTML.html#163,163,1440,813,1440,900,1-8-2024,14-2-37,28,VR_target_stimuli/s23_0.75x_3.65_351_BC.png,1000,0.75x,3.65,1.7,4905,1001,meters,jsons/MX_seq13_1_VE1000.json,334624,577638,40,Woman
28,252715,final-intermixed-textured,v2,jsons/MX_seq13_1_VE1000.json,http://54.235.29.9/FacialAge/BNav_EC2/DepthDuration/MX_fS_VE_MTurk/MX_fS_HTML.html#163,163,1440,813,1440,900,1-8-2024,14-2-37,29,VR_target_stimuli/s26_1.3x_4_441_BC.png,1000,1.3x,4.0,3.0,4048,1000,meters,jsons/MX_seq13_1_VE1000.json,334624,577638,40,Woman
29,252715,final-intermixed-textured,v2,jsons/MX_seq13_1_VE1000.json,http://54.235.29.9/FacialAge/BNav_EC2/DepthDuration/MX_fS_VE_MTurk/MX_fS_HTML.html#163,163,1440,813,1440,900,1-8-2024,14-2-37,30,VR_target_stimuli/s12_1x_3.1_372_BC.png,1000,1x,3.1,1.5,4192,1001,meters,jsons/MX_seq13_1_VE1000.json,334624,577638,40,Woman
30,252715,final-intermixed-textured,v2,jsons/MX_seq13_1_VE1000.json,http://54.235.29.9/FacialAge/BNav_EC2/DepthDuration/MX_fS_VE_MTurk/MX_fS_HTML.html#163,163,1440,813,1440,900,1-8-2024,14-2-37,31,VR_target_stimuli/s30_0.75x_2.3_332.png,1000,0.75x,2.3,1.3,5051,1001,meters,jsons/MX_seq13_1_VE1000.json,334624,577638,40,Woman
31,252715,final-intermixed-textured,v2,jsons/MX_seq13_1_VE1000.json,http://54.235.29.9/FacialAge/BNav_EC2/DepthDuration/MX_fS_VE_MTurk/MX_fS_HTML.html#163,163,1440,813,1440,900,1-8-2024,14-2-37,32,VR_target_stimuli/s16_1x_1_219.png,1000,1x,1.0,0.6,4521,1001,meters,jsons/MX_seq13_1_VE1000.json,334624,577638,40,Woman
32,252715,final-intermixed-textured,v2,jsons/MX_seq13_1_VE1000.json,http://54.235.29.9/FacialAge/BNav_EC2/DepthDuration/MX_fS_VE_MTurk/MX_fS_HTML.html#163,163,1440,813,1440,900,1-8-2024,14-2-37,33,VR_target_stimuli/s17_1.3x_1.8_300.png,1000,1.3x,1.8,1.0,3998,1000,meters,jsons/MX_seq13_1_VE1000.json,334624,577638,40,Woman
33,252715,final-intermixed-textured,v2,jsons/MX_seq13_1_VE1000.json,http://54.235.29.9/FacialAge/BNav_EC2/DepthDuration/MX_fS_VE_MTurk/MX_fS_HTML.html#163,163,1440,813,1440,900,1-8-2024,14-2-37,34,catch_stimuli/c3.png,1000,,,0.0,3418,1001,meters,jsons/MX_seq13_1_VE1000.json,334624,577638,40,Woman
34,252715,final-intermixed-textured,v2,jsons/MX_seq13_1_VE1000.json,http://54.235.29.9/FacialAge/BNav_EC2/DepthDuration/MX_fS_VE_MTurk/MX_fS_HTML.html#163,163,1440,813,1440,900,1-8-2024,14-2-37,35,VR_target_stimuli/s5_1x_4_378_BC.png,1000,1x,4.0,2.8,5203,1000,meters,jsons/MX_seq13_1_VE1000.json,334624,577638,40,Woman
35,252715,final-intermixed-textured,v2,jsons/MX_seq13_1_VE1000.json,http://54.235.29.9/FacialAge/BNav_EC2/DepthDuration/MX_fS_VE_MTurk/MX_fS_HTML.html#163,163,1440,813,1440,900,1-8-2024,14-2-37,36,VR_target_stimuli/s37_0.75x_3.3_567_BC.png,1000,0.75x,3.3,1.4,5991,1000,meters,jsons/MX_seq13_1_VE1000.json,334624,577638,40,Woman
36,252715,final-intermixed-textured,v2,jsons/MX_seq13_1_VE1000.json,http://54.235.29.9/FacialAge/BNav_EC2/DepthDuration/MX_fS_VE_MTurk/MX_fS_HTML.html#163,163,1440,813,1440,900,1-8-2024,14-2-37,37,VR_target_stimuli/s46_1.3x_2.42_354.png,1000,1.3x,2.42,1.7,5532,999,meters,jsons/MX_seq13_1_VE1000.json,334624,577638,40,Woman
37,252715,final-intermixed-textured,v2,jsons/MX_seq13_1_VE1000.json,http://54.235.29.9/FacialAge/BNav_EC2/DepthDuration/MX_fS_VE_MTurk/MX_fS_HTML.html#163,163,1440,813,1440,900,1-8-2024,14-2-37,38,VR_target_stimuli/s22_1.3x_4.29_364_BC.png,1000,1.3x,4.29,2.3,4754,999,meters,jsons/MX_seq13_1_VE1000.json,334624,577638,40,Woman
38,252715,final-intermixed-textured,v2,jsons/MX_seq13_1_VE1000.json,http://54.235.29.9/FacialAge/BNav_EC2/DepthDuration/MX_fS_VE_MTurk/MX_fS_HTML.html#163,163,1440,813,1440,900,1-8-2024,14-2-37,39,VR_target_stimuli/s42_1x_3.2_303.png,1000,1x,3.2,2.1,5332,1001,meters,jsons/MX_seq13_1_VE1000.json,334624,577638,40,Woman
39,252715,final-intermixed-textured,v2,jsons/MX_seq13_1_VE1000.json,http://54.235.29.9/FacialAge/BNav_EC2/DepthDuration/MX_fS_VE_MTurk/MX_fS_HTML.html#163,163,1440,813,1440,900,1-8-2024,14-2-37,40,VR_target_stimuli/s25_0.75x_1.4_281.png,1000,0.75x,1.4,0.8,4728,1001,meters,jsons/MX_seq13_1_VE1000.json,334624,577638,40,Woman
40,252715,final-intermixed-textured,v2,jsons/MX_seq13_1_VE1000.json,http://54.235.29.9/FacialAge/BNav_EC2/DepthDuration/MX_fS_VE_MTurk/MX_fS_HTML.html#163,163,1440,813,1440,900,1-8-2024,14-2-37,41,VR_target_stimuli/s50_1x_4.53_518.png,1000,1x,4.53,1.1,8253,1001,meters,jsons/MX_seq13_1_VE1000.json,334624,577638,40,Woman
41,252715,final-intermixed-textured,v2,jsons/MX_seq13_1_VE1000.json,http://54.235.29.9/FacialAge/BNav_EC2/DepthDuration/MX_fS_VE_MTurk/MX_fS_HTML.html#163,163,1440,813,1440,900,1-8-2024,14-2-37,42,VR_target_stimuli/s53_1.3x_1.6_355.png,1000,1.3x,1.6,0.5,4631,1000,meters,jsons/MX_seq13_1_VE1000.json,334624,577638,40,Woman
42,252715,final-intermixed-textured,v2,jsons/MX_seq13_1_VE1000.json,http://54.235.29.9/FacialAge/BNav_EC2/DepthDuration/MX_fS_VE_MTurk/MX_fS_HTML.html#163,163,1440,813,1440,900,1-8-2024,14-2-37,43,VR_target_stimuli/s38_0.75x_3.55_346.png,1000,0.75x,3.55,3.5,8725,1001,meters,jsons/MX_seq13_1_VE1000.json,334624,577638,40,Woman
43,252715,final-intermixed-textured,v2,jsons/MX_seq13_1_VE1000.json,http://54.235.29.9/FacialAge/BNav_EC2/DepthDuration/MX_fS_VE_MTurk/MX_fS_HTML.html#163,163,1440,813,1440,900,1-8-2024,14-2-37,44,VR_target_stimuli/s9_1.3x_1.2_276_BC.png,1000,1.3x,1.2,0.8,6294,1001,meters,jsons/MX_seq13_1_VE1000.json,334624,577638,40,Woman
44,252715,final-intermixed-textured,v2,jsons/MX_seq13_1_VE1000.json,http://54.235.29.9/FacialAge/BNav_EC2/DepthDuration/MX_fS_VE_MTurk/MX_fS_HTML.html#163,163,1440,813,1440,900,1-8-2024,14-2-37,45,catch_stimuli/c4.png,1000,,,0.0,3716,1000,meters,jsons/MX_seq13_1_VE1000.json,334624,577638,40,Woman
45,252715,final-intermixed-textured,v2,jsons/MX_seq13_1_VE1000.json,http://54.235.29.9/FacialAge/BNav_EC2/DepthDuration/MX_fS_VE_MTurk/MX_fS_HTML.html#163,163,1440,813,1440,900,1-8-2024,14-2-37,46,VR_target_stimuli/s44_1x_4.4_317_BC.png,1000,1x,4.4,2.8,5481,1001,meters,jsons/MX_seq13_1_VE1000.json,334624,577638,40,Woman
46,252715,final-intermixed-textured,v2,jsons/MX_seq13_1_VE1000.json,http://54.235.29.9/FacialAge/BNav_EC2/DepthDuration/MX_fS_VE_MTurk/MX_fS_HTML.html#163,163,1440,813,1440,900,1-8-2024,14-2-37,47,VR_target_stimuli/s3_0.75x_5_381_BC.png,1000,0.75x,5.0,2.0,3895,1001,meters,jsons/MX_seq13_1_VE1000.json,334624,577638,40,Woman
47,252715,final-intermixed-textured,v2,jsons/MX_seq13_1_VE1000.json,http://54.235.29.9/FacialAge/BNav_EC2/DepthDuration/MX_fS_VE_MTurk/MX_fS_HTML.html#163,163,1440,813,1440,900,1-8-2024,14-2-37,48,VR_target_stimuli/s1_0.75x_1.7_265_BC.png,1000,0.75x,1.7,1.2,3907,1001,meters,jsons/MX_seq13_1_VE1000.json,334624,577638,40,Woman
48,252715,final-intermixed-textured,v2,jsons/MX_seq13_1_VE1000.json,http://54.235.29.9/FacialAge/BNav_EC2/DepthDuration/MX_fS_VE_MTurk/MX_fS_HTML.html#163,163,1440,813,1440,900,1-8-2024,14-2-37,49,VR_target_stimuli/s11_1.3x_5_363_BC.png,1000,1.3x,5.0,1.7,5225,1001,meters,jsons/MX_seq13_1_VE1000.json,334624,577638,40,Woman
49,252715,final-intermixed-textured,v2,jsons/MX_seq13_1_VE1000.json,http://54.235.29.9/FacialAge/BNav_EC2/DepthDuration/MX_fS_VE_MTurk/MX_fS_HTML.html#163,163,1440,813,1440,900,1-8-2024,14-2-37,50,VR_target_stimuli/s2_1x_2.7_390_BC.png,1000,1x,2.7,1.2,4765,1000,meters,jsons/MX_seq13_1_VE1000.json,334624,577638,40,Woman
50,252715,final-intermixed-textured,v2,jsons/MX_seq13_1_VE1000.json,http://54.235.29.9/FacialAge/BNav_EC2/DepthDuration/MX_fS_VE_MTurk/MX_fS_HTML.html#163,163,1440,813,1440,900,1-8-2024,14-2-37,51,VR_target_stimuli/s6_1.3x_2.1_298.png,1000,1.3x,2.1,1.4,4023,1000,meters,jsons/MX_seq13_1_VE1000.json,334624,577638,40,Woman
51,252715,final-intermixed-textured,v2,jsons/MX_seq13_1_VE1000.json,http://54.235.29.9/FacialAge/BNav_EC2/DepthDuration/MX_fS_VE_MTurk/MX_fS_HTML.html#163,163,1440,813,1440,900,1-8-2024,14-2-37,52,VR_target_stimuli/s0_0.75x_2.6_345.png,1000,0.75x,2.6,1.0,3345,1000,meters,jsons/MX_seq13_1_VE1000.json,334624,577638,40,Woman
52,252715,final-intermixed-textured,v2,jsons/MX_seq13_1_VE1000.json,http://54.235.29.9/FacialAge/BNav_EC2/DepthDuration/MX_fS_VE_MTurk/MX_fS_HTML.html#163,163,1440,813,1440,900,1-8-2024,14-2-37,53,catch_stimuli/c5.png,1000,,,0.0,3273,1001,meters,jsons/MX_seq13_1_VE1000.json,334624,577638,40,Woman
53,252715,final-intermixed-textured,v2,jsons/MX_seq13_1_VE1000.json,http://54.235.29.9/FacialAge/BNav_EC2/DepthDuration/MX_fS_VE_MTurk/MX_fS_HTML.html#163,163,1440,813,1440,900,1-8-2024,14-2-37,54,VR_target_stimuli/s34_1x_2.8_283.png,1000,1x,2.8,2.2,3821,1000,meters,jsons/MX_seq13_1_VE1000.json,334624,577638,40,Woman
54,252715,final-intermixed-textured,v2,jsons/MX_seq13_1_VE1000.json,http://54.235.29.9/FacialAge/BNav_EC2/DepthDuration/MX_fS_VE_MTurk/MX_fS_HTML.html#163,163,1440,813,1440,900,1-8-2024,14-2-37,55,VR_target_stimuli/s13_0.75x_2.4_308.png,1000,0.75x,2.4,1.8,5143,999,meters,jsons/MX_seq13_1_VE1000.json,334624,577638,40,Woman
55,252715,final-intermixed-textured,v2,jsons/MX_seq13_1_VE1000.json,http://54.235.29.9/FacialAge/BNav_EC2/DepthDuration/MX_fS_VE_MTurk/MX_fS_HTML.html#163,163,1440,813,1440,900,1-8-2024,14-2-37,56,VR_target_stimuli/s14_1.3x_3.83_359_BC.png,1000,1.3x,3.83,2.0,4037,1001,meters,jsons/MX_seq13_1_VE1000.json,334624,577638,40,Woman
56,252715,final-intermixed-textured,v2,jsons/MX_seq13_1_VE1000.json,http://54.235.29.9/FacialAge/BNav_EC2/DepthDuration/MX_fS_VE_MTurk/MX_fS_HTML.html#163,163,1440,813,1440,900,1-8-2024,14-2-37,57,VR_target_stimuli/s47_1x_3.45_370.png,1000,1x,3.45,1.7,6019,1001,meters,jsons/MX_seq13_1_VE1000.json,334624,577638,40,Woman
57,252715,final-intermixed-textured,v2,jsons/MX_seq13_1_VE1000.json,http://54.235.29.9/FacialAge/BNav_EC2/DepthDuration/MX_fS_VE_MTurk/MX_fS_HTML.html#163,163,1440,813,1440,900,1-8-2024,14-2-37,58,VR_target_stimuli/s29_1x_1.3_250_BC.png,1000,1x,1.3,0.8,4376,1001,meters,jsons/MX_seq13_1_VE1000.json,334624,577638,40,Woman
58,252715,final-intermixed-textured,v2,jsons/MX_seq13_1_VE1000.json,http://54.235.29.9/FacialAge/BNav_EC2/DepthDuration/MX_fS_VE_MTurk/MX_fS_HTML.html#163,163,1440,813,1440,900,1-8-2024,14-2-37,59,VR_target_stimuli/s28_0.75x_3.2_357_BC.png,1000,0.75x,3.2,2.3,4307,1000,meters,jsons/MX_seq13_1_VE1000.json,334624,577638,40,Woman
59,252715,final-intermixed-textured,v2,jsons/MX_seq13_1_VE1000.json,http://54.235.29.9/FacialAge/BNav_EC2/DepthDuration/MX_fS_VE_MTurk/MX_fS_HTML.html#163,163,1440,813,1440,900,1-8-2024,14-2-37,60,VR_target_stimuli/s48_1.3x_2.55_255.png,1000,1.3x,2.55,2.0,4694,1001,meters,jsons/MX_seq13_1_VE1000.json,334624,577638,40,Woman
