,subjID,experimentName,versionName,sequenceName,url,selected_row,windowWidth,windowHeight,screenWidth,screenHeight,startDate,startTime,trial,stimulus,duration,scale,actual_depth,depth_estimate,trial_RT,log_sceneDuration,unitSelection,seq_filepath,experimentTime,totalTime,age,gender
0,257680,final-intermixed-textured,v2,jsons/MX_seq51_2_VE1000.json,http://54.235.29.9/FacialAge/BNav_EC2/DepthDuration/MX_fS_VE_MTurk/MX_fS_HTML.html#161,161,1366,657,1366,768,1-8-2024,14-46-1,1,VR_target_stimuli/s38_1x_3.55_353_BC.png,1000,1x,3.55,3.0,5571,1008,meters,jsons/MX_seq51_2_VE1000.json,276879,472805,22,Woman
1,257680,final-intermixed-textured,v2,jsons/MX_seq51_2_VE1000.json,http://54.235.29.9/FacialAge/BNav_EC2/DepthDuration/MX_fS_VE_MTurk/MX_fS_HTML.html#161,161,1366,657,1366,768,1-8-2024,14-46-1,2,VR_target_stimuli/s9_1.3x_1.2_276_BC.png,1000,1.3x,1.2,1.0,3543,1012,meters,jsons/MX_seq51_2_VE1000.json,276879,472805,22,Woman
2,257680,final-intermixed-textured,v2,jsons/MX_seq51_2_VE1000.json,http://54.235.29.9/FacialAge/BNav_EC2/DepthDuration/MX_fS_VE_MTurk/MX_fS_HTML.html#161,161,1366,657,1366,768,1-8-2024,14-46-1,3,VR_target_stimuli/s44_0.75x_4.4_314.png,1000,0.75x,4.4,5.0,4273,1008,meters,jsons/MX_seq51_2_VE1000.json,276879,472805,22,Woman
3,257680,final-intermixed-textured,v2,jsons/MX_seq51_2_VE1000.json,http://54.235.29.9/FacialAge/BNav_EC2/DepthDuration/MX_fS_VE_MTurk/MX_fS_HTML.html#161,161,1366,657,1366,768,1-8-2024,14-46-1,4,VR_target_stimuli/s3_1.3x_5_390.png,1000,1.3x,5.0,3.5,7074,995,meters,jsons/MX_seq51_2_VE1000.json,276879,472805,22,Woman
4,257680,final-intermixed-textured,v2,jsons/MX_seq51_2_VE1000.json,http://54.235.29.9/FacialAge/BNav_EC2/DepthDuration/MX_fS_VE_MTurk/MX_fS_HTML.html#161,161,1366,657,1366,768,1-8-2024,14-46-1,5,VR_target_stimuli/s1_1x_1.7_262.png,1000,1x,1.7,2.0,3865,1015,meters,jsons/MX_seq51_2_VE1000.json,276879,472805,22,Woman
5,257680,final-intermixed-textured,v2,jsons/MX_seq51_2_VE1000.json,http://54.235.29.9/FacialAge/BNav_EC2/DepthDuration/MX_fS_VE_MTurk/MX_fS_HTML.html#161,161,1366,657,1366,768,1-8-2024,14-46-1,6,VR_target_stimuli/s11_0.75x_5_359_BC.png,1000,0.75x,5.0,4.0,3226,999,meters,jsons/MX_seq51_2_VE1000.json,276879,472805,22,Woman
6,257680,final-intermixed-textured,v2,jsons/MX_seq51_2_VE1000.json,http://54.235.29.9/FacialAge/BNav_EC2/DepthDuration/MX_fS_VE_MTurk/MX_fS_HTML.html#161,161,1366,657,1366,768,1-8-2024,14-46-1,7,catch_stimuli/c0.png,1000,,,0.0,4165,991,meters,jsons/MX_seq51_2_VE1000.json,276879,472805,22,Woman
7,257680,final-intermixed-textured,v2,jsons/MX_seq51_2_VE1000.json,http://54.235.29.9/FacialAge/BNav_EC2/DepthDuration/MX_fS_VE_MTurk/MX_fS_HTML.html#161,161,1366,657,1366,768,1-8-2024,14-46-1,8,VR_target_stimuli/s2_0.75x_2.7_384.png,1000,0.75x,2.7,1.5,4390,1002,meters,jsons/MX_seq51_2_VE1000.json,276879,472805,22,Woman
8,257680,final-intermixed-textured,v2,jsons/MX_seq51_2_VE1000.json,http://54.235.29.9/FacialAge/BNav_EC2/DepthDuration/MX_fS_VE_MTurk/MX_fS_HTML.html#161,161,1366,657,1366,768,1-8-2024,14-46-1,9,VR_target_stimuli/s6_1.3x_2.1_298.png,1000,1.3x,2.1,1.5,4956,1009,meters,jsons/MX_seq51_2_VE1000.json,276879,472805,22,Woman
9,257680,final-intermixed-textured,v2,jsons/MX_seq51_2_VE1000.json,http://54.235.29.9/FacialAge/BNav_EC2/DepthDuration/MX_fS_VE_MTurk/MX_fS_HTML.html#161,161,1366,657,1366,768,1-8-2024,14-46-1,10,VR_target_stimuli/s0_1x_2.6_351.png,1000,1x,2.6,2.0,4909,1012,meters,jsons/MX_seq51_2_VE1000.json,276879,472805,22,Woman
10,257680,final-intermixed-textured,v2,jsons/MX_seq51_2_VE1000.json,http://54.235.29.9/FacialAge/BNav_EC2/DepthDuration/MX_fS_VE_MTurk/MX_fS_HTML.html#161,161,1366,657,1366,768,1-8-2024,14-46-1,11,VR_target_stimuli/s34_1.3x_2.8_294_BC.png,1000,1.3x,2.8,2.5,5992,1009,meters,jsons/MX_seq51_2_VE1000.json,276879,472805,22,Woman
11,257680,final-intermixed-textured,v2,jsons/MX_seq51_2_VE1000.json,http://54.235.29.9/FacialAge/BNav_EC2/DepthDuration/MX_fS_VE_MTurk/MX_fS_HTML.html#161,161,1366,657,1366,768,1-8-2024,14-46-1,12,VR_target_stimuli/s13_0.75x_2.4_308_BC.png,1000,0.75x,2.4,2.0,2985,1007,meters,jsons/MX_seq51_2_VE1000.json,276879,472805,22,Woman
12,257680,final-intermixed-textured,v2,jsons/MX_seq51_2_VE1000.json,http://54.235.29.9/FacialAge/BNav_EC2/DepthDuration/MX_fS_VE_MTurk/MX_fS_HTML.html#161,161,1366,657,1366,768,1-8-2024,14-46-1,13,VR_target_stimuli/s14_1x_ 3.83_357_BC.png,1000,1x,3.83,2.5,6747,1000,meters,jsons/MX_seq51_2_VE1000.json,276879,472805,22,Woman
13,257680,final-intermixed-textured,v2,jsons/MX_seq51_2_VE1000.json,http://54.235.29.9/FacialAge/BNav_EC2/DepthDuration/MX_fS_VE_MTurk/MX_fS_HTML.html#161,161,1366,657,1366,768,1-8-2024,14-46-1,14,VR_target_stimuli/s47_0.75x_3.45_366.png,1000,0.75x,3.45,1.5,4385,1016,meters,jsons/MX_seq51_2_VE1000.json,276879,472805,22,Woman
14,257680,final-intermixed-textured,v2,jsons/MX_seq51_2_VE1000.json,http://54.235.29.9/FacialAge/BNav_EC2/DepthDuration/MX_fS_VE_MTurk/MX_fS_HTML.html#161,161,1366,657,1366,768,1-8-2024,14-46-1,15,VR_target_stimuli/s29_1.3x_1.3_253.png,1000,1.3x,1.3,1.0,2908,1001,meters,jsons/MX_seq51_2_VE1000.json,276879,472805,22,Woman
15,257680,final-intermixed-textured,v2,jsons/MX_seq51_2_VE1000.json,http://54.235.29.9/FacialAge/BNav_EC2/DepthDuration/MX_fS_VE_MTurk/MX_fS_HTML.html#161,161,1366,657,1366,768,1-8-2024,14-46-1,16,VR_target_stimuli/s28_1x_3.2_362_BC.png,1000,1x,3.2,3.0,5233,990,meters,jsons/MX_seq51_2_VE1000.json,276879,472805,22,Woman
16,257680,final-intermixed-textured,v2,jsons/MX_seq51_2_VE1000.json,http://54.235.29.9/FacialAge/BNav_EC2/DepthDuration/MX_fS_VE_MTurk/MX_fS_HTML.html#161,161,1366,657,1366,768,1-8-2024,14-46-1,17,catch_stimuli/c1.png,1000,,,0.0,3394,999,meters,jsons/MX_seq51_2_VE1000.json,276879,472805,22,Woman
17,257680,final-intermixed-textured,v2,jsons/MX_seq51_2_VE1000.json,http://54.235.29.9/FacialAge/BNav_EC2/DepthDuration/MX_fS_VE_MTurk/MX_fS_HTML.html#161,161,1366,657,1366,768,1-8-2024,14-46-1,18,VR_target_stimuli/s48_1x_2.55_256.png,1000,1x,2.55,2.0,4457,999,meters,jsons/MX_seq51_2_VE1000.json,276879,472805,22,Woman
18,257680,final-intermixed-textured,v2,jsons/MX_seq51_2_VE1000.json,http://54.235.29.9/FacialAge/BNav_EC2/DepthDuration/MX_fS_VE_MTurk/MX_fS_HTML.html#161,161,1366,657,1366,768,1-8-2024,14-46-1,19,VR_target_stimuli/s19_0.75x_1.21_257_BC.png,1000,0.75x,1.21,0.75,5660,1000,meters,jsons/MX_seq51_2_VE1000.json,276879,472805,22,Woman
19,257680,final-intermixed-textured,v2,jsons/MX_seq51_2_VE1000.json,http://54.235.29.9/FacialAge/BNav_EC2/DepthDuration/MX_fS_VE_MTurk/MX_fS_HTML.html#161,161,1366,657,1366,768,1-8-2024,14-46-1,20,VR_target_stimuli/s21_1.3x_4.22_384_BC.png,1000,1.3x,4.22,4.0,6290,1002,meters,jsons/MX_seq51_2_VE1000.json,276879,472805,22,Woman
20,257680,final-intermixed-textured,v2,jsons/MX_seq51_2_VE1000.json,http://54.235.29.9/FacialAge/BNav_EC2/DepthDuration/MX_fS_VE_MTurk/MX_fS_HTML.html#161,161,1366,657,1366,768,1-8-2024,14-46-1,21,VR_target_stimuli/s8_0.75x_3.1_325.png,1000,0.75x,3.1,2.5,5160,1014,meters,jsons/MX_seq51_2_VE1000.json,276879,472805,22,Woman
21,257680,final-intermixed-textured,v2,jsons/MX_seq51_2_VE1000.json,http://54.235.29.9/FacialAge/BNav_EC2/DepthDuration/MX_fS_VE_MTurk/MX_fS_HTML.html#161,161,1366,657,1366,768,1-8-2024,14-46-1,22,VR_target_stimuli/s27_1x_1.76_248.png,1000,1x,1.76,2.0,3727,1004,meters,jsons/MX_seq51_2_VE1000.json,276879,472805,22,Woman
22,257680,final-intermixed-textured,v2,jsons/MX_seq51_2_VE1000.json,http://54.235.29.9/FacialAge/BNav_EC2/DepthDuration/MX_fS_VE_MTurk/MX_fS_HTML.html#161,161,1366,657,1366,768,1-8-2024,14-46-1,23,VR_target_stimuli/s15_1.3x_4.2_389_BC.png,1000,1.3x,4.2,3.0,4155,996,meters,jsons/MX_seq51_2_VE1000.json,276879,472805,22,Woman
23,257680,final-intermixed-textured,v2,jsons/MX_seq51_2_VE1000.json,http://54.235.29.9/FacialAge/BNav_EC2/DepthDuration/MX_fS_VE_MTurk/MX_fS_HTML.html#161,161,1366,657,1366,768,1-8-2024,14-46-1,24,VR_target_stimuli/s4_1x_1.4_313_BC.png,1000,1x,1.4,1.0,4853,1014,meters,jsons/MX_seq51_2_VE1000.json,276879,472805,22,Woman
24,257680,final-intermixed-textured,v2,jsons/MX_seq51_2_VE1000.json,http://54.235.29.9/FacialAge/BNav_EC2/DepthDuration/MX_fS_VE_MTurk/MX_fS_HTML.html#161,161,1366,657,1366,768,1-8-2024,14-46-1,25,VR_target_stimuli/s35_0.75x_2_323_BC.png,1000,0.75x,2.0,1.5,4482,1009,meters,jsons/MX_seq51_2_VE1000.json,276879,472805,22,Woman
25,257680,final-intermixed-textured,v2,jsons/MX_seq51_2_VE1000.json,http://54.235.29.9/FacialAge/BNav_EC2/DepthDuration/MX_fS_VE_MTurk/MX_fS_HTML.html#161,161,1366,657,1366,768,1-8-2024,14-46-1,26,catch_stimuli/c2.png,1000,,,0.0,5719,998,meters,jsons/MX_seq51_2_VE1000.json,276879,472805,22,Woman
26,257680,final-intermixed-textured,v2,jsons/MX_seq51_2_VE1000.json,http://54.235.29.9/FacialAge/BNav_EC2/DepthDuration/MX_fS_VE_MTurk/MX_fS_HTML.html#161,161,1366,657,1366,768,1-8-2024,14-46-1,27,VR_target_stimuli/s49_1.3x_4.67_354.png,1000,1.3x,4.67,3.0,4019,1006,meters,jsons/MX_seq51_2_VE1000.json,276879,472805,22,Woman
27,257680,final-intermixed-textured,v2,jsons/MX_seq51_2_VE1000.json,http://54.235.29.9/FacialAge/BNav_EC2/DepthDuration/MX_fS_VE_MTurk/MX_fS_HTML.html#161,161,1366,657,1366,768,1-8-2024,14-46-1,28,VR_target_stimuli/s7_1.3x_1.5_256.png,1000,1.3x,1.5,1.5,4045,999,meters,jsons/MX_seq51_2_VE1000.json,276879,472805,22,Woman
28,257680,final-intermixed-textured,v2,jsons/MX_seq51_2_VE1000.json,http://54.235.29.9/FacialAge/BNav_EC2/DepthDuration/MX_fS_VE_MTurk/MX_fS_HTML.html#161,161,1366,657,1366,768,1-8-2024,14-46-1,29,VR_target_stimuli/s20_1x_4.99_398.png,1000,1x,4.99,4.0,4006,1005,meters,jsons/MX_seq51_2_VE1000.json,276879,472805,22,Woman
29,257680,final-intermixed-textured,v2,jsons/MX_seq51_2_VE1000.json,http://54.235.29.9/FacialAge/BNav_EC2/DepthDuration/MX_fS_VE_MTurk/MX_fS_HTML.html#161,161,1366,657,1366,768,1-8-2024,14-46-1,30,VR_target_stimuli/s31_0.75x_4.96_329.png,1000,0.75x,4.96,3.0,2929,1007,meters,jsons/MX_seq51_2_VE1000.json,276879,472805,22,Woman
30,257680,final-intermixed-textured,v2,jsons/MX_seq51_2_VE1000.json,http://54.235.29.9/FacialAge/BNav_EC2/DepthDuration/MX_fS_VE_MTurk/MX_fS_HTML.html#161,161,1366,657,1366,768,1-8-2024,14-46-1,31,VR_target_stimuli/s33_1.3x_3.1_378_BC.png,1000,1.3x,3.1,2.0,3053,990,meters,jsons/MX_seq51_2_VE1000.json,276879,472805,22,Woman
31,257680,final-intermixed-textured,v2,jsons/MX_seq51_2_VE1000.json,http://54.235.29.9/FacialAge/BNav_EC2/DepthDuration/MX_fS_VE_MTurk/MX_fS_HTML.html#161,161,1366,657,1366,768,1-8-2024,14-46-1,32,VR_target_stimuli/s52_0.75x_3.2_270_BC.png,1000,0.75x,3.2,3.0,2910,1001,meters,jsons/MX_seq51_2_VE1000.json,276879,472805,22,Woman
32,257680,final-intermixed-textured,v2,jsons/MX_seq51_2_VE1000.json,http://54.235.29.9/FacialAge/BNav_EC2/DepthDuration/MX_fS_VE_MTurk/MX_fS_HTML.html#161,161,1366,657,1366,768,1-8-2024,14-46-1,33,VR_target_stimuli/s32_1x_1.5_218_BC.png,1000,1x,1.5,2.0,2925,997,meters,jsons/MX_seq51_2_VE1000.json,276879,472805,22,Woman
33,257680,final-intermixed-textured,v2,jsons/MX_seq51_2_VE1000.json,http://54.235.29.9/FacialAge/BNav_EC2/DepthDuration/MX_fS_VE_MTurk/MX_fS_HTML.html#161,161,1366,657,1366,768,1-8-2024,14-46-1,34,catch_stimuli/c3.png,1000,,,0.0,3165,1016,meters,jsons/MX_seq51_2_VE1000.json,276879,472805,22,Woman
34,257680,final-intermixed-textured,v2,jsons/MX_seq51_2_VE1000.json,http://54.235.29.9/FacialAge/BNav_EC2/DepthDuration/MX_fS_VE_MTurk/MX_fS_HTML.html#161,161,1366,657,1366,768,1-8-2024,14-46-1,35,VR_target_stimuli/s18_0.75x_2.25_341_BC.png,1000,0.75x,2.25,1.5,4503,994,meters,jsons/MX_seq51_2_VE1000.json,276879,472805,22,Woman
35,257680,final-intermixed-textured,v2,jsons/MX_seq51_2_VE1000.json,http://54.235.29.9/FacialAge/BNav_EC2/DepthDuration/MX_fS_VE_MTurk/MX_fS_HTML.html#161,161,1366,657,1366,768,1-8-2024,14-46-1,36,VR_target_stimuli/s39_1.3x_1_208.png,1000,1.3x,1.0,0.5,4561,988,meters,jsons/MX_seq51_2_VE1000.json,276879,472805,22,Woman
36,257680,final-intermixed-textured,v2,jsons/MX_seq51_2_VE1000.json,http://54.235.29.9/FacialAge/BNav_EC2/DepthDuration/MX_fS_VE_MTurk/MX_fS_HTML.html#161,161,1366,657,1366,768,1-8-2024,14-46-1,37,VR_target_stimuli/s51_1x_3.64_461.png,1000,1x,3.64,1.5,4639,998,meters,jsons/MX_seq51_2_VE1000.json,276879,472805,22,Woman
37,257680,final-intermixed-textured,v2,jsons/MX_seq51_2_VE1000.json,http://54.235.29.9/FacialAge/BNav_EC2/DepthDuration/MX_fS_VE_MTurk/MX_fS_HTML.html#161,161,1366,657,1366,768,1-8-2024,14-46-1,38,VR_target_stimuli/s43_1x_2.2_354_BC.png,1000,1x,2.2,2.0,2775,1001,meters,jsons/MX_seq51_2_VE1000.json,276879,472805,22,Woman
38,257680,final-intermixed-textured,v2,jsons/MX_seq51_2_VE1000.json,http://54.235.29.9/FacialAge/BNav_EC2/DepthDuration/MX_fS_VE_MTurk/MX_fS_HTML.html#161,161,1366,657,1366,768,1-8-2024,14-46-1,39,VR_target_stimuli/s24_0.75x_3.3_344.png,1000,0.75x,3.3,2.5,5188,999,meters,jsons/MX_seq51_2_VE1000.json,276879,472805,22,Woman
39,257680,final-intermixed-textured,v2,jsons/MX_seq51_2_VE1000.json,http://54.235.29.9/FacialAge/BNav_EC2/DepthDuration/MX_fS_VE_MTurk/MX_fS_HTML.html#161,161,1366,657,1366,768,1-8-2024,14-46-1,40,VR_target_stimuli/s10_1.3x_2.7_325_BC.png,1000,1.3x,2.7,2.0,3553,1006,meters,jsons/MX_seq51_2_VE1000.json,276879,472805,22,Woman
40,257680,final-intermixed-textured,v2,jsons/MX_seq51_2_VE1000.json,http://54.235.29.9/FacialAge/BNav_EC2/DepthDuration/MX_fS_VE_MTurk/MX_fS_HTML.html#161,161,1366,657,1366,768,1-8-2024,14-46-1,41,VR_target_stimuli/s36_0.75x_4.1_407_BC.png,1000,0.75x,4.1,3.0,3120,1009,meters,jsons/MX_seq51_2_VE1000.json,276879,472805,22,Woman
41,257680,final-intermixed-textured,v2,jsons/MX_seq51_2_VE1000.json,http://54.235.29.9/FacialAge/BNav_EC2/DepthDuration/MX_fS_VE_MTurk/MX_fS_HTML.html#161,161,1366,657,1366,768,1-8-2024,14-46-1,42,VR_target_stimuli/s40_1x_1.2_319_BC.png,1000,1x,1.2,1.0,4132,1010,meters,jsons/MX_seq51_2_VE1000.json,276879,472805,22,Woman
42,257680,final-intermixed-textured,v2,jsons/MX_seq51_2_VE1000.json,http://54.235.29.9/FacialAge/BNav_EC2/DepthDuration/MX_fS_VE_MTurk/MX_fS_HTML.html#161,161,1366,657,1366,768,1-8-2024,14-46-1,43,VR_target_stimuli/s41_1.3x_2.1_294.png,1000,1.3x,2.1,1.5,4030,1014,meters,jsons/MX_seq51_2_VE1000.json,276879,472805,22,Woman
43,257680,final-intermixed-textured,v2,jsons/MX_seq51_2_VE1000.json,http://54.235.29.9/FacialAge/BNav_EC2/DepthDuration/MX_fS_VE_MTurk/MX_fS_HTML.html#161,161,1366,657,1366,768,1-8-2024,14-46-1,44,VR_target_stimuli/s45_1x_3.5_368.png,1000,1x,3.5,2.0,3287,1005,meters,jsons/MX_seq51_2_VE1000.json,276879,472805,22,Woman
44,257680,final-intermixed-textured,v2,jsons/MX_seq51_2_VE1000.json,http://54.235.29.9/FacialAge/BNav_EC2/DepthDuration/MX_fS_VE_MTurk/MX_fS_HTML.html#161,161,1366,657,1366,768,1-8-2024,14-46-1,45,catch_stimuli/c4.png,1000,,,0.0,3276,1001,meters,jsons/MX_seq51_2_VE1000.json,276879,472805,22,Woman
45,257680,final-intermixed-textured,v2,jsons/MX_seq51_2_VE1000.json,http://54.235.29.9/FacialAge/BNav_EC2/DepthDuration/MX_fS_VE_MTurk/MX_fS_HTML.html#161,161,1366,657,1366,768,1-8-2024,14-46-1,46,VR_target_stimuli/s23_0.75x_3.65_351.png,1000,0.75x,3.65,3.0,3622,994,meters,jsons/MX_seq51_2_VE1000.json,276879,472805,22,Woman
46,257680,final-intermixed-textured,v2,jsons/MX_seq51_2_VE1000.json,http://54.235.29.9/FacialAge/BNav_EC2/DepthDuration/MX_fS_VE_MTurk/MX_fS_HTML.html#161,161,1366,657,1366,768,1-8-2024,14-46-1,47,VR_target_stimuli/s26_1.3x_4_441_BC.png,1000,1.3x,4.0,2.0,2553,1011,meters,jsons/MX_seq51_2_VE1000.json,276879,472805,22,Woman
47,257680,final-intermixed-textured,v2,jsons/MX_seq51_2_VE1000.json,http://54.235.29.9/FacialAge/BNav_EC2/DepthDuration/MX_fS_VE_MTurk/MX_fS_HTML.html#161,161,1366,657,1366,768,1-8-2024,14-46-1,48,VR_target_stimuli/s12_1.3x_3.1_375_BC.png,1000,1.3x,3.1,2.0,3191,1000,meters,jsons/MX_seq51_2_VE1000.json,276879,472805,22,Woman
48,257680,final-intermixed-textured,v2,jsons/MX_seq51_2_VE1000.json,http://54.235.29.9/FacialAge/BNav_EC2/DepthDuration/MX_fS_VE_MTurk/MX_fS_HTML.html#161,161,1366,657,1366,768,1-8-2024,14-46-1,49,VR_target_stimuli/s30_1x_2.3_334.png,1000,1x,2.3,2.0,2566,1000,meters,jsons/MX_seq51_2_VE1000.json,276879,472805,22,Woman
49,257680,final-intermixed-textured,v2,jsons/MX_seq51_2_VE1000.json,http://54.235.29.9/FacialAge/BNav_EC2/DepthDuration/MX_fS_VE_MTurk/MX_fS_HTML.html#161,161,1366,657,1366,768,1-8-2024,14-46-1,50,VR_target_stimuli/s16_0.75x_1_217_BC.png,1000,0.75x,1.0,1.0,2585,989,meters,jsons/MX_seq51_2_VE1000.json,276879,472805,22,Woman
50,257680,final-intermixed-textured,v2,jsons/MX_seq51_2_VE1000.json,http://54.235.29.9/FacialAge/BNav_EC2/DepthDuration/MX_fS_VE_MTurk/MX_fS_HTML.html#161,161,1366,657,1366,768,1-8-2024,14-46-1,51,VR_target_stimuli/s17_1x_1.8_291_BC.png,1000,1x,1.8,1.3,4527,1002,meters,jsons/MX_seq51_2_VE1000.json,276879,472805,22,Woman
51,257680,final-intermixed-textured,v2,jsons/MX_seq51_2_VE1000.json,http://54.235.29.9/FacialAge/BNav_EC2/DepthDuration/MX_fS_VE_MTurk/MX_fS_HTML.html#161,161,1366,657,1366,768,1-8-2024,14-46-1,52,VR_target_stimuli/s5_1.3x_4_393.png,1000,1.3x,4.0,1.7,8902,1000,meters,jsons/MX_seq51_2_VE1000.json,276879,472805,22,Woman
52,257680,final-intermixed-textured,v2,jsons/MX_seq51_2_VE1000.json,http://54.235.29.9/FacialAge/BNav_EC2/DepthDuration/MX_fS_VE_MTurk/MX_fS_HTML.html#161,161,1366,657,1366,768,1-8-2024,14-46-1,53,catch_stimuli/c5.png,1000,,,0.0,3847,1012,meters,jsons/MX_seq51_2_VE1000.json,276879,472805,22,Woman
53,257680,final-intermixed-textured,v2,jsons/MX_seq51_2_VE1000.json,http://54.235.29.9/FacialAge/BNav_EC2/DepthDuration/MX_fS_VE_MTurk/MX_fS_HTML.html#161,161,1366,657,1366,768,1-8-2024,14-46-1,54,VR_target_stimuli/s37_0.75x_3.3_567.png,1000,0.75x,3.3,2.0,4255,999,meters,jsons/MX_seq51_2_VE1000.json,276879,472805,22,Woman
54,257680,final-intermixed-textured,v2,jsons/MX_seq51_2_VE1000.json,http://54.235.29.9/FacialAge/BNav_EC2/DepthDuration/MX_fS_VE_MTurk/MX_fS_HTML.html#161,161,1366,657,1366,768,1-8-2024,14-46-1,55,VR_target_stimuli/s46_1.3x_2.42_354.png,1000,1.3x,2.42,2.0,2653,1003,meters,jsons/MX_seq51_2_VE1000.json,276879,472805,22,Woman
55,257680,final-intermixed-textured,v2,jsons/MX_seq51_2_VE1000.json,http://54.235.29.9/FacialAge/BNav_EC2/DepthDuration/MX_fS_VE_MTurk/MX_fS_HTML.html#161,161,1366,657,1366,768,1-8-2024,14-46-1,56,VR_target_stimuli/s22_1x_4.29_354.png,1000,1x,4.29,4.0,3085,996,meters,jsons/MX_seq51_2_VE1000.json,276879,472805,22,Woman
56,257680,final-intermixed-textured,v2,jsons/MX_seq51_2_VE1000.json,http://54.235.29.9/FacialAge/BNav_EC2/DepthDuration/MX_fS_VE_MTurk/MX_fS_HTML.html#161,161,1366,657,1366,768,1-8-2024,14-46-1,57,VR_target_stimuli/s42_0.75x_3.2_301.png,1000,0.75x,3.2,3.0,2778,987,meters,jsons/MX_seq51_2_VE1000.json,276879,472805,22,Woman
57,257680,final-intermixed-textured,v2,jsons/MX_seq51_2_VE1000.json,http://54.235.29.9/FacialAge/BNav_EC2/DepthDuration/MX_fS_VE_MTurk/MX_fS_HTML.html#161,161,1366,657,1366,768,1-8-2024,14-46-1,58,VR_target_stimuli/s25_0.75x_1.4_281_BC.png,1000,0.75x,1.4,1.0,2485,1004,meters,jsons/MX_seq51_2_VE1000.json,276879,472805,22,Woman
58,257680,final-intermixed-textured,v2,jsons/MX_seq51_2_VE1000.json,http://54.235.29.9/FacialAge/BNav_EC2/DepthDuration/MX_fS_VE_MTurk/MX_fS_HTML.html#161,161,1366,657,1366,768,1-8-2024,14-46-1,59,VR_target_stimuli/s50_1.3x_4.53_518_BC.png,1000,1.3x,4.53,2.0,2552,1001,meters,jsons/MX_seq51_2_VE1000.json,276879,472805,22,Woman
59,257680,final-intermixed-textured,v2,jsons/MX_seq51_2_VE1000.json,http://54.235.29.9/FacialAge/BNav_EC2/DepthDuration/MX_fS_VE_MTurk/MX_fS_HTML.html#161,161,1366,657,1366,768,1-8-2024,14-46-1,60,VR_target_stimuli/s53_1x_1.6_387_BC.png,1000,1x,1.6,0.5,4412,1003,meters,jsons/MX_seq51_2_VE1000.json,276879,472805,22,Woman
