,subjID,experimentName,versionName,sequenceName,url,selected_row,windowWidth,windowHeight,screenWidth,screenHeight,startDate,startTime,trial,stimulus,duration,scale,actual_depth,depth_estimate,trial_RT,log_sceneDuration,unitSelection,seq_filepath,experimentTime,totalTime,age,gender
0,274442,final-intermixed-textured,v2,jsons/MX_seq34_2_VE1000_flipped.json,http://54.235.29.9/FacialAge/BNav_EC2/DepthDuration/MX_fS_VE_MTurk/MX_fS_HTML.html#138,138,1536,730,1536,864,1-8-2024,14-57-49,1,VR_target_stimuli/s40_1x_1.2_319_BC.png,1000,1x,1.2,1.5,5550,1002,meters,jsons/MX_seq34_2_VE1000_flipped.json,310657,903325,34,Woman
1,274442,final-intermixed-textured,v2,jsons/MX_seq34_2_VE1000_flipped.json,http://54.235.29.9/FacialAge/BNav_EC2/DepthDuration/MX_fS_VE_MTurk/MX_fS_HTML.html#138,138,1536,730,1536,864,1-8-2024,14-57-49,2,VR_target_stimuli/s41_1.3x_2.1_294.png,1000,1.3x,2.1,1.5,5931,995,meters,jsons/MX_seq34_2_VE1000_flipped.json,310657,903325,34,Woman
2,274442,final-intermixed-textured,v2,jsons/MX_seq34_2_VE1000_flipped.json,http://54.235.29.9/FacialAge/BNav_EC2/DepthDuration/MX_fS_VE_MTurk/MX_fS_HTML.html#138,138,1536,730,1536,864,1-8-2024,14-57-49,3,VR_target_stimuli/s45_0.75x_3.5_362_BC.png,1000,0.75x,3.5,1.8,5533,992,meters,jsons/MX_seq34_2_VE1000_flipped.json,310657,903325,34,Woman
3,274442,final-intermixed-textured,v2,jsons/MX_seq34_2_VE1000_flipped.json,http://54.235.29.9/FacialAge/BNav_EC2/DepthDuration/MX_fS_VE_MTurk/MX_fS_HTML.html#138,138,1536,730,1536,864,1-8-2024,14-57-49,4,VR_target_stimuli/s23_1.3x_3.65_354_BC.png,1000,1.3x,3.65,1.7,4274,1004,meters,jsons/MX_seq34_2_VE1000_flipped.json,310657,903325,34,Woman
4,274442,final-intermixed-textured,v2,jsons/MX_seq34_2_VE1000_flipped.json,http://54.235.29.9/FacialAge/BNav_EC2/DepthDuration/MX_fS_VE_MTurk/MX_fS_HTML.html#138,138,1536,730,1536,864,1-8-2024,14-57-49,5,VR_target_stimuli/s26_1x_4_433.png,1000,1x,4.0,1.5,5052,992,meters,jsons/MX_seq34_2_VE1000_flipped.json,310657,903325,34,Woman
5,274442,final-intermixed-textured,v2,jsons/MX_seq34_2_VE1000_flipped.json,http://54.235.29.9/FacialAge/BNav_EC2/DepthDuration/MX_fS_VE_MTurk/MX_fS_HTML.html#138,138,1536,730,1536,864,1-8-2024,14-57-49,6,VR_target_stimuli/s12_0.75x_3.1_364.png,1000,0.75x,3.1,1.3,4862,992,meters,jsons/MX_seq34_2_VE1000_flipped.json,310657,903325,34,Woman
6,274442,final-intermixed-textured,v2,jsons/MX_seq34_2_VE1000_flipped.json,http://54.235.29.9/FacialAge/BNav_EC2/DepthDuration/MX_fS_VE_MTurk/MX_fS_HTML.html#138,138,1536,730,1536,864,1-8-2024,14-57-49,7,catch_stimuli/c0_BC.png,1000,,,0.0,3936,1000,meters,jsons/MX_seq34_2_VE1000_flipped.json,310657,903325,34,Woman
7,274442,final-intermixed-textured,v2,jsons/MX_seq34_2_VE1000_flipped.json,http://54.235.29.9/FacialAge/BNav_EC2/DepthDuration/MX_fS_VE_MTurk/MX_fS_HTML.html#138,138,1536,730,1536,864,1-8-2024,14-57-49,8,VR_target_stimuli/s30_0.75x_2.3_332.png,1000,0.75x,2.3,1.6,4707,1005,meters,jsons/MX_seq34_2_VE1000_flipped.json,310657,903325,34,Woman
8,274442,final-intermixed-textured,v2,jsons/MX_seq34_2_VE1000_flipped.json,http://54.235.29.9/FacialAge/BNav_EC2/DepthDuration/MX_fS_VE_MTurk/MX_fS_HTML.html#138,138,1536,730,1536,864,1-8-2024,14-57-49,9,VR_target_stimuli/s16_1.3x_1_223.png,1000,1.3x,1.0,1.2,4914,995,meters,jsons/MX_seq34_2_VE1000_flipped.json,310657,903325,34,Woman
9,274442,final-intermixed-textured,v2,jsons/MX_seq34_2_VE1000_flipped.json,http://54.235.29.9/FacialAge/BNav_EC2/DepthDuration/MX_fS_VE_MTurk/MX_fS_HTML.html#138,138,1536,730,1536,864,1-8-2024,14-57-49,10,VR_target_stimuli/s17_1x_1.8_291_BC.png,1000,1x,1.8,1.5,4611,995,meters,jsons/MX_seq34_2_VE1000_flipped.json,310657,903325,34,Woman
10,274442,final-intermixed-textured,v2,jsons/MX_seq34_2_VE1000_flipped.json,http://54.235.29.9/FacialAge/BNav_EC2/DepthDuration/MX_fS_VE_MTurk/MX_fS_HTML.html#138,138,1536,730,1536,864,1-8-2024,14-57-49,11,VR_target_stimuli/s5_1.3x_4_393_BC.png,1000,1.3x,4.0,1.8,4155,1015,meters,jsons/MX_seq34_2_VE1000_flipped.json,310657,903325,34,Woman
11,274442,final-intermixed-textured,v2,jsons/MX_seq34_2_VE1000_flipped.json,http://54.235.29.9/FacialAge/BNav_EC2/DepthDuration/MX_fS_VE_MTurk/MX_fS_HTML.html#138,138,1536,730,1536,864,1-8-2024,14-57-49,12,VR_target_stimuli/s37_0.75x_3.3_567_BC.png,1000,0.75x,3.3,2.2,6112,997,meters,jsons/MX_seq34_2_VE1000_flipped.json,310657,903325,34,Woman
12,274442,final-intermixed-textured,v2,jsons/MX_seq34_2_VE1000_flipped.json,http://54.235.29.9/FacialAge/BNav_EC2/DepthDuration/MX_fS_VE_MTurk/MX_fS_HTML.html#138,138,1536,730,1536,864,1-8-2024,14-57-49,13,VR_target_stimuli/s46_1x_2.42_348.png,1000,1x,2.42,1.8,4327,1001,meters,jsons/MX_seq34_2_VE1000_flipped.json,310657,903325,34,Woman
13,274442,final-intermixed-textured,v2,jsons/MX_seq34_2_VE1000_flipped.json,http://54.235.29.9/FacialAge/BNav_EC2/DepthDuration/MX_fS_VE_MTurk/MX_fS_HTML.html#138,138,1536,730,1536,864,1-8-2024,14-57-49,14,VR_target_stimuli/s22_0.75x_4.29_348_BC.png,1000,0.75x,4.29,2.0,3527,999,meters,jsons/MX_seq34_2_VE1000_flipped.json,310657,903325,34,Woman
14,274442,final-intermixed-textured,v2,jsons/MX_seq34_2_VE1000_flipped.json,http://54.235.29.9/FacialAge/BNav_EC2/DepthDuration/MX_fS_VE_MTurk/MX_fS_HTML.html#138,138,1536,730,1536,864,1-8-2024,14-57-49,15,VR_target_stimuli/s42_1.3x_3.2_305_BC.png,1000,1.3x,3.2,1.7,3986,1010,meters,jsons/MX_seq34_2_VE1000_flipped.json,310657,903325,34,Woman
15,274442,final-intermixed-textured,v2,jsons/MX_seq34_2_VE1000_flipped.json,http://54.235.29.9/FacialAge/BNav_EC2/DepthDuration/MX_fS_VE_MTurk/MX_fS_HTML.html#138,138,1536,730,1536,864,1-8-2024,14-57-49,16,VR_target_stimuli/s25_1x_1.4_290.png,1000,1x,1.4,1.6,5894,1005,meters,jsons/MX_seq34_2_VE1000_flipped.json,310657,903325,34,Woman
16,274442,final-intermixed-textured,v2,jsons/MX_seq34_2_VE1000_flipped.json,http://54.235.29.9/FacialAge/BNav_EC2/DepthDuration/MX_fS_VE_MTurk/MX_fS_HTML.html#138,138,1536,730,1536,864,1-8-2024,14-57-49,17,catch_stimuli/c1_BC.png,1000,,,0.0,3939,1003,meters,jsons/MX_seq34_2_VE1000_flipped.json,310657,903325,34,Woman
17,274442,final-intermixed-textured,v2,jsons/MX_seq34_2_VE1000_flipped.json,http://54.235.29.9/FacialAge/BNav_EC2/DepthDuration/MX_fS_VE_MTurk/MX_fS_HTML.html#138,138,1536,730,1536,864,1-8-2024,14-57-49,18,VR_target_stimuli/s50_1x_4.53_518_BC.png,1000,1x,4.53,1.8,4734,1004,meters,jsons/MX_seq34_2_VE1000_flipped.json,310657,903325,34,Woman
18,274442,final-intermixed-textured,v2,jsons/MX_seq34_2_VE1000_flipped.json,http://54.235.29.9/FacialAge/BNav_EC2/DepthDuration/MX_fS_VE_MTurk/MX_fS_HTML.html#138,138,1536,730,1536,864,1-8-2024,14-57-49,19,VR_target_stimuli/s53_0.75x_1.6_403.png,1000,0.75x,1.6,1.2,4266,1002,meters,jsons/MX_seq34_2_VE1000_flipped.json,310657,903325,34,Woman
19,274442,final-intermixed-textured,v2,jsons/MX_seq34_2_VE1000_flipped.json,http://54.235.29.9/FacialAge/BNav_EC2/DepthDuration/MX_fS_VE_MTurk/MX_fS_HTML.html#138,138,1536,730,1536,864,1-8-2024,14-57-49,20,VR_target_stimuli/s38_1.3x_3.55_358.png,1000,1.3x,3.55,1.6,4203,999,meters,jsons/MX_seq34_2_VE1000_flipped.json,310657,903325,34,Woman
20,274442,final-intermixed-textured,v2,jsons/MX_seq34_2_VE1000_flipped.json,http://54.235.29.9/FacialAge/BNav_EC2/DepthDuration/MX_fS_VE_MTurk/MX_fS_HTML.html#138,138,1536,730,1536,864,1-8-2024,14-57-49,21,VR_target_stimuli/s9_0.75x_1.2_260.png,1000,0.75x,1.2,1.1,6003,994,meters,jsons/MX_seq34_2_VE1000_flipped.json,310657,903325,34,Woman
21,274442,final-intermixed-textured,v2,jsons/MX_seq34_2_VE1000_flipped.json,http://54.235.29.9/FacialAge/BNav_EC2/DepthDuration/MX_fS_VE_MTurk/MX_fS_HTML.html#138,138,1536,730,1536,864,1-8-2024,14-57-49,22,VR_target_stimuli/s44_1x_4.4_317.png,1000,1x,4.4,1.7,4041,1000,meters,jsons/MX_seq34_2_VE1000_flipped.json,310657,903325,34,Woman
22,274442,final-intermixed-textured,v2,jsons/MX_seq34_2_VE1000_flipped.json,http://54.235.29.9/FacialAge/BNav_EC2/DepthDuration/MX_fS_VE_MTurk/MX_fS_HTML.html#138,138,1536,730,1536,864,1-8-2024,14-57-49,23,VR_target_stimuli/s3_1.3x_5_390.png,1000,1.3x,5.0,2.1,5479,999,meters,jsons/MX_seq34_2_VE1000_flipped.json,310657,903325,34,Woman
23,274442,final-intermixed-textured,v2,jsons/MX_seq34_2_VE1000_flipped.json,http://54.235.29.9/FacialAge/BNav_EC2/DepthDuration/MX_fS_VE_MTurk/MX_fS_HTML.html#138,138,1536,730,1536,864,1-8-2024,14-57-49,24,VR_target_stimuli/s1_1x_1.7_262_BC.png,1000,1x,1.7,1.0,5546,994,meters,jsons/MX_seq34_2_VE1000_flipped.json,310657,903325,34,Woman
24,274442,final-intermixed-textured,v2,jsons/MX_seq34_2_VE1000_flipped.json,http://54.235.29.9/FacialAge/BNav_EC2/DepthDuration/MX_fS_VE_MTurk/MX_fS_HTML.html#138,138,1536,730,1536,864,1-8-2024,14-57-49,25,VR_target_stimuli/s11_0.75x_5_359_BC.png,1000,0.75x,5.0,1.5,3925,992,meters,jsons/MX_seq34_2_VE1000_flipped.json,310657,903325,34,Woman
25,274442,final-intermixed-textured,v2,jsons/MX_seq34_2_VE1000_flipped.json,http://54.235.29.9/FacialAge/BNav_EC2/DepthDuration/MX_fS_VE_MTurk/MX_fS_HTML.html#138,138,1536,730,1536,864,1-8-2024,14-57-49,26,catch_stimuli/c2_BC.png,1000,,,0.0,3609,1011,meters,jsons/MX_seq34_2_VE1000_flipped.json,310657,903325,34,Woman
26,274442,final-intermixed-textured,v2,jsons/MX_seq34_2_VE1000_flipped.json,http://54.235.29.9/FacialAge/BNav_EC2/DepthDuration/MX_fS_VE_MTurk/MX_fS_HTML.html#138,138,1536,730,1536,864,1-8-2024,14-57-49,27,VR_target_stimuli/s2_1.3x_2.7_397_BC.png,1000,1.3x,2.7,1.5,4179,1004,meters,jsons/MX_seq34_2_VE1000_flipped.json,310657,903325,34,Woman
27,274442,final-intermixed-textured,v2,jsons/MX_seq34_2_VE1000_flipped.json,http://54.235.29.9/FacialAge/BNav_EC2/DepthDuration/MX_fS_VE_MTurk/MX_fS_HTML.html#138,138,1536,730,1536,864,1-8-2024,14-57-49,28,VR_target_stimuli/s6_1.3x_2.1_298.png,1000,1.3x,2.1,1.3,4256,998,meters,jsons/MX_seq34_2_VE1000_flipped.json,310657,903325,34,Woman
28,274442,final-intermixed-textured,v2,jsons/MX_seq34_2_VE1000_flipped.json,http://54.235.29.9/FacialAge/BNav_EC2/DepthDuration/MX_fS_VE_MTurk/MX_fS_HTML.html#138,138,1536,730,1536,864,1-8-2024,14-57-49,29,VR_target_stimuli/s0_1x_2.6_351.png,1000,1x,2.6,1.5,4425,1010,meters,jsons/MX_seq34_2_VE1000_flipped.json,310657,903325,34,Woman
29,274442,final-intermixed-textured,v2,jsons/MX_seq34_2_VE1000_flipped.json,http://54.235.29.9/FacialAge/BNav_EC2/DepthDuration/MX_fS_VE_MTurk/MX_fS_HTML.html#138,138,1536,730,1536,864,1-8-2024,14-57-49,30,VR_target_stimuli/s34_0.75x_2.8_269.png,1000,0.75x,2.8,1.5,5480,1004,meters,jsons/MX_seq34_2_VE1000_flipped.json,310657,903325,34,Woman
30,274442,final-intermixed-textured,v2,jsons/MX_seq34_2_VE1000_flipped.json,http://54.235.29.9/FacialAge/BNav_EC2/DepthDuration/MX_fS_VE_MTurk/MX_fS_HTML.html#138,138,1536,730,1536,864,1-8-2024,14-57-49,31,VR_target_stimuli/s13_1.3x_2.4_313_BC.png,1000,1.3x,2.4,1.3,5650,1006,meters,jsons/MX_seq34_2_VE1000_flipped.json,310657,903325,34,Woman
31,274442,final-intermixed-textured,v2,jsons/MX_seq34_2_VE1000_flipped.json,http://54.235.29.9/FacialAge/BNav_EC2/DepthDuration/MX_fS_VE_MTurk/MX_fS_HTML.html#138,138,1536,730,1536,864,1-8-2024,14-57-49,32,VR_target_stimuli/s14_0.75x_3.83_355_BC.png,1000,0.75x,3.83,1.6,4247,1005,meters,jsons/MX_seq34_2_VE1000_flipped.json,310657,903325,34,Woman
32,274442,final-intermixed-textured,v2,jsons/MX_seq34_2_VE1000_flipped.json,http://54.235.29.9/FacialAge/BNav_EC2/DepthDuration/MX_fS_VE_MTurk/MX_fS_HTML.html#138,138,1536,730,1536,864,1-8-2024,14-57-49,33,VR_target_stimuli/s47_1x_3.45_370_BC.png,1000,1x,3.45,1.8,4159,996,meters,jsons/MX_seq34_2_VE1000_flipped.json,310657,903325,34,Woman
33,274442,final-intermixed-textured,v2,jsons/MX_seq34_2_VE1000_flipped.json,http://54.235.29.9/FacialAge/BNav_EC2/DepthDuration/MX_fS_VE_MTurk/MX_fS_HTML.html#138,138,1536,730,1536,864,1-8-2024,14-57-49,34,catch_stimuli/c3_BC.png,1000,,,0.0,3815,989,meters,jsons/MX_seq34_2_VE1000_flipped.json,310657,903325,34,Woman
34,274442,final-intermixed-textured,v2,jsons/MX_seq34_2_VE1000_flipped.json,http://54.235.29.9/FacialAge/BNav_EC2/DepthDuration/MX_fS_VE_MTurk/MX_fS_HTML.html#138,138,1536,730,1536,864,1-8-2024,14-57-49,35,VR_target_stimuli/s29_0.75x_1.3_246.png,1000,0.75x,1.3,1.2,3970,1010,meters,jsons/MX_seq34_2_VE1000_flipped.json,310657,903325,34,Woman
35,274442,final-intermixed-textured,v2,jsons/MX_seq34_2_VE1000_flipped.json,http://54.235.29.9/FacialAge/BNav_EC2/DepthDuration/MX_fS_VE_MTurk/MX_fS_HTML.html#138,138,1536,730,1536,864,1-8-2024,14-57-49,36,VR_target_stimuli/s28_1.3x_3.2_365_BC.png,1000,1.3x,3.2,1.5,4297,997,meters,jsons/MX_seq34_2_VE1000_flipped.json,310657,903325,34,Woman
36,274442,final-intermixed-textured,v2,jsons/MX_seq34_2_VE1000_flipped.json,http://54.235.29.9/FacialAge/BNav_EC2/DepthDuration/MX_fS_VE_MTurk/MX_fS_HTML.html#138,138,1536,730,1536,864,1-8-2024,14-57-49,37,VR_target_stimuli/s48_1x_2.55_256_BC.png,1000,1x,2.55,1.3,5511,995,meters,jsons/MX_seq34_2_VE1000_flipped.json,310657,903325,34,Woman
37,274442,final-intermixed-textured,v2,jsons/MX_seq34_2_VE1000_flipped.json,http://54.235.29.9/FacialAge/BNav_EC2/DepthDuration/MX_fS_VE_MTurk/MX_fS_HTML.html#138,138,1536,730,1536,864,1-8-2024,14-57-49,38,VR_target_stimuli/s19_1x_1.21_263.png,1000,1x,1.21,1.1,3979,1014,meters,jsons/MX_seq34_2_VE1000_flipped.json,310657,903325,34,Woman
38,274442,final-intermixed-textured,v2,jsons/MX_seq34_2_VE1000_flipped.json,http://54.235.29.9/FacialAge/BNav_EC2/DepthDuration/MX_fS_VE_MTurk/MX_fS_HTML.html#138,138,1536,730,1536,864,1-8-2024,14-57-49,39,VR_target_stimuli/s21_0.75x_4.22_374_BC.png,1000,0.75x,4.22,1.0,5663,999,meters,jsons/MX_seq34_2_VE1000_flipped.json,310657,903325,34,Woman
39,274442,final-intermixed-textured,v2,jsons/MX_seq34_2_VE1000_flipped.json,http://54.235.29.9/FacialAge/BNav_EC2/DepthDuration/MX_fS_VE_MTurk/MX_fS_HTML.html#138,138,1536,730,1536,864,1-8-2024,14-57-49,40,VR_target_stimuli/s8_1.3x_3.1_345.png,1000,1.3x,3.1,1.5,4522,1012,meters,jsons/MX_seq34_2_VE1000_flipped.json,310657,903325,34,Woman
40,274442,final-intermixed-textured,v2,jsons/MX_seq34_2_VE1000_flipped.json,http://54.235.29.9/FacialAge/BNav_EC2/DepthDuration/MX_fS_VE_MTurk/MX_fS_HTML.html#138,138,1536,730,1536,864,1-8-2024,14-57-49,41,VR_target_stimuli/s27_0.75x_1.76_243_BC.png,1000,0.75x,1.76,1.7,4043,1004,meters,jsons/MX_seq34_2_VE1000_flipped.json,310657,903325,34,Woman
41,274442,final-intermixed-textured,v2,jsons/MX_seq34_2_VE1000_flipped.json,http://54.235.29.9/FacialAge/BNav_EC2/DepthDuration/MX_fS_VE_MTurk/MX_fS_HTML.html#138,138,1536,730,1536,864,1-8-2024,14-57-49,42,VR_target_stimuli/s15_1x_4.2_390_BC.png,1000,1x,4.2,1.8,4049,1001,meters,jsons/MX_seq34_2_VE1000_flipped.json,310657,903325,34,Woman
42,274442,final-intermixed-textured,v2,jsons/MX_seq34_2_VE1000_flipped.json,http://54.235.29.9/FacialAge/BNav_EC2/DepthDuration/MX_fS_VE_MTurk/MX_fS_HTML.html#138,138,1536,730,1536,864,1-8-2024,14-57-49,43,VR_target_stimuli/s4_1.3x_1.4_328.png,1000,1.3x,1.4,1.3,3921,998,meters,jsons/MX_seq34_2_VE1000_flipped.json,310657,903325,34,Woman
43,274442,final-intermixed-textured,v2,jsons/MX_seq34_2_VE1000_flipped.json,http://54.235.29.9/FacialAge/BNav_EC2/DepthDuration/MX_fS_VE_MTurk/MX_fS_HTML.html#138,138,1536,730,1536,864,1-8-2024,14-57-49,44,VR_target_stimuli/s35_1x_2_331.png,1000,1x,2.0,1.5,4394,1001,meters,jsons/MX_seq34_2_VE1000_flipped.json,310657,903325,34,Woman
44,274442,final-intermixed-textured,v2,jsons/MX_seq34_2_VE1000_flipped.json,http://54.235.29.9/FacialAge/BNav_EC2/DepthDuration/MX_fS_VE_MTurk/MX_fS_HTML.html#138,138,1536,730,1536,864,1-8-2024,14-57-49,45,catch_stimuli/c4_BC.png,1000,,,0.0,3476,991,meters,jsons/MX_seq34_2_VE1000_flipped.json,310657,903325,34,Woman
45,274442,final-intermixed-textured,v2,jsons/MX_seq34_2_VE1000_flipped.json,http://54.235.29.9/FacialAge/BNav_EC2/DepthDuration/MX_fS_VE_MTurk/MX_fS_HTML.html#138,138,1536,730,1536,864,1-8-2024,14-57-49,46,VR_target_stimuli/s49_0.75x_4.67_328.png,1000,0.75x,4.67,1.6,3794,1010,meters,jsons/MX_seq34_2_VE1000_flipped.json,310657,903325,34,Woman
46,274442,final-intermixed-textured,v2,jsons/MX_seq34_2_VE1000_flipped.json,http://54.235.29.9/FacialAge/BNav_EC2/DepthDuration/MX_fS_VE_MTurk/MX_fS_HTML.html#138,138,1536,730,1536,864,1-8-2024,14-57-49,47,VR_target_stimuli/s7_1.3x_1.5_256_BC.png,1000,1.3x,1.5,1.4,4095,1000,meters,jsons/MX_seq34_2_VE1000_flipped.json,310657,903325,34,Woman
47,274442,final-intermixed-textured,v2,jsons/MX_seq34_2_VE1000_flipped.json,http://54.235.29.9/FacialAge/BNav_EC2/DepthDuration/MX_fS_VE_MTurk/MX_fS_HTML.html#138,138,1536,730,1536,864,1-8-2024,14-57-49,48,VR_target_stimuli/s20_1.3x_4.99_412_BC.png,1000,1.3x,4.99,1.7,7271,995,meters,jsons/MX_seq34_2_VE1000_flipped.json,310657,903325,34,Woman
48,274442,final-intermixed-textured,v2,jsons/MX_seq34_2_VE1000_flipped.json,http://54.235.29.9/FacialAge/BNav_EC2/DepthDuration/MX_fS_VE_MTurk/MX_fS_HTML.html#138,138,1536,730,1536,864,1-8-2024,14-57-49,49,VR_target_stimuli/s31_1x_4.96_333.png,1000,1x,4.96,1.6,4439,993,meters,jsons/MX_seq34_2_VE1000_flipped.json,310657,903325,34,Woman
49,274442,final-intermixed-textured,v2,jsons/MX_seq34_2_VE1000_flipped.json,http://54.235.29.9/FacialAge/BNav_EC2/DepthDuration/MX_fS_VE_MTurk/MX_fS_HTML.html#138,138,1536,730,1536,864,1-8-2024,14-57-49,50,VR_target_stimuli/s33_0.75x_3.1_361_BC.png,1000,0.75x,3.1,1.5,7198,986,meters,jsons/MX_seq34_2_VE1000_flipped.json,310657,903325,34,Woman
50,274442,final-intermixed-textured,v2,jsons/MX_seq34_2_VE1000_flipped.json,http://54.235.29.9/FacialAge/BNav_EC2/DepthDuration/MX_fS_VE_MTurk/MX_fS_HTML.html#138,138,1536,730,1536,864,1-8-2024,14-57-49,51,VR_target_stimuli/s52_1x_3.2_275_BC.png,1000,1x,3.2,1.7,4816,1005,meters,jsons/MX_seq34_2_VE1000_flipped.json,310657,903325,34,Woman
51,274442,final-intermixed-textured,v2,jsons/MX_seq34_2_VE1000_flipped.json,http://54.235.29.9/FacialAge/BNav_EC2/DepthDuration/MX_fS_VE_MTurk/MX_fS_HTML.html#138,138,1536,730,1536,864,1-8-2024,14-57-49,52,VR_target_stimuli/s32_1.3x_1.5_224.png,1000,1.3x,1.5,1.3,4792,992,meters,jsons/MX_seq34_2_VE1000_flipped.json,310657,903325,34,Woman
52,274442,final-intermixed-textured,v2,jsons/MX_seq34_2_VE1000_flipped.json,http://54.235.29.9/FacialAge/BNav_EC2/DepthDuration/MX_fS_VE_MTurk/MX_fS_HTML.html#138,138,1536,730,1536,864,1-8-2024,14-57-49,53,catch_stimuli/c5_BC.png,1000,,,0.0,3820,994,meters,jsons/MX_seq34_2_VE1000_flipped.json,310657,903325,34,Woman
53,274442,final-intermixed-textured,v2,jsons/MX_seq34_2_VE1000_flipped.json,http://54.235.29.9/FacialAge/BNav_EC2/DepthDuration/MX_fS_VE_MTurk/MX_fS_HTML.html#138,138,1536,730,1536,864,1-8-2024,14-57-49,54,VR_target_stimuli/s18_0.75x_2.25_341.png,1000,0.75x,2.25,1.2,4103,1004,meters,jsons/MX_seq34_2_VE1000_flipped.json,310657,903325,34,Woman
54,274442,final-intermixed-textured,v2,jsons/MX_seq34_2_VE1000_flipped.json,http://54.235.29.9/FacialAge/BNav_EC2/DepthDuration/MX_fS_VE_MTurk/MX_fS_HTML.html#138,138,1536,730,1536,864,1-8-2024,14-57-49,55,VR_target_stimuli/s39_1.3x_1_208.png,1000,1.3x,1.0,1.0,3722,1004,meters,jsons/MX_seq34_2_VE1000_flipped.json,310657,903325,34,Woman
55,274442,final-intermixed-textured,v2,jsons/MX_seq34_2_VE1000_flipped.json,http://54.235.29.9/FacialAge/BNav_EC2/DepthDuration/MX_fS_VE_MTurk/MX_fS_HTML.html#138,138,1536,730,1536,864,1-8-2024,14-57-49,56,VR_target_stimuli/s51_1x_3.64_461.png,1000,1x,3.64,1.3,5006,1010,meters,jsons/MX_seq34_2_VE1000_flipped.json,310657,903325,34,Woman
56,274442,final-intermixed-textured,v2,jsons/MX_seq34_2_VE1000_flipped.json,http://54.235.29.9/FacialAge/BNav_EC2/DepthDuration/MX_fS_VE_MTurk/MX_fS_HTML.html#138,138,1536,730,1536,864,1-8-2024,14-57-49,57,VR_target_stimuli/s43_0.75x_2.2_348.png,1000,0.75x,2.2,1.5,3942,1001,meters,jsons/MX_seq34_2_VE1000_flipped.json,310657,903325,34,Woman
57,274442,final-intermixed-textured,v2,jsons/MX_seq34_2_VE1000_flipped.json,http://54.235.29.9/FacialAge/BNav_EC2/DepthDuration/MX_fS_VE_MTurk/MX_fS_HTML.html#138,138,1536,730,1536,864,1-8-2024,14-57-49,58,VR_target_stimuli/s24_0.75x_3.3_344_BC.png,1000,0.75x,3.3,1.6,6234,1012,meters,jsons/MX_seq34_2_VE1000_flipped.json,310657,903325,34,Woman
58,274442,final-intermixed-textured,v2,jsons/MX_seq34_2_VE1000_flipped.json,http://54.235.29.9/FacialAge/BNav_EC2/DepthDuration/MX_fS_VE_MTurk/MX_fS_HTML.html#138,138,1536,730,1536,864,1-8-2024,14-57-49,59,VR_target_stimuli/s10_1.3x_2.7_325_BC.png,1000,1.3x,2.7,1.5,5225,1005,meters,jsons/MX_seq34_2_VE1000_flipped.json,310657,903325,34,Woman
59,274442,final-intermixed-textured,v2,jsons/MX_seq34_2_VE1000_flipped.json,http://54.235.29.9/FacialAge/BNav_EC2/DepthDuration/MX_fS_VE_MTurk/MX_fS_HTML.html#138,138,1536,730,1536,864,1-8-2024,14-57-49,60,VR_target_stimuli/s36_1x_4.1_423_BC.png,1000,1x,4.1,1.8,4602,1002,meters,jsons/MX_seq34_2_VE1000_flipped.json,310657,903325,34,Woman
