,subjID,experimentName,versionName,sequenceName,url,selected_row,windowWidth,windowHeight,screenWidth,screenHeight,startDate,startTime,trial,stimulus,duration,scale,actual_depth,depth_estimate,trial_RT,log_sceneDuration,unitSelection,seq_filepath,experimentTime,totalTime,age,gender
0,289806,final-intermixed-textured,v2,jsons/MX_seq39_1_VE1000.json,http://54.235.29.9/FacialAge/BNav_EC2/DepthDuration/MX_fS_VE_MTurk/MX_fS_HTML.html#178,178,1920,953,1920,1080,1-8-2024,17-28-10,1,VR_target_stimuli/s12_1.3x_3.1_375.png,1000,1.3x,3.1,8,6440,1007,feet,jsons/MX_seq39_1_VE1000.json,276902,521282,53,Woman
1,289806,final-intermixed-textured,v2,jsons/MX_seq39_1_VE1000.json,http://54.235.29.9/FacialAge/BNav_EC2/DepthDuration/MX_fS_VE_MTurk/MX_fS_HTML.html#178,178,1920,953,1920,1080,1-8-2024,17-28-10,2,VR_target_stimuli/s30_0.75x_2.3_332.png,1000,0.75x,2.3,7,4478,995,feet,jsons/MX_seq39_1_VE1000.json,276902,521282,53,Woman
2,289806,final-intermixed-textured,v2,jsons/MX_seq39_1_VE1000.json,http://54.235.29.9/FacialAge/BNav_EC2/DepthDuration/MX_fS_VE_MTurk/MX_fS_HTML.html#178,178,1920,953,1920,1080,1-8-2024,17-28-10,3,VR_target_stimuli/s16_1x_1_219_BC.png,1000,1x,1.0,5,5253,1001,feet,jsons/MX_seq39_1_VE1000.json,276902,521282,53,Woman
3,289806,final-intermixed-textured,v2,jsons/MX_seq39_1_VE1000.json,http://54.235.29.9/FacialAge/BNav_EC2/DepthDuration/MX_fS_VE_MTurk/MX_fS_HTML.html#178,178,1920,953,1920,1080,1-8-2024,17-28-10,4,VR_target_stimuli/s17_0.75x_1.8_285_BC.png,1000,0.75x,1.8,6,5119,999,feet,jsons/MX_seq39_1_VE1000.json,276902,521282,53,Woman
4,289806,final-intermixed-textured,v2,jsons/MX_seq39_1_VE1000.json,http://54.235.29.9/FacialAge/BNav_EC2/DepthDuration/MX_fS_VE_MTurk/MX_fS_HTML.html#178,178,1920,953,1920,1080,1-8-2024,17-28-10,5,VR_target_stimuli/s5_1.3x_4_393_BC.png,1000,1.3x,4.0,10,3984,1004,feet,jsons/MX_seq39_1_VE1000.json,276902,521282,53,Woman
5,289806,final-intermixed-textured,v2,jsons/MX_seq39_1_VE1000.json,http://54.235.29.9/FacialAge/BNav_EC2/DepthDuration/MX_fS_VE_MTurk/MX_fS_HTML.html#178,178,1920,953,1920,1080,1-8-2024,17-28-10,6,VR_target_stimuli/s37_1x_3.3_563.png,1000,1x,3.3,8,4652,988,feet,jsons/MX_seq39_1_VE1000.json,276902,521282,53,Woman
6,289806,final-intermixed-textured,v2,jsons/MX_seq39_1_VE1000.json,http://54.235.29.9/FacialAge/BNav_EC2/DepthDuration/MX_fS_VE_MTurk/MX_fS_HTML.html#178,178,1920,953,1920,1080,1-8-2024,17-28-10,7,catch_stimuli/c0.png,1000,,,0,4376,1002,feet,jsons/MX_seq39_1_VE1000.json,276902,521282,53,Woman
7,289806,final-intermixed-textured,v2,jsons/MX_seq39_1_VE1000.json,http://54.235.29.9/FacialAge/BNav_EC2/DepthDuration/MX_fS_VE_MTurk/MX_fS_HTML.html#178,178,1920,953,1920,1080,1-8-2024,17-28-10,8,VR_target_stimuli/s46_1x_2.42_348.png,1000,1x,2.42,9,4220,1002,feet,jsons/MX_seq39_1_VE1000.json,276902,521282,53,Woman
8,289806,final-intermixed-textured,v2,jsons/MX_seq39_1_VE1000.json,http://54.235.29.9/FacialAge/BNav_EC2/DepthDuration/MX_fS_VE_MTurk/MX_fS_HTML.html#178,178,1920,953,1920,1080,1-8-2024,17-28-10,9,VR_target_stimuli/s22_0.75x_4.29_348_BC.png,1000,0.75x,4.29,10,4257,988,feet,jsons/MX_seq39_1_VE1000.json,276902,521282,53,Woman
9,289806,final-intermixed-textured,v2,jsons/MX_seq39_1_VE1000.json,http://54.235.29.9/FacialAge/BNav_EC2/DepthDuration/MX_fS_VE_MTurk/MX_fS_HTML.html#178,178,1920,953,1920,1080,1-8-2024,17-28-10,10,VR_target_stimuli/s42_1.3x_3.2_305.png,1000,1.3x,3.2,8,4215,1003,feet,jsons/MX_seq39_1_VE1000.json,276902,521282,53,Woman
10,289806,final-intermixed-textured,v2,jsons/MX_seq39_1_VE1000.json,http://54.235.29.9/FacialAge/BNav_EC2/DepthDuration/MX_fS_VE_MTurk/MX_fS_HTML.html#178,178,1920,953,1920,1080,1-8-2024,17-28-10,11,VR_target_stimuli/s25_0.75x_1.4_281.png,1000,0.75x,1.4,5,3996,998,feet,jsons/MX_seq39_1_VE1000.json,276902,521282,53,Woman
11,289806,final-intermixed-textured,v2,jsons/MX_seq39_1_VE1000.json,http://54.235.29.9/FacialAge/BNav_EC2/DepthDuration/MX_fS_VE_MTurk/MX_fS_HTML.html#178,178,1920,953,1920,1080,1-8-2024,17-28-10,12,VR_target_stimuli/s50_1x_4.53_518_BC.png,1000,1x,4.53,7,3673,999,feet,jsons/MX_seq39_1_VE1000.json,276902,521282,53,Woman
12,289806,final-intermixed-textured,v2,jsons/MX_seq39_1_VE1000.json,http://54.235.29.9/FacialAge/BNav_EC2/DepthDuration/MX_fS_VE_MTurk/MX_fS_HTML.html#178,178,1920,953,1920,1080,1-8-2024,17-28-10,13,VR_target_stimuli/s53_1.3x_1.6_355_BC.png,1000,1.3x,1.6,5,3528,1005,feet,jsons/MX_seq39_1_VE1000.json,276902,521282,53,Woman
13,289806,final-intermixed-textured,v2,jsons/MX_seq39_1_VE1000.json,http://54.235.29.9/FacialAge/BNav_EC2/DepthDuration/MX_fS_VE_MTurk/MX_fS_HTML.html#178,178,1920,953,1920,1080,1-8-2024,17-28-10,14,VR_target_stimuli/s38_1x_3.55_353_BC.png,1000,1x,3.55,8,7282,994,feet,jsons/MX_seq39_1_VE1000.json,276902,521282,53,Woman
14,289806,final-intermixed-textured,v2,jsons/MX_seq39_1_VE1000.json,http://54.235.29.9/FacialAge/BNav_EC2/DepthDuration/MX_fS_VE_MTurk/MX_fS_HTML.html#178,178,1920,953,1920,1080,1-8-2024,17-28-10,15,VR_target_stimuli/s9_0.75x_1.2_260.png,1000,0.75x,1.2,3,4558,1019,feet,jsons/MX_seq39_1_VE1000.json,276902,521282,53,Woman
15,289806,final-intermixed-textured,v2,jsons/MX_seq39_1_VE1000.json,http://54.235.29.9/FacialAge/BNav_EC2/DepthDuration/MX_fS_VE_MTurk/MX_fS_HTML.html#178,178,1920,953,1920,1080,1-8-2024,17-28-10,16,VR_target_stimuli/s44_1.3x_4.4_325_BC.png,1000,1.3x,4.4,10,4912,1005,feet,jsons/MX_seq39_1_VE1000.json,276902,521282,53,Woman
16,289806,final-intermixed-textured,v2,jsons/MX_seq39_1_VE1000.json,http://54.235.29.9/FacialAge/BNav_EC2/DepthDuration/MX_fS_VE_MTurk/MX_fS_HTML.html#178,178,1920,953,1920,1080,1-8-2024,17-28-10,17,catch_stimuli/c1.png,1000,,,0,4026,1003,feet,jsons/MX_seq39_1_VE1000.json,276902,521282,53,Woman
17,289806,final-intermixed-textured,v2,jsons/MX_seq39_1_VE1000.json,http://54.235.29.9/FacialAge/BNav_EC2/DepthDuration/MX_fS_VE_MTurk/MX_fS_HTML.html#178,178,1920,953,1920,1080,1-8-2024,17-28-10,18,VR_target_stimuli/s3_1.3x_5_390.png,1000,1.3x,5.0,12,5198,1001,feet,jsons/MX_seq39_1_VE1000.json,276902,521282,53,Woman
18,289806,final-intermixed-textured,v2,jsons/MX_seq39_1_VE1000.json,http://54.235.29.9/FacialAge/BNav_EC2/DepthDuration/MX_fS_VE_MTurk/MX_fS_HTML.html#178,178,1920,953,1920,1080,1-8-2024,17-28-10,19,VR_target_stimuli/s1_1x_1.7_262.png,1000,1x,1.7,5,4162,1001,feet,jsons/MX_seq39_1_VE1000.json,276902,521282,53,Woman
19,289806,final-intermixed-textured,v2,jsons/MX_seq39_1_VE1000.json,http://54.235.29.9/FacialAge/BNav_EC2/DepthDuration/MX_fS_VE_MTurk/MX_fS_HTML.html#178,178,1920,953,1920,1080,1-8-2024,17-28-10,20,VR_target_stimuli/s11_0.75x_5_359_BC.png,1000,0.75x,5.0,12,3699,1001,feet,jsons/MX_seq39_1_VE1000.json,276902,521282,53,Woman
20,289806,final-intermixed-textured,v2,jsons/MX_seq39_1_VE1000.json,http://54.235.29.9/FacialAge/BNav_EC2/DepthDuration/MX_fS_VE_MTurk/MX_fS_HTML.html#178,178,1920,953,1920,1080,1-8-2024,17-28-10,21,VR_target_stimuli/s2_1x_2.7_390.png,1000,1x,2.7,7,4084,984,feet,jsons/MX_seq39_1_VE1000.json,276902,521282,53,Woman
21,289806,final-intermixed-textured,v2,jsons/MX_seq39_1_VE1000.json,http://54.235.29.9/FacialAge/BNav_EC2/DepthDuration/MX_fS_VE_MTurk/MX_fS_HTML.html#178,178,1920,953,1920,1080,1-8-2024,17-28-10,22,VR_target_stimuli/s6_1.3x_2.1_298_BC.png,1000,1.3x,2.1,5,4039,1004,feet,jsons/MX_seq39_1_VE1000.json,276902,521282,53,Woman
22,289806,final-intermixed-textured,v2,jsons/MX_seq39_1_VE1000.json,http://54.235.29.9/FacialAge/BNav_EC2/DepthDuration/MX_fS_VE_MTurk/MX_fS_HTML.html#178,178,1920,953,1920,1080,1-8-2024,17-28-10,23,VR_target_stimuli/s0_0.75x_2.6_345.png,1000,0.75x,2.6,6,3788,1017,feet,jsons/MX_seq39_1_VE1000.json,276902,521282,53,Woman
23,289806,final-intermixed-textured,v2,jsons/MX_seq39_1_VE1000.json,http://54.235.29.9/FacialAge/BNav_EC2/DepthDuration/MX_fS_VE_MTurk/MX_fS_HTML.html#178,178,1920,953,1920,1080,1-8-2024,17-28-10,24,VR_target_stimuli/s34_1.3x_2.8_294.png,1000,1.3x,2.8,8,3490,1002,feet,jsons/MX_seq39_1_VE1000.json,276902,521282,53,Woman
24,289806,final-intermixed-textured,v2,jsons/MX_seq39_1_VE1000.json,http://54.235.29.9/FacialAge/BNav_EC2/DepthDuration/MX_fS_VE_MTurk/MX_fS_HTML.html#178,178,1920,953,1920,1080,1-8-2024,17-28-10,25,VR_target_stimuli/s13_1x_2.4_310_BC.png,1000,1x,2.4,7,3626,1002,feet,jsons/MX_seq39_1_VE1000.json,276902,521282,53,Woman
25,289806,final-intermixed-textured,v2,jsons/MX_seq39_1_VE1000.json,http://54.235.29.9/FacialAge/BNav_EC2/DepthDuration/MX_fS_VE_MTurk/MX_fS_HTML.html#178,178,1920,953,1920,1080,1-8-2024,17-28-10,26,catch_stimuli/c2.png,1000,,,0,3872,1000,feet,jsons/MX_seq39_1_VE1000.json,276902,521282,53,Woman
26,289806,final-intermixed-textured,v2,jsons/MX_seq39_1_VE1000.json,http://54.235.29.9/FacialAge/BNav_EC2/DepthDuration/MX_fS_VE_MTurk/MX_fS_HTML.html#178,178,1920,953,1920,1080,1-8-2024,17-28-10,27,VR_target_stimuli/s14_0.75x_3.83_355_BC.png,1000,0.75x,3.83,7,4755,1009,feet,jsons/MX_seq39_1_VE1000.json,276902,521282,53,Woman
27,289806,final-intermixed-textured,v2,jsons/MX_seq39_1_VE1000.json,http://54.235.29.9/FacialAge/BNav_EC2/DepthDuration/MX_fS_VE_MTurk/MX_fS_HTML.html#178,178,1920,953,1920,1080,1-8-2024,17-28-10,28,VR_target_stimuli/s47_0.75x_3.45_366.png,1000,0.75x,3.45,5,3912,1002,feet,jsons/MX_seq39_1_VE1000.json,276902,521282,53,Woman
28,289806,final-intermixed-textured,v2,jsons/MX_seq39_1_VE1000.json,http://54.235.29.9/FacialAge/BNav_EC2/DepthDuration/MX_fS_VE_MTurk/MX_fS_HTML.html#178,178,1920,953,1920,1080,1-8-2024,17-28-10,29,VR_target_stimuli/s29_1.3x_1.3_253_BC.png,1000,1.3x,1.3,4,3574,993,feet,jsons/MX_seq39_1_VE1000.json,276902,521282,53,Woman
29,289806,final-intermixed-textured,v2,jsons/MX_seq39_1_VE1000.json,http://54.235.29.9/FacialAge/BNav_EC2/DepthDuration/MX_fS_VE_MTurk/MX_fS_HTML.html#178,178,1920,953,1920,1080,1-8-2024,17-28-10,30,VR_target_stimuli/s28_1x_3.2_362_BC.png,1000,1x,3.2,6,3806,1008,feet,jsons/MX_seq39_1_VE1000.json,276902,521282,53,Woman
30,289806,final-intermixed-textured,v2,jsons/MX_seq39_1_VE1000.json,http://54.235.29.9/FacialAge/BNav_EC2/DepthDuration/MX_fS_VE_MTurk/MX_fS_HTML.html#178,178,1920,953,1920,1080,1-8-2024,17-28-10,31,VR_target_stimuli/s48_0.75x_2.55_243_BC.png,1000,0.75x,2.55,6,3423,1007,feet,jsons/MX_seq39_1_VE1000.json,276902,521282,53,Woman
31,289806,final-intermixed-textured,v2,jsons/MX_seq39_1_VE1000.json,http://54.235.29.9/FacialAge/BNav_EC2/DepthDuration/MX_fS_VE_MTurk/MX_fS_HTML.html#178,178,1920,953,1920,1080,1-8-2024,17-28-10,32,VR_target_stimuli/s19_1x_1.21_263.png,1000,1x,1.21,3,4490,1004,feet,jsons/MX_seq39_1_VE1000.json,276902,521282,53,Woman
32,289806,final-intermixed-textured,v2,jsons/MX_seq39_1_VE1000.json,http://54.235.29.9/FacialAge/BNav_EC2/DepthDuration/MX_fS_VE_MTurk/MX_fS_HTML.html#178,178,1920,953,1920,1080,1-8-2024,17-28-10,33,VR_target_stimuli/s21_1.3x_4.22_384.png,1000,1.3x,4.22,9,3859,1018,feet,jsons/MX_seq39_1_VE1000.json,276902,521282,53,Woman
33,289806,final-intermixed-textured,v2,jsons/MX_seq39_1_VE1000.json,http://54.235.29.9/FacialAge/BNav_EC2/DepthDuration/MX_fS_VE_MTurk/MX_fS_HTML.html#178,178,1920,953,1920,1080,1-8-2024,17-28-10,34,catch_stimuli/c3.png,1000,,,0,3712,992,feet,jsons/MX_seq39_1_VE1000.json,276902,521282,53,Woman
34,289806,final-intermixed-textured,v2,jsons/MX_seq39_1_VE1000.json,http://54.235.29.9/FacialAge/BNav_EC2/DepthDuration/MX_fS_VE_MTurk/MX_fS_HTML.html#178,178,1920,953,1920,1080,1-8-2024,17-28-10,35,VR_target_stimuli/s8_1x_3.1_332.png,1000,1x,3.1,7,3873,988,feet,jsons/MX_seq39_1_VE1000.json,276902,521282,53,Woman
35,289806,final-intermixed-textured,v2,jsons/MX_seq39_1_VE1000.json,http://54.235.29.9/FacialAge/BNav_EC2/DepthDuration/MX_fS_VE_MTurk/MX_fS_HTML.html#178,178,1920,953,1920,1080,1-8-2024,17-28-10,36,VR_target_stimuli/s27_0.75x_1.76_243_BC.png,1000,0.75x,1.76,6,3966,999,feet,jsons/MX_seq39_1_VE1000.json,276902,521282,53,Woman
36,289806,final-intermixed-textured,v2,jsons/MX_seq39_1_VE1000.json,http://54.235.29.9/FacialAge/BNav_EC2/DepthDuration/MX_fS_VE_MTurk/MX_fS_HTML.html#178,178,1920,953,1920,1080,1-8-2024,17-28-10,37,VR_target_stimuli/s15_1.3x_4.2_389.png,1000,1.3x,4.2,9,3451,1010,feet,jsons/MX_seq39_1_VE1000.json,276902,521282,53,Woman
37,289806,final-intermixed-textured,v2,jsons/MX_seq39_1_VE1000.json,http://54.235.29.9/FacialAge/BNav_EC2/DepthDuration/MX_fS_VE_MTurk/MX_fS_HTML.html#178,178,1920,953,1920,1080,1-8-2024,17-28-10,38,VR_target_stimuli/s4_1.3x_1.4_328_BC.png,1000,1.3x,1.4,4,3936,999,feet,jsons/MX_seq39_1_VE1000.json,276902,521282,53,Woman
38,289806,final-intermixed-textured,v2,jsons/MX_seq39_1_VE1000.json,http://54.235.29.9/FacialAge/BNav_EC2/DepthDuration/MX_fS_VE_MTurk/MX_fS_HTML.html#178,178,1920,953,1920,1080,1-8-2024,17-28-10,39,VR_target_stimuli/s35_1x_2_331_BC.png,1000,1x,2.0,6,3548,1003,feet,jsons/MX_seq39_1_VE1000.json,276902,521282,53,Woman
39,289806,final-intermixed-textured,v2,jsons/MX_seq39_1_VE1000.json,http://54.235.29.9/FacialAge/BNav_EC2/DepthDuration/MX_fS_VE_MTurk/MX_fS_HTML.html#178,178,1920,953,1920,1080,1-8-2024,17-28-10,40,VR_target_stimuli/s49_0.75x_4.67_328.png,1000,0.75x,4.67,9,3812,992,feet,jsons/MX_seq39_1_VE1000.json,276902,521282,53,Woman
40,289806,final-intermixed-textured,v2,jsons/MX_seq39_1_VE1000.json,http://54.235.29.9/FacialAge/BNav_EC2/DepthDuration/MX_fS_VE_MTurk/MX_fS_HTML.html#178,178,1920,953,1920,1080,1-8-2024,17-28-10,41,VR_target_stimuli/s7_1x_1.5_255_BC.png,1000,1x,1.5,5,4460,1000,feet,jsons/MX_seq39_1_VE1000.json,276902,521282,53,Woman
41,289806,final-intermixed-textured,v2,jsons/MX_seq39_1_VE1000.json,http://54.235.29.9/FacialAge/BNav_EC2/DepthDuration/MX_fS_VE_MTurk/MX_fS_HTML.html#178,178,1920,953,1920,1080,1-8-2024,17-28-10,42,VR_target_stimuli/s20_1.3x_4.99_412.png,1000,1.3x,4.99,8,3865,1000,feet,jsons/MX_seq39_1_VE1000.json,276902,521282,53,Woman
42,289806,final-intermixed-textured,v2,jsons/MX_seq39_1_VE1000.json,http://54.235.29.9/FacialAge/BNav_EC2/DepthDuration/MX_fS_VE_MTurk/MX_fS_HTML.html#178,178,1920,953,1920,1080,1-8-2024,17-28-10,43,VR_target_stimuli/s31_0.75x_4.96_329.png,1000,0.75x,4.96,5,4623,999,feet,jsons/MX_seq39_1_VE1000.json,276902,521282,53,Woman
43,289806,final-intermixed-textured,v2,jsons/MX_seq39_1_VE1000.json,http://54.235.29.9/FacialAge/BNav_EC2/DepthDuration/MX_fS_VE_MTurk/MX_fS_HTML.html#178,178,1920,953,1920,1080,1-8-2024,17-28-10,44,VR_target_stimuli/s33_1.3x_3.1_378_BC.png,1000,1.3x,3.1,6,3922,1015,feet,jsons/MX_seq39_1_VE1000.json,276902,521282,53,Woman
44,289806,final-intermixed-textured,v2,jsons/MX_seq39_1_VE1000.json,http://54.235.29.9/FacialAge/BNav_EC2/DepthDuration/MX_fS_VE_MTurk/MX_fS_HTML.html#178,178,1920,953,1920,1080,1-8-2024,17-28-10,45,catch_stimuli/c4.png,1000,,,0,3923,983,feet,jsons/MX_seq39_1_VE1000.json,276902,521282,53,Woman
45,289806,final-intermixed-textured,v2,jsons/MX_seq39_1_VE1000.json,http://54.235.29.9/FacialAge/BNav_EC2/DepthDuration/MX_fS_VE_MTurk/MX_fS_HTML.html#178,178,1920,953,1920,1080,1-8-2024,17-28-10,46,VR_target_stimuli/s52_1x_3.2_275.png,1000,1x,3.2,8,4081,1003,feet,jsons/MX_seq39_1_VE1000.json,276902,521282,53,Woman
46,289806,final-intermixed-textured,v2,jsons/MX_seq39_1_VE1000.json,http://54.235.29.9/FacialAge/BNav_EC2/DepthDuration/MX_fS_VE_MTurk/MX_fS_HTML.html#178,178,1920,953,1920,1080,1-8-2024,17-28-10,47,VR_target_stimuli/s32_0.75x_1.5_213_BC.png,1000,0.75x,1.5,6,3321,1003,feet,jsons/MX_seq39_1_VE1000.json,276902,521282,53,Woman
47,289806,final-intermixed-textured,v2,jsons/MX_seq39_1_VE1000.json,http://54.235.29.9/FacialAge/BNav_EC2/DepthDuration/MX_fS_VE_MTurk/MX_fS_HTML.html#178,178,1920,953,1920,1080,1-8-2024,17-28-10,48,VR_target_stimuli/s18_0.75x_2.25_341_BC.png,1000,0.75x,2.25,6,3084,1004,feet,jsons/MX_seq39_1_VE1000.json,276902,521282,53,Woman
48,289806,final-intermixed-textured,v2,jsons/MX_seq39_1_VE1000.json,http://54.235.29.9/FacialAge/BNav_EC2/DepthDuration/MX_fS_VE_MTurk/MX_fS_HTML.html#178,178,1920,953,1920,1080,1-8-2024,17-28-10,49,VR_target_stimuli/s39_1.3x_1_208.png,1000,1.3x,1.0,3,3318,1003,feet,jsons/MX_seq39_1_VE1000.json,276902,521282,53,Woman
49,289806,final-intermixed-textured,v2,jsons/MX_seq39_1_VE1000.json,http://54.235.29.9/FacialAge/BNav_EC2/DepthDuration/MX_fS_VE_MTurk/MX_fS_HTML.html#178,178,1920,953,1920,1080,1-8-2024,17-28-10,50,VR_target_stimuli/s51_1x_3.64_461.png,1000,1x,3.64,5,3981,992,feet,jsons/MX_seq39_1_VE1000.json,276902,521282,53,Woman
50,289806,final-intermixed-textured,v2,jsons/MX_seq39_1_VE1000.json,http://54.235.29.9/FacialAge/BNav_EC2/DepthDuration/MX_fS_VE_MTurk/MX_fS_HTML.html#178,178,1920,953,1920,1080,1-8-2024,17-28-10,51,VR_target_stimuli/s43_1.3x_2.2_363_BC.png,1000,1.3x,2.2,5,3590,1003,feet,jsons/MX_seq39_1_VE1000.json,276902,521282,53,Woman
51,289806,final-intermixed-textured,v2,jsons/MX_seq39_1_VE1000.json,http://54.235.29.9/FacialAge/BNav_EC2/DepthDuration/MX_fS_VE_MTurk/MX_fS_HTML.html#178,178,1920,953,1920,1080,1-8-2024,17-28-10,52,VR_target_stimuli/s24_0.75x_3.3_344.png,1000,0.75x,3.3,7,3734,1003,feet,jsons/MX_seq39_1_VE1000.json,276902,521282,53,Woman
52,289806,final-intermixed-textured,v2,jsons/MX_seq39_1_VE1000.json,http://54.235.29.9/FacialAge/BNav_EC2/DepthDuration/MX_fS_VE_MTurk/MX_fS_HTML.html#178,178,1920,953,1920,1080,1-8-2024,17-28-10,53,catch_stimuli/c5.png,1000,,,0,4197,1002,feet,jsons/MX_seq39_1_VE1000.json,276902,521282,53,Woman
53,289806,final-intermixed-textured,v2,jsons/MX_seq39_1_VE1000.json,http://54.235.29.9/FacialAge/BNav_EC2/DepthDuration/MX_fS_VE_MTurk/MX_fS_HTML.html#178,178,1920,953,1920,1080,1-8-2024,17-28-10,54,VR_target_stimuli/s10_1x_2.7_324_BC.png,1000,1x,2.7,7,4011,1005,feet,jsons/MX_seq39_1_VE1000.json,276902,521282,53,Woman
54,289806,final-intermixed-textured,v2,jsons/MX_seq39_1_VE1000.json,http://54.235.29.9/FacialAge/BNav_EC2/DepthDuration/MX_fS_VE_MTurk/MX_fS_HTML.html#178,178,1920,953,1920,1080,1-8-2024,17-28-10,55,VR_target_stimuli/s36_0.75x_4.1_407_BC.png,1000,0.75x,4.1,8,4092,1000,feet,jsons/MX_seq39_1_VE1000.json,276902,521282,53,Woman
55,289806,final-intermixed-textured,v2,jsons/MX_seq39_1_VE1000.json,http://54.235.29.9/FacialAge/BNav_EC2/DepthDuration/MX_fS_VE_MTurk/MX_fS_HTML.html#178,178,1920,953,1920,1080,1-8-2024,17-28-10,56,VR_target_stimuli/s40_1.3x_1.2_332.png,1000,1.3x,1.2,3,3674,1004,feet,jsons/MX_seq39_1_VE1000.json,276902,521282,53,Woman
56,289806,final-intermixed-textured,v2,jsons/MX_seq39_1_VE1000.json,http://54.235.29.9/FacialAge/BNav_EC2/DepthDuration/MX_fS_VE_MTurk/MX_fS_HTML.html#178,178,1920,953,1920,1080,1-8-2024,17-28-10,57,VR_target_stimuli/s41_1x_2.1_286_BC.png,1000,1x,2.1,4,4056,1005,feet,jsons/MX_seq39_1_VE1000.json,276902,521282,53,Woman
57,289806,final-intermixed-textured,v2,jsons/MX_seq39_1_VE1000.json,http://54.235.29.9/FacialAge/BNav_EC2/DepthDuration/MX_fS_VE_MTurk/MX_fS_HTML.html#178,178,1920,953,1920,1080,1-8-2024,17-28-10,58,VR_target_stimuli/s45_1x_3.5_368.png,1000,1x,3.5,6,3773,1003,feet,jsons/MX_seq39_1_VE1000.json,276902,521282,53,Woman
58,289806,final-intermixed-textured,v2,jsons/MX_seq39_1_VE1000.json,http://54.235.29.9/FacialAge/BNav_EC2/DepthDuration/MX_fS_VE_MTurk/MX_fS_HTML.html#178,178,1920,953,1920,1080,1-8-2024,17-28-10,59,VR_target_stimuli/s23_0.75x_3.65_351.png,1000,0.75x,3.65,8,3523,996,feet,jsons/MX_seq39_1_VE1000.json,276902,521282,53,Woman
59,289806,final-intermixed-textured,v2,jsons/MX_seq39_1_VE1000.json,http://54.235.29.9/FacialAge/BNav_EC2/DepthDuration/MX_fS_VE_MTurk/MX_fS_HTML.html#178,178,1920,953,1920,1080,1-8-2024,17-28-10,60,VR_target_stimuli/s26_1.3x_4_441_BC.png,1000,1.3x,4.0,7,4048,1002,feet,jsons/MX_seq39_1_VE1000.json,276902,521282,53,Woman
