,subjID,experimentName,versionName,sequenceName,url,selected_row,windowWidth,windowHeight,screenWidth,screenHeight,startDate,startTime,trial,stimulus,duration,scale,actual_depth,depth_estimate,trial_RT,log_sceneDuration,unitSelection,seq_filepath,experimentTime,totalTime,age,gender
0,295403,final-intermixed-textured,v2,jsons/MX_seq46_1_VE1000.json,http://54.235.29.9/FacialAge/BNav_EC2/DepthDuration/MX_fS_VE_MTurk/MX_fS_HTML.html#3,3,1238,696,1238,696,1-8-2024,13-35-15,1,VR_target_stimuli/s22_1.3x_4.29_364_BC.png,1000,1.3x,4.29,35.0,16729,1000,meters,jsons/MX_seq46_1_VE1000.json,950687,1324698,21,Woman
1,295403,final-intermixed-textured,v2,jsons/MX_seq46_1_VE1000.json,http://54.235.29.9/FacialAge/BNav_EC2/DepthDuration/MX_fS_VE_MTurk/MX_fS_HTML.html#3,3,1238,696,1238,696,1-8-2024,13-35-15,2,VR_target_stimuli/s42_0.75x_3.2_301_BC.png,1000,0.75x,3.2,0.0,7949,1000,meters,jsons/MX_seq46_1_VE1000.json,950687,1324698,21,Woman
2,295403,final-intermixed-textured,v2,jsons/MX_seq46_1_VE1000.json,http://54.235.29.9/FacialAge/BNav_EC2/DepthDuration/MX_fS_VE_MTurk/MX_fS_HTML.html#3,3,1238,696,1238,696,1-8-2024,13-35-15,3,VR_target_stimuli/s25_1x_1.4_290.png,1000,1x,1.4,0.75,7816,1009,meters,jsons/MX_seq46_1_VE1000.json,950687,1324698,21,Woman
3,295403,final-intermixed-textured,v2,jsons/MX_seq46_1_VE1000.json,http://54.235.29.9/FacialAge/BNav_EC2/DepthDuration/MX_fS_VE_MTurk/MX_fS_HTML.html#3,3,1238,696,1238,696,1-8-2024,13-35-15,4,VR_target_stimuli/s50_0.75x_4.53_517.png,1000,0.75x,4.53,0.0,5248,1005,meters,jsons/MX_seq46_1_VE1000.json,950687,1324698,21,Woman
4,295403,final-intermixed-textured,v2,jsons/MX_seq46_1_VE1000.json,http://54.235.29.9/FacialAge/BNav_EC2/DepthDuration/MX_fS_VE_MTurk/MX_fS_HTML.html#3,3,1238,696,1238,696,1-8-2024,13-35-15,5,VR_target_stimuli/s53_1.3x_1.6_355.png,1000,1.3x,1.6,0.1,11588,998,meters,jsons/MX_seq46_1_VE1000.json,950687,1324698,21,Woman
5,295403,final-intermixed-textured,v2,jsons/MX_seq46_1_VE1000.json,http://54.235.29.9/FacialAge/BNav_EC2/DepthDuration/MX_fS_VE_MTurk/MX_fS_HTML.html#3,3,1238,696,1238,696,1-8-2024,13-35-15,6,VR_target_stimuli/s38_1x_3.55_353_BC.png,1000,1x,3.55,0.62,9714,1010,meters,jsons/MX_seq46_1_VE1000.json,950687,1324698,21,Woman
6,295403,final-intermixed-textured,v2,jsons/MX_seq46_1_VE1000.json,http://54.235.29.9/FacialAge/BNav_EC2/DepthDuration/MX_fS_VE_MTurk/MX_fS_HTML.html#3,3,1238,696,1238,696,1-8-2024,13-35-15,7,catch_stimuli/c0.png,1000,,,0.0,5238,990,meters,jsons/MX_seq46_1_VE1000.json,950687,1324698,21,Woman
7,295403,final-intermixed-textured,v2,jsons/MX_seq46_1_VE1000.json,http://54.235.29.9/FacialAge/BNav_EC2/DepthDuration/MX_fS_VE_MTurk/MX_fS_HTML.html#3,3,1238,696,1238,696,1-8-2024,13-35-15,8,VR_target_stimuli/s9_1x_1.2_263.png,1000,1x,1.2,0.75,10936,1009,meters,jsons/MX_seq46_1_VE1000.json,950687,1324698,21,Woman
8,295403,final-intermixed-textured,v2,jsons/MX_seq46_1_VE1000.json,http://54.235.29.9/FacialAge/BNav_EC2/DepthDuration/MX_fS_VE_MTurk/MX_fS_HTML.html#3,3,1238,696,1238,696,1-8-2024,13-35-15,9,VR_target_stimuli/s44_0.75x_4.4_314.png,1000,0.75x,4.4,0.05,14583,1001,meters,jsons/MX_seq46_1_VE1000.json,950687,1324698,21,Woman
9,295403,final-intermixed-textured,v2,jsons/MX_seq46_1_VE1000.json,http://54.235.29.9/FacialAge/BNav_EC2/DepthDuration/MX_fS_VE_MTurk/MX_fS_HTML.html#3,3,1238,696,1238,696,1-8-2024,13-35-15,10,VR_target_stimuli/s3_1.3x_5_390.png,1000,1.3x,5.0,0.65,9944,1002,meters,jsons/MX_seq46_1_VE1000.json,950687,1324698,21,Woman
10,295403,final-intermixed-textured,v2,jsons/MX_seq46_1_VE1000.json,http://54.235.29.9/FacialAge/BNav_EC2/DepthDuration/MX_fS_VE_MTurk/MX_fS_HTML.html#3,3,1238,696,1238,696,1-8-2024,13-35-15,11,VR_target_stimuli/s1_0.75x_1.7_265_BC.png,1000,0.75x,1.7,0.6,22546,988,meters,jsons/MX_seq46_1_VE1000.json,950687,1324698,21,Woman
11,295403,final-intermixed-textured,v2,jsons/MX_seq46_1_VE1000.json,http://54.235.29.9/FacialAge/BNav_EC2/DepthDuration/MX_fS_VE_MTurk/MX_fS_HTML.html#3,3,1238,696,1238,696,1-8-2024,13-35-15,12,VR_target_stimuli/s11_1x_5_361_BC.png,1000,1x,5.0,0.45,13345,1000,meters,jsons/MX_seq46_1_VE1000.json,950687,1324698,21,Woman
12,295403,final-intermixed-textured,v2,jsons/MX_seq46_1_VE1000.json,http://54.235.29.9/FacialAge/BNav_EC2/DepthDuration/MX_fS_VE_MTurk/MX_fS_HTML.html#3,3,1238,696,1238,696,1-8-2024,13-35-15,13,VR_target_stimuli/s2_1.3x_2.7_397_BC.png,1000,1.3x,2.7,0.62,6361,998,meters,jsons/MX_seq46_1_VE1000.json,950687,1324698,21,Woman
13,295403,final-intermixed-textured,v2,jsons/MX_seq46_1_VE1000.json,http://54.235.29.9/FacialAge/BNav_EC2/DepthDuration/MX_fS_VE_MTurk/MX_fS_HTML.html#3,3,1238,696,1238,696,1-8-2024,13-35-15,14,VR_target_stimuli/s6_1x_2.1_293_BC.png,1000,1x,2.1,0.67,9580,992,meters,jsons/MX_seq46_1_VE1000.json,950687,1324698,21,Woman
14,295403,final-intermixed-textured,v2,jsons/MX_seq46_1_VE1000.json,http://54.235.29.9/FacialAge/BNav_EC2/DepthDuration/MX_fS_VE_MTurk/MX_fS_HTML.html#3,3,1238,696,1238,696,1-8-2024,13-35-15,15,VR_target_stimuli/s0_0.75x_2.6_345.png,1000,0.75x,2.6,0.75,6149,994,meters,jsons/MX_seq46_1_VE1000.json,950687,1324698,21,Woman
15,295403,final-intermixed-textured,v2,jsons/MX_seq46_1_VE1000.json,http://54.235.29.9/FacialAge/BNav_EC2/DepthDuration/MX_fS_VE_MTurk/MX_fS_HTML.html#3,3,1238,696,1238,696,1-8-2024,13-35-15,16,VR_target_stimuli/s34_1.3x_2.8_294.png,1000,1.3x,2.8,0.1,11918,1001,meters,jsons/MX_seq46_1_VE1000.json,950687,1324698,21,Woman
16,295403,final-intermixed-textured,v2,jsons/MX_seq46_1_VE1000.json,http://54.235.29.9/FacialAge/BNav_EC2/DepthDuration/MX_fS_VE_MTurk/MX_fS_HTML.html#3,3,1238,696,1238,696,1-8-2024,13-35-15,17,catch_stimuli/c1.png,1000,,,0.0,4980,998,meters,jsons/MX_seq46_1_VE1000.json,950687,1324698,21,Woman
17,295403,final-intermixed-textured,v2,jsons/MX_seq46_1_VE1000.json,http://54.235.29.9/FacialAge/BNav_EC2/DepthDuration/MX_fS_VE_MTurk/MX_fS_HTML.html#3,3,1238,696,1238,696,1-8-2024,13-35-15,18,VR_target_stimuli/s13_1.3x_2.4_313_BC.png,1000,1.3x,2.4,0.55,6481,995,meters,jsons/MX_seq46_1_VE1000.json,950687,1324698,21,Woman
18,295403,final-intermixed-textured,v2,jsons/MX_seq46_1_VE1000.json,http://54.235.29.9/FacialAge/BNav_EC2/DepthDuration/MX_fS_VE_MTurk/MX_fS_HTML.html#3,3,1238,696,1238,696,1-8-2024,13-35-15,19,VR_target_stimuli/s14_1x_ 3.83_357.png,1000,1x,3.83,0.4,9158,994,meters,jsons/MX_seq46_1_VE1000.json,950687,1324698,21,Woman
19,295403,final-intermixed-textured,v2,jsons/MX_seq46_1_VE1000.json,http://54.235.29.9/FacialAge/BNav_EC2/DepthDuration/MX_fS_VE_MTurk/MX_fS_HTML.html#3,3,1238,696,1238,696,1-8-2024,13-35-15,20,VR_target_stimuli/s47_0.75x_3.45_366_BC.png,1000,0.75x,3.45,0.5,9398,998,meters,jsons/MX_seq46_1_VE1000.json,950687,1324698,21,Woman
20,295403,final-intermixed-textured,v2,jsons/MX_seq46_1_VE1000.json,http://54.235.29.9/FacialAge/BNav_EC2/DepthDuration/MX_fS_VE_MTurk/MX_fS_HTML.html#3,3,1238,696,1238,696,1-8-2024,13-35-15,21,VR_target_stimuli/s29_1x_1.3_250_BC.png,1000,1x,1.3,0.5,5841,991,meters,jsons/MX_seq46_1_VE1000.json,950687,1324698,21,Woman
21,295403,final-intermixed-textured,v2,jsons/MX_seq46_1_VE1000.json,http://54.235.29.9/FacialAge/BNav_EC2/DepthDuration/MX_fS_VE_MTurk/MX_fS_HTML.html#3,3,1238,696,1238,696,1-8-2024,13-35-15,22,VR_target_stimuli/s28_1.3x_3.2_365.png,1000,1.3x,3.2,1.0,18797,1013,meters,jsons/MX_seq46_1_VE1000.json,950687,1324698,21,Woman
22,295403,final-intermixed-textured,v2,jsons/MX_seq46_1_VE1000.json,http://54.235.29.9/FacialAge/BNav_EC2/DepthDuration/MX_fS_VE_MTurk/MX_fS_HTML.html#3,3,1238,696,1238,696,1-8-2024,13-35-15,23,VR_target_stimuli/s48_0.75x_2.55_243_BC.png,1000,0.75x,2.55,0.03,5822,1004,meters,jsons/MX_seq46_1_VE1000.json,950687,1324698,21,Woman
23,295403,final-intermixed-textured,v2,jsons/MX_seq46_1_VE1000.json,http://54.235.29.9/FacialAge/BNav_EC2/DepthDuration/MX_fS_VE_MTurk/MX_fS_HTML.html#3,3,1238,696,1238,696,1-8-2024,13-35-15,24,VR_target_stimuli/s19_1.3x_1.21_270_BC.png,1000,1.3x,1.21,0.4,13629,984,meters,jsons/MX_seq46_1_VE1000.json,950687,1324698,21,Woman
24,295403,final-intermixed-textured,v2,jsons/MX_seq46_1_VE1000.json,http://54.235.29.9/FacialAge/BNav_EC2/DepthDuration/MX_fS_VE_MTurk/MX_fS_HTML.html#3,3,1238,696,1238,696,1-8-2024,13-35-15,25,VR_target_stimuli/s21_1x_4.22_379.png,1000,1x,4.22,0.45,9387,999,meters,jsons/MX_seq46_1_VE1000.json,950687,1324698,21,Woman
25,295403,final-intermixed-textured,v2,jsons/MX_seq46_1_VE1000.json,http://54.235.29.9/FacialAge/BNav_EC2/DepthDuration/MX_fS_VE_MTurk/MX_fS_HTML.html#3,3,1238,696,1238,696,1-8-2024,13-35-15,26,catch_stimuli/c2.png,1000,,,0.0,7189,991,meters,jsons/MX_seq46_1_VE1000.json,950687,1324698,21,Woman
26,295403,final-intermixed-textured,v2,jsons/MX_seq46_1_VE1000.json,http://54.235.29.9/FacialAge/BNav_EC2/DepthDuration/MX_fS_VE_MTurk/MX_fS_HTML.html#3,3,1238,696,1238,696,1-8-2024,13-35-15,27,VR_target_stimuli/s8_0.75x_3.1_325.png,1000,0.75x,3.1,0.4,7507,1004,meters,jsons/MX_seq46_1_VE1000.json,950687,1324698,21,Woman
27,295403,final-intermixed-textured,v2,jsons/MX_seq46_1_VE1000.json,http://54.235.29.9/FacialAge/BNav_EC2/DepthDuration/MX_fS_VE_MTurk/MX_fS_HTML.html#3,3,1238,696,1238,696,1-8-2024,13-35-15,28,VR_target_stimuli/s27_0.75x_1.76_243.png,1000,0.75x,1.76,0.47,157620,1002,meters,jsons/MX_seq46_1_VE1000.json,950687,1324698,21,Woman
28,295403,final-intermixed-textured,v2,jsons/MX_seq46_1_VE1000.json,http://54.235.29.9/FacialAge/BNav_EC2/DepthDuration/MX_fS_VE_MTurk/MX_fS_HTML.html#3,3,1238,696,1238,696,1-8-2024,13-35-15,29,VR_target_stimuli/s15_1.3x_4.2_389.png,1000,1.3x,4.2,0.5,6064,1000,meters,jsons/MX_seq46_1_VE1000.json,950687,1324698,21,Woman
29,295403,final-intermixed-textured,v2,jsons/MX_seq46_1_VE1000.json,http://54.235.29.9/FacialAge/BNav_EC2/DepthDuration/MX_fS_VE_MTurk/MX_fS_HTML.html#3,3,1238,696,1238,696,1-8-2024,13-35-15,30,VR_target_stimuli/s4_1x_1.4_313.png,1000,1x,1.4,0.55,28723,1003,meters,jsons/MX_seq46_1_VE1000.json,950687,1324698,21,Woman
30,295403,final-intermixed-textured,v2,jsons/MX_seq46_1_VE1000.json,http://54.235.29.9/FacialAge/BNav_EC2/DepthDuration/MX_fS_VE_MTurk/MX_fS_HTML.html#3,3,1238,696,1238,696,1-8-2024,13-35-15,31,VR_target_stimuli/s35_0.75x_2_323_BC.png,1000,0.75x,2.0,0.55,6704,998,meters,jsons/MX_seq46_1_VE1000.json,950687,1324698,21,Woman
31,295403,final-intermixed-textured,v2,jsons/MX_seq46_1_VE1000.json,http://54.235.29.9/FacialAge/BNav_EC2/DepthDuration/MX_fS_VE_MTurk/MX_fS_HTML.html#3,3,1238,696,1238,696,1-8-2024,13-35-15,32,VR_target_stimuli/s49_1x_4.67_341_BC.png,1000,1x,4.67,0.3,6227,1002,meters,jsons/MX_seq46_1_VE1000.json,950687,1324698,21,Woman
32,295403,final-intermixed-textured,v2,jsons/MX_seq46_1_VE1000.json,http://54.235.29.9/FacialAge/BNav_EC2/DepthDuration/MX_fS_VE_MTurk/MX_fS_HTML.html#3,3,1238,696,1238,696,1-8-2024,13-35-15,33,VR_target_stimuli/s7_1.3x_1.5_256_BC.png,1000,1.3x,1.5,0.4,9395,1000,meters,jsons/MX_seq46_1_VE1000.json,950687,1324698,21,Woman
33,295403,final-intermixed-textured,v2,jsons/MX_seq46_1_VE1000.json,http://54.235.29.9/FacialAge/BNav_EC2/DepthDuration/MX_fS_VE_MTurk/MX_fS_HTML.html#3,3,1238,696,1238,696,1-8-2024,13-35-15,34,catch_stimuli/c3.png,1000,,,0.0,4026,1002,meters,jsons/MX_seq46_1_VE1000.json,950687,1324698,21,Woman
34,295403,final-intermixed-textured,v2,jsons/MX_seq46_1_VE1000.json,http://54.235.29.9/FacialAge/BNav_EC2/DepthDuration/MX_fS_VE_MTurk/MX_fS_HTML.html#3,3,1238,696,1238,696,1-8-2024,13-35-15,35,VR_target_stimuli/s20_1x_4.99_398_BC.png,1000,1x,4.99,0.7,6636,1002,meters,jsons/MX_seq46_1_VE1000.json,950687,1324698,21,Woman
35,295403,final-intermixed-textured,v2,jsons/MX_seq46_1_VE1000.json,http://54.235.29.9/FacialAge/BNav_EC2/DepthDuration/MX_fS_VE_MTurk/MX_fS_HTML.html#3,3,1238,696,1238,696,1-8-2024,13-35-15,36,VR_target_stimuli/s31_0.75x_4.96_329_BC.png,1000,0.75x,4.96,0.1,13067,999,meters,jsons/MX_seq46_1_VE1000.json,950687,1324698,21,Woman
36,295403,final-intermixed-textured,v2,jsons/MX_seq46_1_VE1000.json,http://54.235.29.9/FacialAge/BNav_EC2/DepthDuration/MX_fS_VE_MTurk/MX_fS_HTML.html#3,3,1238,696,1238,696,1-8-2024,13-35-15,37,VR_target_stimuli/s33_1.3x_3.1_378.png,1000,1.3x,3.1,0.48,11764,1004,meters,jsons/MX_seq46_1_VE1000.json,950687,1324698,21,Woman
37,295403,final-intermixed-textured,v2,jsons/MX_seq46_1_VE1000.json,http://54.235.29.9/FacialAge/BNav_EC2/DepthDuration/MX_fS_VE_MTurk/MX_fS_HTML.html#3,3,1238,696,1238,696,1-8-2024,13-35-15,38,VR_target_stimuli/s52_1.3x_3.2_280_BC.png,1000,1.3x,3.2,0.1,11015,992,meters,jsons/MX_seq46_1_VE1000.json,950687,1324698,21,Woman
38,295403,final-intermixed-textured,v2,jsons/MX_seq46_1_VE1000.json,http://54.235.29.9/FacialAge/BNav_EC2/DepthDuration/MX_fS_VE_MTurk/MX_fS_HTML.html#3,3,1238,696,1238,696,1-8-2024,13-35-15,39,VR_target_stimuli/s32_1x_1.5_218.png,1000,1x,1.5,0.01,8365,988,meters,jsons/MX_seq46_1_VE1000.json,950687,1324698,21,Woman
39,295403,final-intermixed-textured,v2,jsons/MX_seq46_1_VE1000.json,http://54.235.29.9/FacialAge/BNav_EC2/DepthDuration/MX_fS_VE_MTurk/MX_fS_HTML.html#3,3,1238,696,1238,696,1-8-2024,13-35-15,40,VR_target_stimuli/s18_0.75x_2.25_341.png,1000,0.75x,2.25,0.4,12978,1004,meters,jsons/MX_seq46_1_VE1000.json,950687,1324698,21,Woman
40,295403,final-intermixed-textured,v2,jsons/MX_seq46_1_VE1000.json,http://54.235.29.9/FacialAge/BNav_EC2/DepthDuration/MX_fS_VE_MTurk/MX_fS_HTML.html#3,3,1238,696,1238,696,1-8-2024,13-35-15,41,VR_target_stimuli/s39_1x_1_207_BC.png,1000,1x,1.0,0.38,104497,1005,meters,jsons/MX_seq46_1_VE1000.json,950687,1324698,21,Woman
41,295403,final-intermixed-textured,v2,jsons/MX_seq46_1_VE1000.json,http://54.235.29.9/FacialAge/BNav_EC2/DepthDuration/MX_fS_VE_MTurk/MX_fS_HTML.html#3,3,1238,696,1238,696,1-8-2024,13-35-15,42,VR_target_stimuli/s51_1.3x_3.64_479.png,1000,1.3x,3.64,1.2,11281,999,meters,jsons/MX_seq46_1_VE1000.json,950687,1324698,21,Woman
42,295403,final-intermixed-textured,v2,jsons/MX_seq46_1_VE1000.json,http://54.235.29.9/FacialAge/BNav_EC2/DepthDuration/MX_fS_VE_MTurk/MX_fS_HTML.html#3,3,1238,696,1238,696,1-8-2024,13-35-15,43,VR_target_stimuli/s43_0.75x_2.2_348_BC.png,1000,0.75x,2.2,0.6,7377,1011,meters,jsons/MX_seq46_1_VE1000.json,950687,1324698,21,Woman
43,295403,final-intermixed-textured,v2,jsons/MX_seq46_1_VE1000.json,http://54.235.29.9/FacialAge/BNav_EC2/DepthDuration/MX_fS_VE_MTurk/MX_fS_HTML.html#3,3,1238,696,1238,696,1-8-2024,13-35-15,44,VR_target_stimuli/s24_1.3x_3.3_352_BC.png,1000,1.3x,3.3,0.5,101648,1004,meters,jsons/MX_seq46_1_VE1000.json,950687,1324698,21,Woman
44,295403,final-intermixed-textured,v2,jsons/MX_seq46_1_VE1000.json,http://54.235.29.9/FacialAge/BNav_EC2/DepthDuration/MX_fS_VE_MTurk/MX_fS_HTML.html#3,3,1238,696,1238,696,1-8-2024,13-35-15,45,catch_stimuli/c4.png,1000,,,0.0,4729,994,meters,jsons/MX_seq46_1_VE1000.json,950687,1324698,21,Woman
45,295403,final-intermixed-textured,v2,jsons/MX_seq46_1_VE1000.json,http://54.235.29.9/FacialAge/BNav_EC2/DepthDuration/MX_fS_VE_MTurk/MX_fS_HTML.html#3,3,1238,696,1238,696,1-8-2024,13-35-15,46,VR_target_stimuli/s10_1x_2.7_324.png,1000,1x,2.7,0.45,9242,997,meters,jsons/MX_seq46_1_VE1000.json,950687,1324698,21,Woman
46,295403,final-intermixed-textured,v2,jsons/MX_seq46_1_VE1000.json,http://54.235.29.9/FacialAge/BNav_EC2/DepthDuration/MX_fS_VE_MTurk/MX_fS_HTML.html#3,3,1238,696,1238,696,1-8-2024,13-35-15,47,VR_target_stimuli/s36_0.75x_4.1_407.png,1000,0.75x,4.1,0.5,5836,994,meters,jsons/MX_seq46_1_VE1000.json,950687,1324698,21,Woman
47,295403,final-intermixed-textured,v2,jsons/MX_seq46_1_VE1000.json,http://54.235.29.9/FacialAge/BNav_EC2/DepthDuration/MX_fS_VE_MTurk/MX_fS_HTML.html#3,3,1238,696,1238,696,1-8-2024,13-35-15,48,VR_target_stimuli/s40_0.75x_1.2_308.png,1000,0.75x,1.2,0.76,11482,999,meters,jsons/MX_seq46_1_VE1000.json,950687,1324698,21,Woman
48,295403,final-intermixed-textured,v2,jsons/MX_seq46_1_VE1000.json,http://54.235.29.9/FacialAge/BNav_EC2/DepthDuration/MX_fS_VE_MTurk/MX_fS_HTML.html#3,3,1238,696,1238,696,1-8-2024,13-35-15,49,VR_target_stimuli/s41_1.3x_2.1_294.png,1000,1.3x,2.1,0.0,8790,998,meters,jsons/MX_seq46_1_VE1000.json,950687,1324698,21,Woman
49,295403,final-intermixed-textured,v2,jsons/MX_seq46_1_VE1000.json,http://54.235.29.9/FacialAge/BNav_EC2/DepthDuration/MX_fS_VE_MTurk/MX_fS_HTML.html#3,3,1238,696,1238,696,1-8-2024,13-35-15,50,VR_target_stimuli/s45_1x_3.5_368_BC.png,1000,1x,3.5,0.55,7336,992,meters,jsons/MX_seq46_1_VE1000.json,950687,1324698,21,Woman
50,295403,final-intermixed-textured,v2,jsons/MX_seq46_1_VE1000.json,http://54.235.29.9/FacialAge/BNav_EC2/DepthDuration/MX_fS_VE_MTurk/MX_fS_HTML.html#3,3,1238,696,1238,696,1-8-2024,13-35-15,51,VR_target_stimuli/s23_1.3x_3.65_354_BC.png,1000,1.3x,3.65,0.5,5915,1010,meters,jsons/MX_seq46_1_VE1000.json,950687,1324698,21,Woman
51,295403,final-intermixed-textured,v2,jsons/MX_seq46_1_VE1000.json,http://54.235.29.9/FacialAge/BNav_EC2/DepthDuration/MX_fS_VE_MTurk/MX_fS_HTML.html#3,3,1238,696,1238,696,1-8-2024,13-35-15,52,VR_target_stimuli/s26_0.75x_4_430_BC.png,1000,0.75x,4.0,0.65,8273,988,meters,jsons/MX_seq46_1_VE1000.json,950687,1324698,21,Woman
52,295403,final-intermixed-textured,v2,jsons/MX_seq46_1_VE1000.json,http://54.235.29.9/FacialAge/BNav_EC2/DepthDuration/MX_fS_VE_MTurk/MX_fS_HTML.html#3,3,1238,696,1238,696,1-8-2024,13-35-15,53,catch_stimuli/c5.png,1000,,,0.45,9208,1006,meters,jsons/MX_seq46_1_VE1000.json,950687,1324698,21,Woman
53,295403,final-intermixed-textured,v2,jsons/MX_seq46_1_VE1000.json,http://54.235.29.9/FacialAge/BNav_EC2/DepthDuration/MX_fS_VE_MTurk/MX_fS_HTML.html#3,3,1238,696,1238,696,1-8-2024,13-35-15,54,VR_target_stimuli/s12_1x_3.1_372.png,1000,1x,3.1,0.5,5745,1002,meters,jsons/MX_seq46_1_VE1000.json,950687,1324698,21,Woman
54,295403,final-intermixed-textured,v2,jsons/MX_seq46_1_VE1000.json,http://54.235.29.9/FacialAge/BNav_EC2/DepthDuration/MX_fS_VE_MTurk/MX_fS_HTML.html#3,3,1238,696,1238,696,1-8-2024,13-35-15,55,VR_target_stimuli/s30_0.75x_2.3_332_BC.png,1000,0.75x,2.3,0.38,10392,995,meters,jsons/MX_seq46_1_VE1000.json,950687,1324698,21,Woman
55,295403,final-intermixed-textured,v2,jsons/MX_seq46_1_VE1000.json,http://54.235.29.9/FacialAge/BNav_EC2/DepthDuration/MX_fS_VE_MTurk/MX_fS_HTML.html#3,3,1238,696,1238,696,1-8-2024,13-35-15,56,VR_target_stimuli/s16_1.3x_1_223.png,1000,1.3x,1.0,0.52,20029,994,meters,jsons/MX_seq46_1_VE1000.json,950687,1324698,21,Woman
56,295403,final-intermixed-textured,v2,jsons/MX_seq46_1_VE1000.json,http://54.235.29.9/FacialAge/BNav_EC2/DepthDuration/MX_fS_VE_MTurk/MX_fS_HTML.html#3,3,1238,696,1238,696,1-8-2024,13-35-15,57,VR_target_stimuli/s17_1x_1.8_291.png,1000,1x,1.8,0.35,13899,1000,meters,jsons/MX_seq46_1_VE1000.json,950687,1324698,21,Woman
57,295403,final-intermixed-textured,v2,jsons/MX_seq46_1_VE1000.json,http://54.235.29.9/FacialAge/BNav_EC2/DepthDuration/MX_fS_VE_MTurk/MX_fS_HTML.html#3,3,1238,696,1238,696,1-8-2024,13-35-15,58,VR_target_stimuli/s5_1x_4_378_BC.png,1000,1x,4.0,0.4,6220,1028,meters,jsons/MX_seq46_1_VE1000.json,950687,1324698,21,Woman
58,295403,final-intermixed-textured,v2,jsons/MX_seq46_1_VE1000.json,http://54.235.29.9/FacialAge/BNav_EC2/DepthDuration/MX_fS_VE_MTurk/MX_fS_HTML.html#3,3,1238,696,1238,696,1-8-2024,13-35-15,59,VR_target_stimuli/s37_0.75x_3.3_567.png,1000,0.75x,3.3,2.0,6954,1007,meters,jsons/MX_seq46_1_VE1000.json,950687,1324698,21,Woman
59,295403,final-intermixed-textured,v2,jsons/MX_seq46_1_VE1000.json,http://54.235.29.9/FacialAge/BNav_EC2/DepthDuration/MX_fS_VE_MTurk/MX_fS_HTML.html#3,3,1238,696,1238,696,1-8-2024,13-35-15,60,VR_target_stimuli/s46_1.3x_2.42_354_BC.png,1000,1.3x,2.42,0.5,10923,1004,meters,jsons/MX_seq46_1_VE1000.json,950687,1324698,21,Woman
