,subjID,experimentName,versionName,sequenceName,url,selected_row,windowWidth,windowHeight,screenWidth,screenHeight,startDate,startTime,trial,stimulus,duration,scale,actual_depth,depth_estimate,trial_RT,log_sceneDuration,unitSelection,seq_filepath,experimentTime,totalTime,age,gender
0,330568,final-intermixed-textured,v2,jsons/MX_seq30_1_VE1000.json,http://54.235.29.9/FacialAge/BNav_EC2/DepthDuration/MX_fS_VE_MTurk/MX_fS_HTML.html#248,248,1280,683,1280,800,1-8-2024,20-45-4,1,VR_target_stimuli/s43_1.3x_2.2_363.png,1000,1.3x,2.2,6.0,11273,995,meters,jsons/MX_seq30_1_VE1000.json,394710,937841,30,Woman
1,330568,final-intermixed-textured,v2,jsons/MX_seq30_1_VE1000.json,http://54.235.29.9/FacialAge/BNav_EC2/DepthDuration/MX_fS_VE_MTurk/MX_fS_HTML.html#248,248,1280,683,1280,800,1-8-2024,20-45-4,2,VR_target_stimuli/s24_0.75x_3.3_344.png,1000,0.75x,3.3,10.0,8950,999,meters,jsons/MX_seq30_1_VE1000.json,394710,937841,30,Woman
2,330568,final-intermixed-textured,v2,jsons/MX_seq30_1_VE1000.json,http://54.235.29.9/FacialAge/BNav_EC2/DepthDuration/MX_fS_VE_MTurk/MX_fS_HTML.html#248,248,1280,683,1280,800,1-8-2024,20-45-4,3,VR_target_stimuli/s10_1x_2.7_324.png,1000,1x,2.7,4.0,6366,996,meters,jsons/MX_seq30_1_VE1000.json,394710,937841,30,Woman
3,330568,final-intermixed-textured,v2,jsons/MX_seq30_1_VE1000.json,http://54.235.29.9/FacialAge/BNav_EC2/DepthDuration/MX_fS_VE_MTurk/MX_fS_HTML.html#248,248,1280,683,1280,800,1-8-2024,20-45-4,4,VR_target_stimuli/s36_0.75x_4.1_407_BC.png,1000,0.75x,4.1,7.0,12863,999,meters,jsons/MX_seq30_1_VE1000.json,394710,937841,30,Woman
4,330568,final-intermixed-textured,v2,jsons/MX_seq30_1_VE1000.json,http://54.235.29.9/FacialAge/BNav_EC2/DepthDuration/MX_fS_VE_MTurk/MX_fS_HTML.html#248,248,1280,683,1280,800,1-8-2024,20-45-4,5,VR_target_stimuli/s40_1.3x_1.2_332_BC.png,1000,1.3x,1.2,2.0,7054,1001,meters,jsons/MX_seq30_1_VE1000.json,394710,937841,30,Woman
5,330568,final-intermixed-textured,v2,jsons/MX_seq30_1_VE1000.json,http://54.235.29.9/FacialAge/BNav_EC2/DepthDuration/MX_fS_VE_MTurk/MX_fS_HTML.html#248,248,1280,683,1280,800,1-8-2024,20-45-4,6,VR_target_stimuli/s41_1x_2.1_286_BC.png,1000,1x,2.1,2.5,7432,1001,meters,jsons/MX_seq30_1_VE1000.json,394710,937841,30,Woman
6,330568,final-intermixed-textured,v2,jsons/MX_seq30_1_VE1000.json,http://54.235.29.9/FacialAge/BNav_EC2/DepthDuration/MX_fS_VE_MTurk/MX_fS_HTML.html#248,248,1280,683,1280,800,1-8-2024,20-45-4,7,catch_stimuli/c0.png,1000,,,0.0,3912,999,meters,jsons/MX_seq30_1_VE1000.json,394710,937841,30,Woman
7,330568,final-intermixed-textured,v2,jsons/MX_seq30_1_VE1000.json,http://54.235.29.9/FacialAge/BNav_EC2/DepthDuration/MX_fS_VE_MTurk/MX_fS_HTML.html#248,248,1280,683,1280,800,1-8-2024,20-45-4,8,VR_target_stimuli/s45_1x_3.5_368.png,1000,1x,3.5,7.0,5128,999,meters,jsons/MX_seq30_1_VE1000.json,394710,937841,30,Woman
8,330568,final-intermixed-textured,v2,jsons/MX_seq30_1_VE1000.json,http://54.235.29.9/FacialAge/BNav_EC2/DepthDuration/MX_fS_VE_MTurk/MX_fS_HTML.html#248,248,1280,683,1280,800,1-8-2024,20-45-4,9,VR_target_stimuli/s23_0.75x_3.65_351.png,1000,0.75x,3.65,3.5,8025,1006,meters,jsons/MX_seq30_1_VE1000.json,394710,937841,30,Woman
9,330568,final-intermixed-textured,v2,jsons/MX_seq30_1_VE1000.json,http://54.235.29.9/FacialAge/BNav_EC2/DepthDuration/MX_fS_VE_MTurk/MX_fS_HTML.html#248,248,1280,683,1280,800,1-8-2024,20-45-4,10,VR_target_stimuli/s26_1.3x_4_441.png,1000,1.3x,4.0,3.5,10018,1009,meters,jsons/MX_seq30_1_VE1000.json,394710,937841,30,Woman
10,330568,final-intermixed-textured,v2,jsons/MX_seq30_1_VE1000.json,http://54.235.29.9/FacialAge/BNav_EC2/DepthDuration/MX_fS_VE_MTurk/MX_fS_HTML.html#248,248,1280,683,1280,800,1-8-2024,20-45-4,11,VR_target_stimuli/s12_0.75x_3.1_364_BC.png,1000,0.75x,3.1,3.0,5644,1005,meters,jsons/MX_seq30_1_VE1000.json,394710,937841,30,Woman
11,330568,final-intermixed-textured,v2,jsons/MX_seq30_1_VE1000.json,http://54.235.29.9/FacialAge/BNav_EC2/DepthDuration/MX_fS_VE_MTurk/MX_fS_HTML.html#248,248,1280,683,1280,800,1-8-2024,20-45-4,12,VR_target_stimuli/s30_1x_2.3_334_BC.png,1000,1x,2.3,3.0,4327,1000,meters,jsons/MX_seq30_1_VE1000.json,394710,937841,30,Woman
12,330568,final-intermixed-textured,v2,jsons/MX_seq30_1_VE1000.json,http://54.235.29.9/FacialAge/BNav_EC2/DepthDuration/MX_fS_VE_MTurk/MX_fS_HTML.html#248,248,1280,683,1280,800,1-8-2024,20-45-4,13,VR_target_stimuli/s16_1.3x_1_223_BC.png,1000,1.3x,1.0,1.2,7077,1005,meters,jsons/MX_seq30_1_VE1000.json,394710,937841,30,Woman
13,330568,final-intermixed-textured,v2,jsons/MX_seq30_1_VE1000.json,http://54.235.29.9/FacialAge/BNav_EC2/DepthDuration/MX_fS_VE_MTurk/MX_fS_HTML.html#248,248,1280,683,1280,800,1-8-2024,20-45-4,14,VR_target_stimuli/s17_1x_1.8_291_BC.png,1000,1x,1.8,1.5,6369,999,meters,jsons/MX_seq30_1_VE1000.json,394710,937841,30,Woman
14,330568,final-intermixed-textured,v2,jsons/MX_seq30_1_VE1000.json,http://54.235.29.9/FacialAge/BNav_EC2/DepthDuration/MX_fS_VE_MTurk/MX_fS_HTML.html#248,248,1280,683,1280,800,1-8-2024,20-45-4,15,VR_target_stimuli/s5_0.75x_4_375.png,1000,0.75x,4.0,3.0,4413,1008,meters,jsons/MX_seq30_1_VE1000.json,394710,937841,30,Woman
15,330568,final-intermixed-textured,v2,jsons/MX_seq30_1_VE1000.json,http://54.235.29.9/FacialAge/BNav_EC2/DepthDuration/MX_fS_VE_MTurk/MX_fS_HTML.html#248,248,1280,683,1280,800,1-8-2024,20-45-4,16,VR_target_stimuli/s37_1.3x_3.3_555_BC.png,1000,1.3x,3.3,4.0,5397,996,meters,jsons/MX_seq30_1_VE1000.json,394710,937841,30,Woman
16,330568,final-intermixed-textured,v2,jsons/MX_seq30_1_VE1000.json,http://54.235.29.9/FacialAge/BNav_EC2/DepthDuration/MX_fS_VE_MTurk/MX_fS_HTML.html#248,248,1280,683,1280,800,1-8-2024,20-45-4,17,catch_stimuli/c1.png,1000,,,0.0,4030,1001,meters,jsons/MX_seq30_1_VE1000.json,394710,937841,30,Woman
17,330568,final-intermixed-textured,v2,jsons/MX_seq30_1_VE1000.json,http://54.235.29.9/FacialAge/BNav_EC2/DepthDuration/MX_fS_VE_MTurk/MX_fS_HTML.html#248,248,1280,683,1280,800,1-8-2024,20-45-4,18,VR_target_stimuli/s46_1.3x_2.42_354.png,1000,1.3x,2.42,3.5,7595,999,meters,jsons/MX_seq30_1_VE1000.json,394710,937841,30,Woman
18,330568,final-intermixed-textured,v2,jsons/MX_seq30_1_VE1000.json,http://54.235.29.9/FacialAge/BNav_EC2/DepthDuration/MX_fS_VE_MTurk/MX_fS_HTML.html#248,248,1280,683,1280,800,1-8-2024,20-45-4,19,VR_target_stimuli/s22_1x_4.29_354.png,1000,1x,4.29,8.0,4568,1005,meters,jsons/MX_seq30_1_VE1000.json,394710,937841,30,Woman
19,330568,final-intermixed-textured,v2,jsons/MX_seq30_1_VE1000.json,http://54.235.29.9/FacialAge/BNav_EC2/DepthDuration/MX_fS_VE_MTurk/MX_fS_HTML.html#248,248,1280,683,1280,800,1-8-2024,20-45-4,20,VR_target_stimuli/s42_0.75x_3.2_301_BC.png,1000,0.75x,3.2,6.0,4410,1001,meters,jsons/MX_seq30_1_VE1000.json,394710,937841,30,Woman
20,330568,final-intermixed-textured,v2,jsons/MX_seq30_1_VE1000.json,http://54.235.29.9/FacialAge/BNav_EC2/DepthDuration/MX_fS_VE_MTurk/MX_fS_HTML.html#248,248,1280,683,1280,800,1-8-2024,20-45-4,21,VR_target_stimuli/s25_1x_1.4_290.png,1000,1x,1.4,2.0,4051,1008,meters,jsons/MX_seq30_1_VE1000.json,394710,937841,30,Woman
21,330568,final-intermixed-textured,v2,jsons/MX_seq30_1_VE1000.json,http://54.235.29.9/FacialAge/BNav_EC2/DepthDuration/MX_fS_VE_MTurk/MX_fS_HTML.html#248,248,1280,683,1280,800,1-8-2024,20-45-4,22,VR_target_stimuli/s50_1.3x_4.53_518_BC.png,1000,1.3x,4.53,4.0,4287,1002,meters,jsons/MX_seq30_1_VE1000.json,394710,937841,30,Woman
22,330568,final-intermixed-textured,v2,jsons/MX_seq30_1_VE1000.json,http://54.235.29.9/FacialAge/BNav_EC2/DepthDuration/MX_fS_VE_MTurk/MX_fS_HTML.html#248,248,1280,683,1280,800,1-8-2024,20-45-4,23,VR_target_stimuli/s53_0.75x_1.6_403.png,1000,0.75x,1.6,0.5,4983,998,meters,jsons/MX_seq30_1_VE1000.json,394710,937841,30,Woman
23,330568,final-intermixed-textured,v2,jsons/MX_seq30_1_VE1000.json,http://54.235.29.9/FacialAge/BNav_EC2/DepthDuration/MX_fS_VE_MTurk/MX_fS_HTML.html#248,248,1280,683,1280,800,1-8-2024,20-45-4,24,VR_target_stimuli/s38_1.3x_3.55_358.png,1000,1.3x,3.55,3.5,8891,995,meters,jsons/MX_seq30_1_VE1000.json,394710,937841,30,Woman
24,330568,final-intermixed-textured,v2,jsons/MX_seq30_1_VE1000.json,http://54.235.29.9/FacialAge/BNav_EC2/DepthDuration/MX_fS_VE_MTurk/MX_fS_HTML.html#248,248,1280,683,1280,800,1-8-2024,20-45-4,25,VR_target_stimuli/s9_1x_1.2_263_BC.png,1000,1x,1.2,2.0,4609,999,meters,jsons/MX_seq30_1_VE1000.json,394710,937841,30,Woman
25,330568,final-intermixed-textured,v2,jsons/MX_seq30_1_VE1000.json,http://54.235.29.9/FacialAge/BNav_EC2/DepthDuration/MX_fS_VE_MTurk/MX_fS_HTML.html#248,248,1280,683,1280,800,1-8-2024,20-45-4,26,catch_stimuli/c2.png,1000,,,0.0,3674,998,meters,jsons/MX_seq30_1_VE1000.json,394710,937841,30,Woman
26,330568,final-intermixed-textured,v2,jsons/MX_seq30_1_VE1000.json,http://54.235.29.9/FacialAge/BNav_EC2/DepthDuration/MX_fS_VE_MTurk/MX_fS_HTML.html#248,248,1280,683,1280,800,1-8-2024,20-45-4,27,VR_target_stimuli/s44_0.75x_4.4_314_BC.png,1000,0.75x,4.4,5.3,8175,998,meters,jsons/MX_seq30_1_VE1000.json,394710,937841,30,Woman
27,330568,final-intermixed-textured,v2,jsons/MX_seq30_1_VE1000.json,http://54.235.29.9/FacialAge/BNav_EC2/DepthDuration/MX_fS_VE_MTurk/MX_fS_HTML.html#248,248,1280,683,1280,800,1-8-2024,20-45-4,28,VR_target_stimuli/s3_0.75x_5_381_BC.png,1000,0.75x,5.0,5.0,4346,1002,meters,jsons/MX_seq30_1_VE1000.json,394710,937841,30,Woman
28,330568,final-intermixed-textured,v2,jsons/MX_seq30_1_VE1000.json,http://54.235.29.9/FacialAge/BNav_EC2/DepthDuration/MX_fS_VE_MTurk/MX_fS_HTML.html#248,248,1280,683,1280,800,1-8-2024,20-45-4,29,VR_target_stimuli/s1_1.3x_1.7_261_BC.png,1000,1.3x,1.7,3.0,6336,1004,meters,jsons/MX_seq30_1_VE1000.json,394710,937841,30,Woman
29,330568,final-intermixed-textured,v2,jsons/MX_seq30_1_VE1000.json,http://54.235.29.9/FacialAge/BNav_EC2/DepthDuration/MX_fS_VE_MTurk/MX_fS_HTML.html#248,248,1280,683,1280,800,1-8-2024,20-45-4,30,VR_target_stimuli/s11_1x_5_361.png,1000,1x,5.0,6.0,6563,1010,meters,jsons/MX_seq30_1_VE1000.json,394710,937841,30,Woman
30,330568,final-intermixed-textured,v2,jsons/MX_seq30_1_VE1000.json,http://54.235.29.9/FacialAge/BNav_EC2/DepthDuration/MX_fS_VE_MTurk/MX_fS_HTML.html#248,248,1280,683,1280,800,1-8-2024,20-45-4,31,VR_target_stimuli/s2_0.75x_2.7_384.png,1000,0.75x,2.7,3.5,5747,1004,meters,jsons/MX_seq30_1_VE1000.json,394710,937841,30,Woman
31,330568,final-intermixed-textured,v2,jsons/MX_seq30_1_VE1000.json,http://54.235.29.9/FacialAge/BNav_EC2/DepthDuration/MX_fS_VE_MTurk/MX_fS_HTML.html#248,248,1280,683,1280,800,1-8-2024,20-45-4,32,VR_target_stimuli/s6_1x_2.1_293_BC.png,1000,1x,2.1,2.0,4370,1007,meters,jsons/MX_seq30_1_VE1000.json,394710,937841,30,Woman
32,330568,final-intermixed-textured,v2,jsons/MX_seq30_1_VE1000.json,http://54.235.29.9/FacialAge/BNav_EC2/DepthDuration/MX_fS_VE_MTurk/MX_fS_HTML.html#248,248,1280,683,1280,800,1-8-2024,20-45-4,33,VR_target_stimuli/s0_1.3x_2.6_356.png,1000,1.3x,2.6,2.0,5467,1009,meters,jsons/MX_seq30_1_VE1000.json,394710,937841,30,Woman
33,330568,final-intermixed-textured,v2,jsons/MX_seq30_1_VE1000.json,http://54.235.29.9/FacialAge/BNav_EC2/DepthDuration/MX_fS_VE_MTurk/MX_fS_HTML.html#248,248,1280,683,1280,800,1-8-2024,20-45-4,34,catch_stimuli/c3.png,1000,,,0.0,3872,999,meters,jsons/MX_seq30_1_VE1000.json,394710,937841,30,Woman
34,330568,final-intermixed-textured,v2,jsons/MX_seq30_1_VE1000.json,http://54.235.29.9/FacialAge/BNav_EC2/DepthDuration/MX_fS_VE_MTurk/MX_fS_HTML.html#248,248,1280,683,1280,800,1-8-2024,20-45-4,35,VR_target_stimuli/s34_1x_2.8_283.png,1000,1x,2.8,4.0,5174,1001,meters,jsons/MX_seq30_1_VE1000.json,394710,937841,30,Woman
35,330568,final-intermixed-textured,v2,jsons/MX_seq30_1_VE1000.json,http://54.235.29.9/FacialAge/BNav_EC2/DepthDuration/MX_fS_VE_MTurk/MX_fS_HTML.html#248,248,1280,683,1280,800,1-8-2024,20-45-4,36,VR_target_stimuli/s13_0.75x_2.4_308.png,1000,0.75x,2.4,4.0,5617,999,meters,jsons/MX_seq30_1_VE1000.json,394710,937841,30,Woman
36,330568,final-intermixed-textured,v2,jsons/MX_seq30_1_VE1000.json,http://54.235.29.9/FacialAge/BNav_EC2/DepthDuration/MX_fS_VE_MTurk/MX_fS_HTML.html#248,248,1280,683,1280,800,1-8-2024,20-45-4,37,VR_target_stimuli/s14_1.3x_3.83_359_BC.png,1000,1.3x,3.83,4.0,4121,1010,meters,jsons/MX_seq30_1_VE1000.json,394710,937841,30,Woman
37,330568,final-intermixed-textured,v2,jsons/MX_seq30_1_VE1000.json,http://54.235.29.9/FacialAge/BNav_EC2/DepthDuration/MX_fS_VE_MTurk/MX_fS_HTML.html#248,248,1280,683,1280,800,1-8-2024,20-45-4,38,VR_target_stimuli/s47_1.3x_3.45_373.png,1000,1.3x,3.45,4.0,7820,996,meters,jsons/MX_seq30_1_VE1000.json,394710,937841,30,Woman
38,330568,final-intermixed-textured,v2,jsons/MX_seq30_1_VE1000.json,http://54.235.29.9/FacialAge/BNav_EC2/DepthDuration/MX_fS_VE_MTurk/MX_fS_HTML.html#248,248,1280,683,1280,800,1-8-2024,20-45-4,39,VR_target_stimuli/s29_1x_1.3_250_BC.png,1000,1x,1.3,1.5,6122,1000,meters,jsons/MX_seq30_1_VE1000.json,394710,937841,30,Woman
39,330568,final-intermixed-textured,v2,jsons/MX_seq30_1_VE1000.json,http://54.235.29.9/FacialAge/BNav_EC2/DepthDuration/MX_fS_VE_MTurk/MX_fS_HTML.html#248,248,1280,683,1280,800,1-8-2024,20-45-4,40,VR_target_stimuli/s28_0.75x_3.2_357_BC.png,1000,0.75x,3.2,3.2,7789,998,meters,jsons/MX_seq30_1_VE1000.json,394710,937841,30,Woman
40,330568,final-intermixed-textured,v2,jsons/MX_seq30_1_VE1000.json,http://54.235.29.9/FacialAge/BNav_EC2/DepthDuration/MX_fS_VE_MTurk/MX_fS_HTML.html#248,248,1280,683,1280,800,1-8-2024,20-45-4,41,VR_target_stimuli/s48_1x_2.55_256.png,1000,1x,2.55,3.5,7467,1000,meters,jsons/MX_seq30_1_VE1000.json,394710,937841,30,Woman
41,330568,final-intermixed-textured,v2,jsons/MX_seq30_1_VE1000.json,http://54.235.29.9/FacialAge/BNav_EC2/DepthDuration/MX_fS_VE_MTurk/MX_fS_HTML.html#248,248,1280,683,1280,800,1-8-2024,20-45-4,42,VR_target_stimuli/s19_1.3x_1.21_270.png,1000,1.3x,1.21,0.5,5610,998,meters,jsons/MX_seq30_1_VE1000.json,394710,937841,30,Woman
42,330568,final-intermixed-textured,v2,jsons/MX_seq30_1_VE1000.json,http://54.235.29.9/FacialAge/BNav_EC2/DepthDuration/MX_fS_VE_MTurk/MX_fS_HTML.html#248,248,1280,683,1280,800,1-8-2024,20-45-4,43,VR_target_stimuli/s21_0.75x_4.22_374_BC.png,1000,0.75x,4.22,9.0,5431,997,meters,jsons/MX_seq30_1_VE1000.json,394710,937841,30,Woman
43,330568,final-intermixed-textured,v2,jsons/MX_seq30_1_VE1000.json,http://54.235.29.9/FacialAge/BNav_EC2/DepthDuration/MX_fS_VE_MTurk/MX_fS_HTML.html#248,248,1280,683,1280,800,1-8-2024,20-45-4,44,VR_target_stimuli/s8_1.3x_3.1_345_BC.png,1000,1.3x,3.1,4.0,5154,1006,meters,jsons/MX_seq30_1_VE1000.json,394710,937841,30,Woman
44,330568,final-intermixed-textured,v2,jsons/MX_seq30_1_VE1000.json,http://54.235.29.9/FacialAge/BNav_EC2/DepthDuration/MX_fS_VE_MTurk/MX_fS_HTML.html#248,248,1280,683,1280,800,1-8-2024,20-45-4,45,catch_stimuli/c4.png,1000,,,0.0,3597,998,meters,jsons/MX_seq30_1_VE1000.json,394710,937841,30,Woman
45,330568,final-intermixed-textured,v2,jsons/MX_seq30_1_VE1000.json,http://54.235.29.9/FacialAge/BNav_EC2/DepthDuration/MX_fS_VE_MTurk/MX_fS_HTML.html#248,248,1280,683,1280,800,1-8-2024,20-45-4,46,VR_target_stimuli/s27_1x_1.76_248_BC.png,1000,1x,1.76,4.5,7427,998,meters,jsons/MX_seq30_1_VE1000.json,394710,937841,30,Woman
46,330568,final-intermixed-textured,v2,jsons/MX_seq30_1_VE1000.json,http://54.235.29.9/FacialAge/BNav_EC2/DepthDuration/MX_fS_VE_MTurk/MX_fS_HTML.html#248,248,1280,683,1280,800,1-8-2024,20-45-4,47,VR_target_stimuli/s15_0.75x_4.2_388.png,1000,0.75x,4.2,6.0,6768,997,meters,jsons/MX_seq30_1_VE1000.json,394710,937841,30,Woman
47,330568,final-intermixed-textured,v2,jsons/MX_seq30_1_VE1000.json,http://54.235.29.9/FacialAge/BNav_EC2/DepthDuration/MX_fS_VE_MTurk/MX_fS_HTML.html#248,248,1280,683,1280,800,1-8-2024,20-45-4,48,VR_target_stimuli/s4_0.75x_1.4_301.png,1000,0.75x,1.4,1.0,5211,1005,meters,jsons/MX_seq30_1_VE1000.json,394710,937841,30,Woman
48,330568,final-intermixed-textured,v2,jsons/MX_seq30_1_VE1000.json,http://54.235.29.9/FacialAge/BNav_EC2/DepthDuration/MX_fS_VE_MTurk/MX_fS_HTML.html#248,248,1280,683,1280,800,1-8-2024,20-45-4,49,VR_target_stimuli/s35_1.3x_2_338.png,1000,1.3x,2.0,2.8,6130,998,meters,jsons/MX_seq30_1_VE1000.json,394710,937841,30,Woman
49,330568,final-intermixed-textured,v2,jsons/MX_seq30_1_VE1000.json,http://54.235.29.9/FacialAge/BNav_EC2/DepthDuration/MX_fS_VE_MTurk/MX_fS_HTML.html#248,248,1280,683,1280,800,1-8-2024,20-45-4,50,VR_target_stimuli/s49_1x_4.67_341.png,1000,1x,4.67,3.0,4372,1003,meters,jsons/MX_seq30_1_VE1000.json,394710,937841,30,Woman
50,330568,final-intermixed-textured,v2,jsons/MX_seq30_1_VE1000.json,http://54.235.29.9/FacialAge/BNav_EC2/DepthDuration/MX_fS_VE_MTurk/MX_fS_HTML.html#248,248,1280,683,1280,800,1-8-2024,20-45-4,51,VR_target_stimuli/s7_1.3x_1.5_256_BC.png,1000,1.3x,1.5,1.8,7917,999,meters,jsons/MX_seq30_1_VE1000.json,394710,937841,30,Woman
51,330568,final-intermixed-textured,v2,jsons/MX_seq30_1_VE1000.json,http://54.235.29.9/FacialAge/BNav_EC2/DepthDuration/MX_fS_VE_MTurk/MX_fS_HTML.html#248,248,1280,683,1280,800,1-8-2024,20-45-4,52,VR_target_stimuli/s20_0.75x_4.99_390_BC.png,1000,0.75x,4.99,7.0,5278,999,meters,jsons/MX_seq30_1_VE1000.json,394710,937841,30,Woman
52,330568,final-intermixed-textured,v2,jsons/MX_seq30_1_VE1000.json,http://54.235.29.9/FacialAge/BNav_EC2/DepthDuration/MX_fS_VE_MTurk/MX_fS_HTML.html#248,248,1280,683,1280,800,1-8-2024,20-45-4,53,catch_stimuli/c5.png,1000,,,0.0,3616,1002,meters,jsons/MX_seq30_1_VE1000.json,394710,937841,30,Woman
53,330568,final-intermixed-textured,v2,jsons/MX_seq30_1_VE1000.json,http://54.235.29.9/FacialAge/BNav_EC2/DepthDuration/MX_fS_VE_MTurk/MX_fS_HTML.html#248,248,1280,683,1280,800,1-8-2024,20-45-4,54,VR_target_stimuli/s31_1x_4.96_333_BC.png,1000,1x,4.96,5.0,4402,1004,meters,jsons/MX_seq30_1_VE1000.json,394710,937841,30,Woman
54,330568,final-intermixed-textured,v2,jsons/MX_seq30_1_VE1000.json,http://54.235.29.9/FacialAge/BNav_EC2/DepthDuration/MX_fS_VE_MTurk/MX_fS_HTML.html#248,248,1280,683,1280,800,1-8-2024,20-45-4,55,VR_target_stimuli/s33_0.75x_3.1_361.png,1000,0.75x,3.1,3.6,5695,997,meters,jsons/MX_seq30_1_VE1000.json,394710,937841,30,Woman
55,330568,final-intermixed-textured,v2,jsons/MX_seq30_1_VE1000.json,http://54.235.29.9/FacialAge/BNav_EC2/DepthDuration/MX_fS_VE_MTurk/MX_fS_HTML.html#248,248,1280,683,1280,800,1-8-2024,20-45-4,56,VR_target_stimuli/s52_1.3x_3.2_280_BC.png,1000,1.3x,3.2,3.8,7551,999,meters,jsons/MX_seq30_1_VE1000.json,394710,937841,30,Woman
56,330568,final-intermixed-textured,v2,jsons/MX_seq30_1_VE1000.json,http://54.235.29.9/FacialAge/BNav_EC2/DepthDuration/MX_fS_VE_MTurk/MX_fS_HTML.html#248,248,1280,683,1280,800,1-8-2024,20-45-4,57,VR_target_stimuli/s32_1x_1.5_218.png,1000,1x,1.5,3.5,10533,1000,meters,jsons/MX_seq30_1_VE1000.json,394710,937841,30,Woman
57,330568,final-intermixed-textured,v2,jsons/MX_seq30_1_VE1000.json,http://54.235.29.9/FacialAge/BNav_EC2/DepthDuration/MX_fS_VE_MTurk/MX_fS_HTML.html#248,248,1280,683,1280,800,1-8-2024,20-45-4,58,VR_target_stimuli/s18_1x_2.25_353_BC.png,1000,1x,2.25,2.0,4198,1005,meters,jsons/MX_seq30_1_VE1000.json,394710,937841,30,Woman
58,330568,final-intermixed-textured,v2,jsons/MX_seq30_1_VE1000.json,http://54.235.29.9/FacialAge/BNav_EC2/DepthDuration/MX_fS_VE_MTurk/MX_fS_HTML.html#248,248,1280,683,1280,800,1-8-2024,20-45-4,59,VR_target_stimuli/s39_0.75x_1_205_BC.png,1000,0.75x,1.0,0.7,5864,1005,meters,jsons/MX_seq30_1_VE1000.json,394710,937841,30,Woman
59,330568,final-intermixed-textured,v2,jsons/MX_seq30_1_VE1000.json,http://54.235.29.9/FacialAge/BNav_EC2/DepthDuration/MX_fS_VE_MTurk/MX_fS_HTML.html#248,248,1280,683,1280,800,1-8-2024,20-45-4,60,VR_target_stimuli/s51_1.3x_3.64_479.png,1000,1.3x,3.64,2.0,5262,999,meters,jsons/MX_seq30_1_VE1000.json,394710,937841,30,Woman
