,subjID,experimentName,versionName,sequenceName,url,selected_row,windowWidth,windowHeight,screenWidth,screenHeight,startDate,startTime,trial,stimulus,duration,scale,actual_depth,depth_estimate,trial_RT,log_sceneDuration,unitSelection,seq_filepath,experimentTime,totalTime,age,gender
0,334644,final-intermixed-textured,v2,jsons/MX_seq4_1_VE1000.json,http://54.235.29.9/FacialAge/BNav_EC2/DepthDuration/MX_fS_VE_MTurk/MX_fS_HTML.html#216,216,1440,812,1440,900,1-8-2024,15-46-55,1,VR_target_stimuli/s6_1.3x_2.1_298.png,1000,1.3x,2.1,4.0,4329,999,meters,jsons/MX_seq4_1_VE1000.json,307819,570034,25,Woman
1,334644,final-intermixed-textured,v2,jsons/MX_seq4_1_VE1000.json,http://54.235.29.9/FacialAge/BNav_EC2/DepthDuration/MX_fS_VE_MTurk/MX_fS_HTML.html#216,216,1440,812,1440,900,1-8-2024,15-46-55,2,VR_target_stimuli/s0_0.75x_2.6_345.png,1000,0.75x,2.6,4.0,4143,1001,meters,jsons/MX_seq4_1_VE1000.json,307819,570034,25,Woman
2,334644,final-intermixed-textured,v2,jsons/MX_seq4_1_VE1000.json,http://54.235.29.9/FacialAge/BNav_EC2/DepthDuration/MX_fS_VE_MTurk/MX_fS_HTML.html#216,216,1440,812,1440,900,1-8-2024,15-46-55,3,VR_target_stimuli/s34_1x_2.8_283.png,1000,1x,2.8,3.0,4882,1000,meters,jsons/MX_seq4_1_VE1000.json,307819,570034,25,Woman
3,334644,final-intermixed-textured,v2,jsons/MX_seq4_1_VE1000.json,http://54.235.29.9/FacialAge/BNav_EC2/DepthDuration/MX_fS_VE_MTurk/MX_fS_HTML.html#216,216,1440,812,1440,900,1-8-2024,15-46-55,4,VR_target_stimuli/s13_0.75x_2.4_308_BC.png,1000,0.75x,2.4,5.0,4634,1000,meters,jsons/MX_seq4_1_VE1000.json,307819,570034,25,Woman
4,334644,final-intermixed-textured,v2,jsons/MX_seq4_1_VE1000.json,http://54.235.29.9/FacialAge/BNav_EC2/DepthDuration/MX_fS_VE_MTurk/MX_fS_HTML.html#216,216,1440,812,1440,900,1-8-2024,15-46-55,5,VR_target_stimuli/s14_1.3x_3.83_359_BC.png,1000,1.3x,3.83,4.0,4022,1001,meters,jsons/MX_seq4_1_VE1000.json,307819,570034,25,Woman
5,334644,final-intermixed-textured,v2,jsons/MX_seq4_1_VE1000.json,http://54.235.29.9/FacialAge/BNav_EC2/DepthDuration/MX_fS_VE_MTurk/MX_fS_HTML.html#216,216,1440,812,1440,900,1-8-2024,15-46-55,6,VR_target_stimuli/s47_1x_3.45_370_BC.png,1000,1x,3.45,4.0,4001,1000,meters,jsons/MX_seq4_1_VE1000.json,307819,570034,25,Woman
6,334644,final-intermixed-textured,v2,jsons/MX_seq4_1_VE1000.json,http://54.235.29.9/FacialAge/BNav_EC2/DepthDuration/MX_fS_VE_MTurk/MX_fS_HTML.html#216,216,1440,812,1440,900,1-8-2024,15-46-55,7,catch_stimuli/c0.png,1000,,,0.0,3854,1000,meters,jsons/MX_seq4_1_VE1000.json,307819,570034,25,Woman
7,334644,final-intermixed-textured,v2,jsons/MX_seq4_1_VE1000.json,http://54.235.29.9/FacialAge/BNav_EC2/DepthDuration/MX_fS_VE_MTurk/MX_fS_HTML.html#216,216,1440,812,1440,900,1-8-2024,15-46-55,8,VR_target_stimuli/s29_1x_1.3_250.png,1000,1x,1.3,2.5,5239,1000,meters,jsons/MX_seq4_1_VE1000.json,307819,570034,25,Woman
8,334644,final-intermixed-textured,v2,jsons/MX_seq4_1_VE1000.json,http://54.235.29.9/FacialAge/BNav_EC2/DepthDuration/MX_fS_VE_MTurk/MX_fS_HTML.html#216,216,1440,812,1440,900,1-8-2024,15-46-55,9,VR_target_stimuli/s28_0.75x_3.2_357_BC.png,1000,0.75x,3.2,4.5,4877,999,meters,jsons/MX_seq4_1_VE1000.json,307819,570034,25,Woman
9,334644,final-intermixed-textured,v2,jsons/MX_seq4_1_VE1000.json,http://54.235.29.9/FacialAge/BNav_EC2/DepthDuration/MX_fS_VE_MTurk/MX_fS_HTML.html#216,216,1440,812,1440,900,1-8-2024,15-46-55,10,VR_target_stimuli/s48_1.3x_2.55_255_BC.png,1000,1.3x,2.55,3.0,5184,999,meters,jsons/MX_seq4_1_VE1000.json,307819,570034,25,Woman
10,334644,final-intermixed-textured,v2,jsons/MX_seq4_1_VE1000.json,http://54.235.29.9/FacialAge/BNav_EC2/DepthDuration/MX_fS_VE_MTurk/MX_fS_HTML.html#216,216,1440,812,1440,900,1-8-2024,15-46-55,11,VR_target_stimuli/s19_0.75x_1.21_257.png,1000,0.75x,1.21,2.0,5747,1001,meters,jsons/MX_seq4_1_VE1000.json,307819,570034,25,Woman
11,334644,final-intermixed-textured,v2,jsons/MX_seq4_1_VE1000.json,http://54.235.29.9/FacialAge/BNav_EC2/DepthDuration/MX_fS_VE_MTurk/MX_fS_HTML.html#216,216,1440,812,1440,900,1-8-2024,15-46-55,12,VR_target_stimuli/s21_1x_4.22_379_BC.png,1000,1x,4.22,7.0,3860,999,meters,jsons/MX_seq4_1_VE1000.json,307819,570034,25,Woman
12,334644,final-intermixed-textured,v2,jsons/MX_seq4_1_VE1000.json,http://54.235.29.9/FacialAge/BNav_EC2/DepthDuration/MX_fS_VE_MTurk/MX_fS_HTML.html#216,216,1440,812,1440,900,1-8-2024,15-46-55,13,VR_target_stimuli/s8_1.3x_3.1_345.png,1000,1.3x,3.1,4.5,4864,1000,meters,jsons/MX_seq4_1_VE1000.json,307819,570034,25,Woman
13,334644,final-intermixed-textured,v2,jsons/MX_seq4_1_VE1000.json,http://54.235.29.9/FacialAge/BNav_EC2/DepthDuration/MX_fS_VE_MTurk/MX_fS_HTML.html#216,216,1440,812,1440,900,1-8-2024,15-46-55,14,VR_target_stimuli/s27_1x_1.76_248.png,1000,1x,1.76,3.0,4689,1000,meters,jsons/MX_seq4_1_VE1000.json,307819,570034,25,Woman
14,334644,final-intermixed-textured,v2,jsons/MX_seq4_1_VE1000.json,http://54.235.29.9/FacialAge/BNav_EC2/DepthDuration/MX_fS_VE_MTurk/MX_fS_HTML.html#216,216,1440,812,1440,900,1-8-2024,15-46-55,15,VR_target_stimuli/s15_0.75x_4.2_388.png,1000,0.75x,4.2,6.0,4437,1000,meters,jsons/MX_seq4_1_VE1000.json,307819,570034,25,Woman
15,334644,final-intermixed-textured,v2,jsons/MX_seq4_1_VE1000.json,http://54.235.29.9/FacialAge/BNav_EC2/DepthDuration/MX_fS_VE_MTurk/MX_fS_HTML.html#216,216,1440,812,1440,900,1-8-2024,15-46-55,16,VR_target_stimuli/s4_1.3x_1.4_328.png,1000,1.3x,1.4,2.0,3765,999,meters,jsons/MX_seq4_1_VE1000.json,307819,570034,25,Woman
16,334644,final-intermixed-textured,v2,jsons/MX_seq4_1_VE1000.json,http://54.235.29.9/FacialAge/BNav_EC2/DepthDuration/MX_fS_VE_MTurk/MX_fS_HTML.html#216,216,1440,812,1440,900,1-8-2024,15-46-55,17,catch_stimuli/c1.png,1000,,,0.0,3850,999,meters,jsons/MX_seq4_1_VE1000.json,307819,570034,25,Woman
17,334644,final-intermixed-textured,v2,jsons/MX_seq4_1_VE1000.json,http://54.235.29.9/FacialAge/BNav_EC2/DepthDuration/MX_fS_VE_MTurk/MX_fS_HTML.html#216,216,1440,812,1440,900,1-8-2024,15-46-55,18,VR_target_stimuli/s35_1.3x_2_338_BC.png,1000,1.3x,2.0,3.0,3700,1000,meters,jsons/MX_seq4_1_VE1000.json,307819,570034,25,Woman
18,334644,final-intermixed-textured,v2,jsons/MX_seq4_1_VE1000.json,http://54.235.29.9/FacialAge/BNav_EC2/DepthDuration/MX_fS_VE_MTurk/MX_fS_HTML.html#216,216,1440,812,1440,900,1-8-2024,15-46-55,19,VR_target_stimuli/s49_1x_4.67_341_BC.png,1000,1x,4.67,5.0,4228,1001,meters,jsons/MX_seq4_1_VE1000.json,307819,570034,25,Woman
19,334644,final-intermixed-textured,v2,jsons/MX_seq4_1_VE1000.json,http://54.235.29.9/FacialAge/BNav_EC2/DepthDuration/MX_fS_VE_MTurk/MX_fS_HTML.html#216,216,1440,812,1440,900,1-8-2024,15-46-55,20,VR_target_stimuli/s7_0.75x_1.5_253_BC.png,1000,0.75x,1.5,3.5,9736,1000,meters,jsons/MX_seq4_1_VE1000.json,307819,570034,25,Woman
20,334644,final-intermixed-textured,v2,jsons/MX_seq4_1_VE1000.json,http://54.235.29.9/FacialAge/BNav_EC2/DepthDuration/MX_fS_VE_MTurk/MX_fS_HTML.html#216,216,1440,812,1440,900,1-8-2024,15-46-55,21,VR_target_stimuli/s20_1x_4.99_398.png,1000,1x,4.99,7.0,4579,1000,meters,jsons/MX_seq4_1_VE1000.json,307819,570034,25,Woman
21,334644,final-intermixed-textured,v2,jsons/MX_seq4_1_VE1000.json,http://54.235.29.9/FacialAge/BNav_EC2/DepthDuration/MX_fS_VE_MTurk/MX_fS_HTML.html#216,216,1440,812,1440,900,1-8-2024,15-46-55,22,VR_target_stimuli/s31_1.3x_4.96_342_BC.png,1000,1.3x,4.96,4.0,4377,1001,meters,jsons/MX_seq4_1_VE1000.json,307819,570034,25,Woman
22,334644,final-intermixed-textured,v2,jsons/MX_seq4_1_VE1000.json,http://54.235.29.9/FacialAge/BNav_EC2/DepthDuration/MX_fS_VE_MTurk/MX_fS_HTML.html#216,216,1440,812,1440,900,1-8-2024,15-46-55,23,VR_target_stimuli/s33_0.75x_3.1_361_BC.png,1000,0.75x,3.1,5.5,4727,1000,meters,jsons/MX_seq4_1_VE1000.json,307819,570034,25,Woman
23,334644,final-intermixed-textured,v2,jsons/MX_seq4_1_VE1000.json,http://54.235.29.9/FacialAge/BNav_EC2/DepthDuration/MX_fS_VE_MTurk/MX_fS_HTML.html#216,216,1440,812,1440,900,1-8-2024,15-46-55,24,VR_target_stimuli/s52_1.3x_3.2_280.png,1000,1.3x,3.2,5.0,3628,999,meters,jsons/MX_seq4_1_VE1000.json,307819,570034,25,Woman
24,334644,final-intermixed-textured,v2,jsons/MX_seq4_1_VE1000.json,http://54.235.29.9/FacialAge/BNav_EC2/DepthDuration/MX_fS_VE_MTurk/MX_fS_HTML.html#216,216,1440,812,1440,900,1-8-2024,15-46-55,25,VR_target_stimuli/s32_1x_1.5_218_BC.png,1000,1x,1.5,3.0,3802,1001,meters,jsons/MX_seq4_1_VE1000.json,307819,570034,25,Woman
25,334644,final-intermixed-textured,v2,jsons/MX_seq4_1_VE1000.json,http://54.235.29.9/FacialAge/BNav_EC2/DepthDuration/MX_fS_VE_MTurk/MX_fS_HTML.html#216,216,1440,812,1440,900,1-8-2024,15-46-55,26,catch_stimuli/c2.png,1000,,,0.0,4598,1001,meters,jsons/MX_seq4_1_VE1000.json,307819,570034,25,Woman
26,334644,final-intermixed-textured,v2,jsons/MX_seq4_1_VE1000.json,http://54.235.29.9/FacialAge/BNav_EC2/DepthDuration/MX_fS_VE_MTurk/MX_fS_HTML.html#216,216,1440,812,1440,900,1-8-2024,15-46-55,27,VR_target_stimuli/s18_0.75x_2.25_341.png,1000,0.75x,2.25,2.5,7592,1001,meters,jsons/MX_seq4_1_VE1000.json,307819,570034,25,Woman
27,334644,final-intermixed-textured,v2,jsons/MX_seq4_1_VE1000.json,http://54.235.29.9/FacialAge/BNav_EC2/DepthDuration/MX_fS_VE_MTurk/MX_fS_HTML.html#216,216,1440,812,1440,900,1-8-2024,15-46-55,28,VR_target_stimuli/s39_0.75x_1_205_BC.png,1000,0.75x,1.0,2.0,4201,1000,meters,jsons/MX_seq4_1_VE1000.json,307819,570034,25,Woman
28,334644,final-intermixed-textured,v2,jsons/MX_seq4_1_VE1000.json,http://54.235.29.9/FacialAge/BNav_EC2/DepthDuration/MX_fS_VE_MTurk/MX_fS_HTML.html#216,216,1440,812,1440,900,1-8-2024,15-46-55,29,VR_target_stimuli/s51_1.3x_3.64_479.png,1000,1.3x,3.64,3.0,4093,999,meters,jsons/MX_seq4_1_VE1000.json,307819,570034,25,Woman
29,334644,final-intermixed-textured,v2,jsons/MX_seq4_1_VE1000.json,http://54.235.29.9/FacialAge/BNav_EC2/DepthDuration/MX_fS_VE_MTurk/MX_fS_HTML.html#216,216,1440,812,1440,900,1-8-2024,15-46-55,30,VR_target_stimuli/s43_1x_2.2_354.png,1000,1x,2.2,4.0,3986,1000,meters,jsons/MX_seq4_1_VE1000.json,307819,570034,25,Woman
30,334644,final-intermixed-textured,v2,jsons/MX_seq4_1_VE1000.json,http://54.235.29.9/FacialAge/BNav_EC2/DepthDuration/MX_fS_VE_MTurk/MX_fS_HTML.html#216,216,1440,812,1440,900,1-8-2024,15-46-55,31,VR_target_stimuli/s24_0.75x_3.3_344.png,1000,0.75x,3.3,6.0,3972,1001,meters,jsons/MX_seq4_1_VE1000.json,307819,570034,25,Woman
31,334644,final-intermixed-textured,v2,jsons/MX_seq4_1_VE1000.json,http://54.235.29.9/FacialAge/BNav_EC2/DepthDuration/MX_fS_VE_MTurk/MX_fS_HTML.html#216,216,1440,812,1440,900,1-8-2024,15-46-55,32,VR_target_stimuli/s10_1x_2.7_324_BC.png,1000,1x,2.7,5.0,3634,1000,meters,jsons/MX_seq4_1_VE1000.json,307819,570034,25,Woman
32,334644,final-intermixed-textured,v2,jsons/MX_seq4_1_VE1000.json,http://54.235.29.9/FacialAge/BNav_EC2/DepthDuration/MX_fS_VE_MTurk/MX_fS_HTML.html#216,216,1440,812,1440,900,1-8-2024,15-46-55,33,VR_target_stimuli/s36_1.3x_4.1_442_BC.png,1000,1.3x,4.1,5.0,4488,1000,meters,jsons/MX_seq4_1_VE1000.json,307819,570034,25,Woman
33,334644,final-intermixed-textured,v2,jsons/MX_seq4_1_VE1000.json,http://54.235.29.9/FacialAge/BNav_EC2/DepthDuration/MX_fS_VE_MTurk/MX_fS_HTML.html#216,216,1440,812,1440,900,1-8-2024,15-46-55,34,catch_stimuli/c3.png,1000,,,0.0,3686,1001,meters,jsons/MX_seq4_1_VE1000.json,307819,570034,25,Woman
34,334644,final-intermixed-textured,v2,jsons/MX_seq4_1_VE1000.json,http://54.235.29.9/FacialAge/BNav_EC2/DepthDuration/MX_fS_VE_MTurk/MX_fS_HTML.html#216,216,1440,812,1440,900,1-8-2024,15-46-55,35,VR_target_stimuli/s40_1x_1.2_319_BC.png,1000,1x,1.2,2.5,5280,1000,meters,jsons/MX_seq4_1_VE1000.json,307819,570034,25,Woman
35,334644,final-intermixed-textured,v2,jsons/MX_seq4_1_VE1000.json,http://54.235.29.9/FacialAge/BNav_EC2/DepthDuration/MX_fS_VE_MTurk/MX_fS_HTML.html#216,216,1440,812,1440,900,1-8-2024,15-46-55,36,VR_target_stimuli/s41_0.75x_2.1_281.png,1000,0.75x,2.1,4.0,4681,999,meters,jsons/MX_seq4_1_VE1000.json,307819,570034,25,Woman
36,334644,final-intermixed-textured,v2,jsons/MX_seq4_1_VE1000.json,http://54.235.29.9/FacialAge/BNav_EC2/DepthDuration/MX_fS_VE_MTurk/MX_fS_HTML.html#216,216,1440,812,1440,900,1-8-2024,15-46-55,37,VR_target_stimuli/s45_1.3x_3.5_377_BC.png,1000,1.3x,3.5,5.0,4797,999,meters,jsons/MX_seq4_1_VE1000.json,307819,570034,25,Woman
37,334644,final-intermixed-textured,v2,jsons/MX_seq4_1_VE1000.json,http://54.235.29.9/FacialAge/BNav_EC2/DepthDuration/MX_fS_VE_MTurk/MX_fS_HTML.html#216,216,1440,812,1440,900,1-8-2024,15-46-55,38,VR_target_stimuli/s23_1.3x_3.65_354.png,1000,1.3x,3.65,4.0,5430,1000,meters,jsons/MX_seq4_1_VE1000.json,307819,570034,25,Woman
38,334644,final-intermixed-textured,v2,jsons/MX_seq4_1_VE1000.json,http://54.235.29.9/FacialAge/BNav_EC2/DepthDuration/MX_fS_VE_MTurk/MX_fS_HTML.html#216,216,1440,812,1440,900,1-8-2024,15-46-55,39,VR_target_stimuli/s26_1x_4_433.png,1000,1x,4.0,3.0,8460,1000,meters,jsons/MX_seq4_1_VE1000.json,307819,570034,25,Woman
39,334644,final-intermixed-textured,v2,jsons/MX_seq4_1_VE1000.json,http://54.235.29.9/FacialAge/BNav_EC2/DepthDuration/MX_fS_VE_MTurk/MX_fS_HTML.html#216,216,1440,812,1440,900,1-8-2024,15-46-55,40,VR_target_stimuli/s12_0.75x_3.1_364_BC.png,1000,0.75x,3.1,3.0,4224,1000,meters,jsons/MX_seq4_1_VE1000.json,307819,570034,25,Woman
40,334644,final-intermixed-textured,v2,jsons/MX_seq4_1_VE1000.json,http://54.235.29.9/FacialAge/BNav_EC2/DepthDuration/MX_fS_VE_MTurk/MX_fS_HTML.html#216,216,1440,812,1440,900,1-8-2024,15-46-55,41,VR_target_stimuli/s30_1x_2.3_334.png,1000,1x,2.3,3.0,4252,1000,meters,jsons/MX_seq4_1_VE1000.json,307819,570034,25,Woman
41,334644,final-intermixed-textured,v2,jsons/MX_seq4_1_VE1000.json,http://54.235.29.9/FacialAge/BNav_EC2/DepthDuration/MX_fS_VE_MTurk/MX_fS_HTML.html#216,216,1440,812,1440,900,1-8-2024,15-46-55,42,VR_target_stimuli/s16_1.3x_1_223.png,1000,1.3x,1.0,2.0,3892,1000,meters,jsons/MX_seq4_1_VE1000.json,307819,570034,25,Woman
42,334644,final-intermixed-textured,v2,jsons/MX_seq4_1_VE1000.json,http://54.235.29.9/FacialAge/BNav_EC2/DepthDuration/MX_fS_VE_MTurk/MX_fS_HTML.html#216,216,1440,812,1440,900,1-8-2024,15-46-55,43,VR_target_stimuli/s17_0.75x_1.8_285.png,1000,0.75x,1.8,2.5,5022,1000,meters,jsons/MX_seq4_1_VE1000.json,307819,570034,25,Woman
43,334644,final-intermixed-textured,v2,jsons/MX_seq4_1_VE1000.json,http://54.235.29.9/FacialAge/BNav_EC2/DepthDuration/MX_fS_VE_MTurk/MX_fS_HTML.html#216,216,1440,812,1440,900,1-8-2024,15-46-55,44,VR_target_stimuli/s5_1.3x_4_393_BC.png,1000,1.3x,4.0,5.0,4309,999,meters,jsons/MX_seq4_1_VE1000.json,307819,570034,25,Woman
44,334644,final-intermixed-textured,v2,jsons/MX_seq4_1_VE1000.json,http://54.235.29.9/FacialAge/BNav_EC2/DepthDuration/MX_fS_VE_MTurk/MX_fS_HTML.html#216,216,1440,812,1440,900,1-8-2024,15-46-55,45,catch_stimuli/c4.png,1000,,,0.0,5447,1000,meters,jsons/MX_seq4_1_VE1000.json,307819,570034,25,Woman
45,334644,final-intermixed-textured,v2,jsons/MX_seq4_1_VE1000.json,http://54.235.29.9/FacialAge/BNav_EC2/DepthDuration/MX_fS_VE_MTurk/MX_fS_HTML.html#216,216,1440,812,1440,900,1-8-2024,15-46-55,46,VR_target_stimuli/s37_1x_3.3_563_BC.png,1000,1x,3.3,3.0,4443,1000,meters,jsons/MX_seq4_1_VE1000.json,307819,570034,25,Woman
46,334644,final-intermixed-textured,v2,jsons/MX_seq4_1_VE1000.json,http://54.235.29.9/FacialAge/BNav_EC2/DepthDuration/MX_fS_VE_MTurk/MX_fS_HTML.html#216,216,1440,812,1440,900,1-8-2024,15-46-55,47,VR_target_stimuli/s46_0.75x_2.42_343_BC.png,1000,0.75x,2.42,4.0,4053,1000,meters,jsons/MX_seq4_1_VE1000.json,307819,570034,25,Woman
47,334644,final-intermixed-textured,v2,jsons/MX_seq4_1_VE1000.json,http://54.235.29.9/FacialAge/BNav_EC2/DepthDuration/MX_fS_VE_MTurk/MX_fS_HTML.html#216,216,1440,812,1440,900,1-8-2024,15-46-55,48,VR_target_stimuli/s22_0.75x_4.29_348_BC.png,1000,0.75x,4.29,6.0,3824,1000,meters,jsons/MX_seq4_1_VE1000.json,307819,570034,25,Woman
48,334644,final-intermixed-textured,v2,jsons/MX_seq4_1_VE1000.json,http://54.235.29.9/FacialAge/BNav_EC2/DepthDuration/MX_fS_VE_MTurk/MX_fS_HTML.html#216,216,1440,812,1440,900,1-8-2024,15-46-55,49,VR_target_stimuli/s42_1.3x_3.2_305.png,1000,1.3x,3.2,5.0,3902,1001,meters,jsons/MX_seq4_1_VE1000.json,307819,570034,25,Woman
49,334644,final-intermixed-textured,v2,jsons/MX_seq4_1_VE1000.json,http://54.235.29.9/FacialAge/BNav_EC2/DepthDuration/MX_fS_VE_MTurk/MX_fS_HTML.html#216,216,1440,812,1440,900,1-8-2024,15-46-55,50,VR_target_stimuli/s25_1x_1.4_290.png,1000,1x,1.4,2.5,4899,1000,meters,jsons/MX_seq4_1_VE1000.json,307819,570034,25,Woman
50,334644,final-intermixed-textured,v2,jsons/MX_seq4_1_VE1000.json,http://54.235.29.9/FacialAge/BNav_EC2/DepthDuration/MX_fS_VE_MTurk/MX_fS_HTML.html#216,216,1440,812,1440,900,1-8-2024,15-46-55,51,VR_target_stimuli/s50_1.3x_4.53_518_BC.png,1000,1.3x,4.53,3.0,4062,1000,meters,jsons/MX_seq4_1_VE1000.json,307819,570034,25,Woman
51,334644,final-intermixed-textured,v2,jsons/MX_seq4_1_VE1000.json,http://54.235.29.9/FacialAge/BNav_EC2/DepthDuration/MX_fS_VE_MTurk/MX_fS_HTML.html#216,216,1440,812,1440,900,1-8-2024,15-46-55,52,VR_target_stimuli/s53_0.75x_1.6_403.png,1000,0.75x,1.6,2.0,5333,1001,meters,jsons/MX_seq4_1_VE1000.json,307819,570034,25,Woman
52,334644,final-intermixed-textured,v2,jsons/MX_seq4_1_VE1000.json,http://54.235.29.9/FacialAge/BNav_EC2/DepthDuration/MX_fS_VE_MTurk/MX_fS_HTML.html#216,216,1440,812,1440,900,1-8-2024,15-46-55,53,catch_stimuli/c5.png,1000,,,0.0,3698,1000,meters,jsons/MX_seq4_1_VE1000.json,307819,570034,25,Woman
53,334644,final-intermixed-textured,v2,jsons/MX_seq4_1_VE1000.json,http://54.235.29.9/FacialAge/BNav_EC2/DepthDuration/MX_fS_VE_MTurk/MX_fS_HTML.html#216,216,1440,812,1440,900,1-8-2024,15-46-55,54,VR_target_stimuli/s38_1x_3.55_353_BC.png,1000,1x,3.55,4.0,5148,999,meters,jsons/MX_seq4_1_VE1000.json,307819,570034,25,Woman
54,334644,final-intermixed-textured,v2,jsons/MX_seq4_1_VE1000.json,http://54.235.29.9/FacialAge/BNav_EC2/DepthDuration/MX_fS_VE_MTurk/MX_fS_HTML.html#216,216,1440,812,1440,900,1-8-2024,15-46-55,55,VR_target_stimuli/s9_0.75x_1.2_260.png,1000,0.75x,1.2,2.0,3794,1000,meters,jsons/MX_seq4_1_VE1000.json,307819,570034,25,Woman
55,334644,final-intermixed-textured,v2,jsons/MX_seq4_1_VE1000.json,http://54.235.29.9/FacialAge/BNav_EC2/DepthDuration/MX_fS_VE_MTurk/MX_fS_HTML.html#216,216,1440,812,1440,900,1-8-2024,15-46-55,56,VR_target_stimuli/s44_1.3x_4.4_325_BC.png,1000,1.3x,4.4,5.5,5377,1001,meters,jsons/MX_seq4_1_VE1000.json,307819,570034,25,Woman
56,334644,final-intermixed-textured,v2,jsons/MX_seq4_1_VE1000.json,http://54.235.29.9/FacialAge/BNav_EC2/DepthDuration/MX_fS_VE_MTurk/MX_fS_HTML.html#216,216,1440,812,1440,900,1-8-2024,15-46-55,57,VR_target_stimuli/s3_1x_5_385_BC.png,1000,1x,5.0,6.0,3864,1000,meters,jsons/MX_seq4_1_VE1000.json,307819,570034,25,Woman
57,334644,final-intermixed-textured,v2,jsons/MX_seq4_1_VE1000.json,http://54.235.29.9/FacialAge/BNav_EC2/DepthDuration/MX_fS_VE_MTurk/MX_fS_HTML.html#216,216,1440,812,1440,900,1-8-2024,15-46-55,58,VR_target_stimuli/s1_1x_1.7_262.png,1000,1x,1.7,2.5,4821,999,meters,jsons/MX_seq4_1_VE1000.json,307819,570034,25,Woman
58,334644,final-intermixed-textured,v2,jsons/MX_seq4_1_VE1000.json,http://54.235.29.9/FacialAge/BNav_EC2/DepthDuration/MX_fS_VE_MTurk/MX_fS_HTML.html#216,216,1440,812,1440,900,1-8-2024,15-46-55,59,VR_target_stimuli/s11_0.75x_5_359_BC.png,1000,0.75x,5.0,7.0,4333,1000,meters,jsons/MX_seq4_1_VE1000.json,307819,570034,25,Woman
59,334644,final-intermixed-textured,v2,jsons/MX_seq4_1_VE1000.json,http://54.235.29.9/FacialAge/BNav_EC2/DepthDuration/MX_fS_VE_MTurk/MX_fS_HTML.html#216,216,1440,812,1440,900,1-8-2024,15-46-55,60,VR_target_stimuli/s2_1.3x_2.7_397.png,1000,1.3x,2.7,3.5,4997,1000,meters,jsons/MX_seq4_1_VE1000.json,307819,570034,25,Woman
