,subjID,experimentName,versionName,sequenceName,url,selected_row,windowWidth,windowHeight,screenWidth,screenHeight,startDate,startTime,trial,stimulus,duration,scale,actual_depth,depth_estimate,trial_RT,log_sceneDuration,unitSelection,seq_filepath,experimentTime,totalTime,age,gender
0,348918,final-intermixed-textured,v2,jsons/MX_seq30_1_VE1000.json,http://54.235.29.9/FacialAge/BNav_EC2/DepthDuration/MX_fS_VE_MTurk/MX_fS_HTML.html#248,248,1600,773,1600,900,1-8-2024,19-31-39,1,VR_target_stimuli/s43_1.3x_2.2_363.png,1000,1.3x,2.2,10,6641,1000,meters,jsons/MX_seq30_1_VE1000.json,408206,661936,21,Woman
1,348918,final-intermixed-textured,v2,jsons/MX_seq30_1_VE1000.json,http://54.235.29.9/FacialAge/BNav_EC2/DepthDuration/MX_fS_VE_MTurk/MX_fS_HTML.html#248,248,1600,773,1600,900,1-8-2024,19-31-39,2,VR_target_stimuli/s24_0.75x_3.3_344.png,1000,0.75x,3.3,0,5457,1000,meters,jsons/MX_seq30_1_VE1000.json,408206,661936,21,Woman
2,348918,final-intermixed-textured,v2,jsons/MX_seq30_1_VE1000.json,http://54.235.29.9/FacialAge/BNav_EC2/DepthDuration/MX_fS_VE_MTurk/MX_fS_HTML.html#248,248,1600,773,1600,900,1-8-2024,19-31-39,3,VR_target_stimuli/s10_1x_2.7_324.png,1000,1x,2.7,12,6315,1001,meters,jsons/MX_seq30_1_VE1000.json,408206,661936,21,Woman
3,348918,final-intermixed-textured,v2,jsons/MX_seq30_1_VE1000.json,http://54.235.29.9/FacialAge/BNav_EC2/DepthDuration/MX_fS_VE_MTurk/MX_fS_HTML.html#248,248,1600,773,1600,900,1-8-2024,19-31-39,4,VR_target_stimuli/s36_0.75x_4.1_407_BC.png,1000,0.75x,4.1,15,6633,999,meters,jsons/MX_seq30_1_VE1000.json,408206,661936,21,Woman
4,348918,final-intermixed-textured,v2,jsons/MX_seq30_1_VE1000.json,http://54.235.29.9/FacialAge/BNav_EC2/DepthDuration/MX_fS_VE_MTurk/MX_fS_HTML.html#248,248,1600,773,1600,900,1-8-2024,19-31-39,5,VR_target_stimuli/s40_1.3x_1.2_332_BC.png,1000,1.3x,1.2,8,5794,1001,meters,jsons/MX_seq30_1_VE1000.json,408206,661936,21,Woman
5,348918,final-intermixed-textured,v2,jsons/MX_seq30_1_VE1000.json,http://54.235.29.9/FacialAge/BNav_EC2/DepthDuration/MX_fS_VE_MTurk/MX_fS_HTML.html#248,248,1600,773,1600,900,1-8-2024,19-31-39,6,VR_target_stimuli/s41_1x_2.1_286_BC.png,1000,1x,2.1,10,5763,1000,meters,jsons/MX_seq30_1_VE1000.json,408206,661936,21,Woman
6,348918,final-intermixed-textured,v2,jsons/MX_seq30_1_VE1000.json,http://54.235.29.9/FacialAge/BNav_EC2/DepthDuration/MX_fS_VE_MTurk/MX_fS_HTML.html#248,248,1600,773,1600,900,1-8-2024,19-31-39,7,catch_stimuli/c0.png,1000,,,9,11563,1000,meters,jsons/MX_seq30_1_VE1000.json,408206,661936,21,Woman
7,348918,final-intermixed-textured,v2,jsons/MX_seq30_1_VE1000.json,http://54.235.29.9/FacialAge/BNav_EC2/DepthDuration/MX_fS_VE_MTurk/MX_fS_HTML.html#248,248,1600,773,1600,900,1-8-2024,19-31-39,8,VR_target_stimuli/s45_1x_3.5_368.png,1000,1x,3.5,12,4858,1000,meters,jsons/MX_seq30_1_VE1000.json,408206,661936,21,Woman
8,348918,final-intermixed-textured,v2,jsons/MX_seq30_1_VE1000.json,http://54.235.29.9/FacialAge/BNav_EC2/DepthDuration/MX_fS_VE_MTurk/MX_fS_HTML.html#248,248,1600,773,1600,900,1-8-2024,19-31-39,9,VR_target_stimuli/s23_0.75x_3.65_351.png,1000,0.75x,3.65,0,5819,1001,meters,jsons/MX_seq30_1_VE1000.json,408206,661936,21,Woman
9,348918,final-intermixed-textured,v2,jsons/MX_seq30_1_VE1000.json,http://54.235.29.9/FacialAge/BNav_EC2/DepthDuration/MX_fS_VE_MTurk/MX_fS_HTML.html#248,248,1600,773,1600,900,1-8-2024,19-31-39,10,VR_target_stimuli/s26_1.3x_4_441.png,1000,1.3x,4.0,8,6675,1000,meters,jsons/MX_seq30_1_VE1000.json,408206,661936,21,Woman
10,348918,final-intermixed-textured,v2,jsons/MX_seq30_1_VE1000.json,http://54.235.29.9/FacialAge/BNav_EC2/DepthDuration/MX_fS_VE_MTurk/MX_fS_HTML.html#248,248,1600,773,1600,900,1-8-2024,19-31-39,11,VR_target_stimuli/s12_0.75x_3.1_364_BC.png,1000,0.75x,3.1,15,5843,1002,meters,jsons/MX_seq30_1_VE1000.json,408206,661936,21,Woman
11,348918,final-intermixed-textured,v2,jsons/MX_seq30_1_VE1000.json,http://54.235.29.9/FacialAge/BNav_EC2/DepthDuration/MX_fS_VE_MTurk/MX_fS_HTML.html#248,248,1600,773,1600,900,1-8-2024,19-31-39,12,VR_target_stimuli/s30_1x_2.3_334_BC.png,1000,1x,2.3,8,6067,1000,meters,jsons/MX_seq30_1_VE1000.json,408206,661936,21,Woman
12,348918,final-intermixed-textured,v2,jsons/MX_seq30_1_VE1000.json,http://54.235.29.9/FacialAge/BNav_EC2/DepthDuration/MX_fS_VE_MTurk/MX_fS_HTML.html#248,248,1600,773,1600,900,1-8-2024,19-31-39,13,VR_target_stimuli/s16_1.3x_1_223_BC.png,1000,1.3x,1.0,6,6979,1001,meters,jsons/MX_seq30_1_VE1000.json,408206,661936,21,Woman
13,348918,final-intermixed-textured,v2,jsons/MX_seq30_1_VE1000.json,http://54.235.29.9/FacialAge/BNav_EC2/DepthDuration/MX_fS_VE_MTurk/MX_fS_HTML.html#248,248,1600,773,1600,900,1-8-2024,19-31-39,14,VR_target_stimuli/s17_1x_1.8_291_BC.png,1000,1x,1.8,9,6339,1000,meters,jsons/MX_seq30_1_VE1000.json,408206,661936,21,Woman
14,348918,final-intermixed-textured,v2,jsons/MX_seq30_1_VE1000.json,http://54.235.29.9/FacialAge/BNav_EC2/DepthDuration/MX_fS_VE_MTurk/MX_fS_HTML.html#248,248,1600,773,1600,900,1-8-2024,19-31-39,15,VR_target_stimuli/s5_0.75x_4_375.png,1000,0.75x,4.0,20,5394,999,meters,jsons/MX_seq30_1_VE1000.json,408206,661936,21,Woman
15,348918,final-intermixed-textured,v2,jsons/MX_seq30_1_VE1000.json,http://54.235.29.9/FacialAge/BNav_EC2/DepthDuration/MX_fS_VE_MTurk/MX_fS_HTML.html#248,248,1600,773,1600,900,1-8-2024,19-31-39,16,VR_target_stimuli/s37_1.3x_3.3_555_BC.png,1000,1.3x,3.3,30,5243,1001,meters,jsons/MX_seq30_1_VE1000.json,408206,661936,21,Woman
16,348918,final-intermixed-textured,v2,jsons/MX_seq30_1_VE1000.json,http://54.235.29.9/FacialAge/BNav_EC2/DepthDuration/MX_fS_VE_MTurk/MX_fS_HTML.html#248,248,1600,773,1600,900,1-8-2024,19-31-39,17,catch_stimuli/c1.png,1000,,,0,4810,1000,meters,jsons/MX_seq30_1_VE1000.json,408206,661936,21,Woman
17,348918,final-intermixed-textured,v2,jsons/MX_seq30_1_VE1000.json,http://54.235.29.9/FacialAge/BNav_EC2/DepthDuration/MX_fS_VE_MTurk/MX_fS_HTML.html#248,248,1600,773,1600,900,1-8-2024,19-31-39,18,VR_target_stimuli/s46_1.3x_2.42_354.png,1000,1.3x,2.42,10,5763,1001,meters,jsons/MX_seq30_1_VE1000.json,408206,661936,21,Woman
18,348918,final-intermixed-textured,v2,jsons/MX_seq30_1_VE1000.json,http://54.235.29.9/FacialAge/BNav_EC2/DepthDuration/MX_fS_VE_MTurk/MX_fS_HTML.html#248,248,1600,773,1600,900,1-8-2024,19-31-39,19,VR_target_stimuli/s22_1x_4.29_354.png,1000,1x,4.29,25,9674,999,meters,jsons/MX_seq30_1_VE1000.json,408206,661936,21,Woman
19,348918,final-intermixed-textured,v2,jsons/MX_seq30_1_VE1000.json,http://54.235.29.9/FacialAge/BNav_EC2/DepthDuration/MX_fS_VE_MTurk/MX_fS_HTML.html#248,248,1600,773,1600,900,1-8-2024,19-31-39,20,VR_target_stimuli/s42_0.75x_3.2_301_BC.png,1000,0.75x,3.2,25,10379,1000,meters,jsons/MX_seq30_1_VE1000.json,408206,661936,21,Woman
20,348918,final-intermixed-textured,v2,jsons/MX_seq30_1_VE1000.json,http://54.235.29.9/FacialAge/BNav_EC2/DepthDuration/MX_fS_VE_MTurk/MX_fS_HTML.html#248,248,1600,773,1600,900,1-8-2024,19-31-39,21,VR_target_stimuli/s25_1x_1.4_290.png,1000,1x,1.4,6,8547,1001,meters,jsons/MX_seq30_1_VE1000.json,408206,661936,21,Woman
21,348918,final-intermixed-textured,v2,jsons/MX_seq30_1_VE1000.json,http://54.235.29.9/FacialAge/BNav_EC2/DepthDuration/MX_fS_VE_MTurk/MX_fS_HTML.html#248,248,1600,773,1600,900,1-8-2024,19-31-39,22,VR_target_stimuli/s50_1.3x_4.53_518_BC.png,1000,1.3x,4.53,10,7163,1001,meters,jsons/MX_seq30_1_VE1000.json,408206,661936,21,Woman
22,348918,final-intermixed-textured,v2,jsons/MX_seq30_1_VE1000.json,http://54.235.29.9/FacialAge/BNav_EC2/DepthDuration/MX_fS_VE_MTurk/MX_fS_HTML.html#248,248,1600,773,1600,900,1-8-2024,19-31-39,23,VR_target_stimuli/s53_0.75x_1.6_403.png,1000,0.75x,1.6,5,5626,999,meters,jsons/MX_seq30_1_VE1000.json,408206,661936,21,Woman
23,348918,final-intermixed-textured,v2,jsons/MX_seq30_1_VE1000.json,http://54.235.29.9/FacialAge/BNav_EC2/DepthDuration/MX_fS_VE_MTurk/MX_fS_HTML.html#248,248,1600,773,1600,900,1-8-2024,19-31-39,24,VR_target_stimuli/s38_1.3x_3.55_358.png,1000,1.3x,3.55,30,5306,999,meters,jsons/MX_seq30_1_VE1000.json,408206,661936,21,Woman
24,348918,final-intermixed-textured,v2,jsons/MX_seq30_1_VE1000.json,http://54.235.29.9/FacialAge/BNav_EC2/DepthDuration/MX_fS_VE_MTurk/MX_fS_HTML.html#248,248,1600,773,1600,900,1-8-2024,19-31-39,25,VR_target_stimuli/s9_1x_1.2_263_BC.png,1000,1x,1.2,8,5090,1000,meters,jsons/MX_seq30_1_VE1000.json,408206,661936,21,Woman
25,348918,final-intermixed-textured,v2,jsons/MX_seq30_1_VE1000.json,http://54.235.29.9/FacialAge/BNav_EC2/DepthDuration/MX_fS_VE_MTurk/MX_fS_HTML.html#248,248,1600,773,1600,900,1-8-2024,19-31-39,26,catch_stimuli/c2.png,1000,,,0,5154,1001,meters,jsons/MX_seq30_1_VE1000.json,408206,661936,21,Woman
26,348918,final-intermixed-textured,v2,jsons/MX_seq30_1_VE1000.json,http://54.235.29.9/FacialAge/BNav_EC2/DepthDuration/MX_fS_VE_MTurk/MX_fS_HTML.html#248,248,1600,773,1600,900,1-8-2024,19-31-39,27,VR_target_stimuli/s44_0.75x_4.4_314_BC.png,1000,0.75x,4.4,40,6746,999,meters,jsons/MX_seq30_1_VE1000.json,408206,661936,21,Woman
27,348918,final-intermixed-textured,v2,jsons/MX_seq30_1_VE1000.json,http://54.235.29.9/FacialAge/BNav_EC2/DepthDuration/MX_fS_VE_MTurk/MX_fS_HTML.html#248,248,1600,773,1600,900,1-8-2024,19-31-39,28,VR_target_stimuli/s3_0.75x_5_381_BC.png,1000,0.75x,5.0,9,6473,999,meters,jsons/MX_seq30_1_VE1000.json,408206,661936,21,Woman
28,348918,final-intermixed-textured,v2,jsons/MX_seq30_1_VE1000.json,http://54.235.29.9/FacialAge/BNav_EC2/DepthDuration/MX_fS_VE_MTurk/MX_fS_HTML.html#248,248,1600,773,1600,900,1-8-2024,19-31-39,29,VR_target_stimuli/s1_1.3x_1.7_261_BC.png,1000,1.3x,1.7,8,5243,999,meters,jsons/MX_seq30_1_VE1000.json,408206,661936,21,Woman
29,348918,final-intermixed-textured,v2,jsons/MX_seq30_1_VE1000.json,http://54.235.29.9/FacialAge/BNav_EC2/DepthDuration/MX_fS_VE_MTurk/MX_fS_HTML.html#248,248,1600,773,1600,900,1-8-2024,19-31-39,30,VR_target_stimuli/s11_1x_5_361.png,1000,1x,5.0,15,6969,1000,meters,jsons/MX_seq30_1_VE1000.json,408206,661936,21,Woman
30,348918,final-intermixed-textured,v2,jsons/MX_seq30_1_VE1000.json,http://54.235.29.9/FacialAge/BNav_EC2/DepthDuration/MX_fS_VE_MTurk/MX_fS_HTML.html#248,248,1600,773,1600,900,1-8-2024,19-31-39,31,VR_target_stimuli/s2_0.75x_2.7_384.png,1000,0.75x,2.7,8,4963,1000,meters,jsons/MX_seq30_1_VE1000.json,408206,661936,21,Woman
31,348918,final-intermixed-textured,v2,jsons/MX_seq30_1_VE1000.json,http://54.235.29.9/FacialAge/BNav_EC2/DepthDuration/MX_fS_VE_MTurk/MX_fS_HTML.html#248,248,1600,773,1600,900,1-8-2024,19-31-39,32,VR_target_stimuli/s6_1x_2.1_293_BC.png,1000,1x,2.1,7,5636,999,meters,jsons/MX_seq30_1_VE1000.json,408206,661936,21,Woman
32,348918,final-intermixed-textured,v2,jsons/MX_seq30_1_VE1000.json,http://54.235.29.9/FacialAge/BNav_EC2/DepthDuration/MX_fS_VE_MTurk/MX_fS_HTML.html#248,248,1600,773,1600,900,1-8-2024,19-31-39,33,VR_target_stimuli/s0_1.3x_2.6_356.png,1000,1.3x,2.6,9,10482,999,meters,jsons/MX_seq30_1_VE1000.json,408206,661936,21,Woman
33,348918,final-intermixed-textured,v2,jsons/MX_seq30_1_VE1000.json,http://54.235.29.9/FacialAge/BNav_EC2/DepthDuration/MX_fS_VE_MTurk/MX_fS_HTML.html#248,248,1600,773,1600,900,1-8-2024,19-31-39,34,catch_stimuli/c3.png,1000,,,0,4729,996,meters,jsons/MX_seq30_1_VE1000.json,408206,661936,21,Woman
34,348918,final-intermixed-textured,v2,jsons/MX_seq30_1_VE1000.json,http://54.235.29.9/FacialAge/BNav_EC2/DepthDuration/MX_fS_VE_MTurk/MX_fS_HTML.html#248,248,1600,773,1600,900,1-8-2024,19-31-39,35,VR_target_stimuli/s34_1x_2.8_283.png,1000,1x,2.8,10,6642,999,meters,jsons/MX_seq30_1_VE1000.json,408206,661936,21,Woman
35,348918,final-intermixed-textured,v2,jsons/MX_seq30_1_VE1000.json,http://54.235.29.9/FacialAge/BNav_EC2/DepthDuration/MX_fS_VE_MTurk/MX_fS_HTML.html#248,248,1600,773,1600,900,1-8-2024,19-31-39,36,VR_target_stimuli/s13_0.75x_2.4_308.png,1000,0.75x,2.4,15,5371,1001,meters,jsons/MX_seq30_1_VE1000.json,408206,661936,21,Woman
36,348918,final-intermixed-textured,v2,jsons/MX_seq30_1_VE1000.json,http://54.235.29.9/FacialAge/BNav_EC2/DepthDuration/MX_fS_VE_MTurk/MX_fS_HTML.html#248,248,1600,773,1600,900,1-8-2024,19-31-39,37,VR_target_stimuli/s14_1.3x_3.83_359_BC.png,1000,1.3x,3.83,0,5946,1001,meters,jsons/MX_seq30_1_VE1000.json,408206,661936,21,Woman
37,348918,final-intermixed-textured,v2,jsons/MX_seq30_1_VE1000.json,http://54.235.29.9/FacialAge/BNav_EC2/DepthDuration/MX_fS_VE_MTurk/MX_fS_HTML.html#248,248,1600,773,1600,900,1-8-2024,19-31-39,38,VR_target_stimuli/s47_1.3x_3.45_373.png,1000,1.3x,3.45,18,7282,999,meters,jsons/MX_seq30_1_VE1000.json,408206,661936,21,Woman
38,348918,final-intermixed-textured,v2,jsons/MX_seq30_1_VE1000.json,http://54.235.29.9/FacialAge/BNav_EC2/DepthDuration/MX_fS_VE_MTurk/MX_fS_HTML.html#248,248,1600,773,1600,900,1-8-2024,19-31-39,39,VR_target_stimuli/s29_1x_1.3_250_BC.png,1000,1x,1.3,10,5499,998,meters,jsons/MX_seq30_1_VE1000.json,408206,661936,21,Woman
39,348918,final-intermixed-textured,v2,jsons/MX_seq30_1_VE1000.json,http://54.235.29.9/FacialAge/BNav_EC2/DepthDuration/MX_fS_VE_MTurk/MX_fS_HTML.html#248,248,1600,773,1600,900,1-8-2024,19-31-39,40,VR_target_stimuli/s28_0.75x_3.2_357_BC.png,1000,0.75x,3.2,17,5865,998,meters,jsons/MX_seq30_1_VE1000.json,408206,661936,21,Woman
40,348918,final-intermixed-textured,v2,jsons/MX_seq30_1_VE1000.json,http://54.235.29.9/FacialAge/BNav_EC2/DepthDuration/MX_fS_VE_MTurk/MX_fS_HTML.html#248,248,1600,773,1600,900,1-8-2024,19-31-39,41,VR_target_stimuli/s48_1x_2.55_256.png,1000,1x,2.55,20,7123,1000,meters,jsons/MX_seq30_1_VE1000.json,408206,661936,21,Woman
41,348918,final-intermixed-textured,v2,jsons/MX_seq30_1_VE1000.json,http://54.235.29.9/FacialAge/BNav_EC2/DepthDuration/MX_fS_VE_MTurk/MX_fS_HTML.html#248,248,1600,773,1600,900,1-8-2024,19-31-39,42,VR_target_stimuli/s19_1.3x_1.21_270.png,1000,1.3x,1.21,10,5681,1000,meters,jsons/MX_seq30_1_VE1000.json,408206,661936,21,Woman
42,348918,final-intermixed-textured,v2,jsons/MX_seq30_1_VE1000.json,http://54.235.29.9/FacialAge/BNav_EC2/DepthDuration/MX_fS_VE_MTurk/MX_fS_HTML.html#248,248,1600,773,1600,900,1-8-2024,19-31-39,43,VR_target_stimuli/s21_0.75x_4.22_374_BC.png,1000,0.75x,4.22,50,6810,999,meters,jsons/MX_seq30_1_VE1000.json,408206,661936,21,Woman
43,348918,final-intermixed-textured,v2,jsons/MX_seq30_1_VE1000.json,http://54.235.29.9/FacialAge/BNav_EC2/DepthDuration/MX_fS_VE_MTurk/MX_fS_HTML.html#248,248,1600,773,1600,900,1-8-2024,19-31-39,44,VR_target_stimuli/s8_1.3x_3.1_345_BC.png,1000,1.3x,3.1,50,6212,1000,meters,jsons/MX_seq30_1_VE1000.json,408206,661936,21,Woman
44,348918,final-intermixed-textured,v2,jsons/MX_seq30_1_VE1000.json,http://54.235.29.9/FacialAge/BNav_EC2/DepthDuration/MX_fS_VE_MTurk/MX_fS_HTML.html#248,248,1600,773,1600,900,1-8-2024,19-31-39,45,catch_stimuli/c4.png,1000,,,0,4866,998,meters,jsons/MX_seq30_1_VE1000.json,408206,661936,21,Woman
45,348918,final-intermixed-textured,v2,jsons/MX_seq30_1_VE1000.json,http://54.235.29.9/FacialAge/BNav_EC2/DepthDuration/MX_fS_VE_MTurk/MX_fS_HTML.html#248,248,1600,773,1600,900,1-8-2024,19-31-39,46,VR_target_stimuli/s27_1x_1.76_248_BC.png,1000,1x,1.76,15,5667,1000,meters,jsons/MX_seq30_1_VE1000.json,408206,661936,21,Woman
46,348918,final-intermixed-textured,v2,jsons/MX_seq30_1_VE1000.json,http://54.235.29.9/FacialAge/BNav_EC2/DepthDuration/MX_fS_VE_MTurk/MX_fS_HTML.html#248,248,1600,773,1600,900,1-8-2024,19-31-39,47,VR_target_stimuli/s15_0.75x_4.2_388.png,1000,0.75x,4.2,40,5466,1001,meters,jsons/MX_seq30_1_VE1000.json,408206,661936,21,Woman
47,348918,final-intermixed-textured,v2,jsons/MX_seq30_1_VE1000.json,http://54.235.29.9/FacialAge/BNav_EC2/DepthDuration/MX_fS_VE_MTurk/MX_fS_HTML.html#248,248,1600,773,1600,900,1-8-2024,19-31-39,48,VR_target_stimuli/s4_0.75x_1.4_301.png,1000,0.75x,1.4,30,7123,999,meters,jsons/MX_seq30_1_VE1000.json,408206,661936,21,Woman
48,348918,final-intermixed-textured,v2,jsons/MX_seq30_1_VE1000.json,http://54.235.29.9/FacialAge/BNav_EC2/DepthDuration/MX_fS_VE_MTurk/MX_fS_HTML.html#248,248,1600,773,1600,900,1-8-2024,19-31-39,49,VR_target_stimuli/s35_1.3x_2_338.png,1000,1.3x,2.0,15,5178,999,meters,jsons/MX_seq30_1_VE1000.json,408206,661936,21,Woman
49,348918,final-intermixed-textured,v2,jsons/MX_seq30_1_VE1000.json,http://54.235.29.9/FacialAge/BNav_EC2/DepthDuration/MX_fS_VE_MTurk/MX_fS_HTML.html#248,248,1600,773,1600,900,1-8-2024,19-31-39,50,VR_target_stimuli/s49_1x_4.67_341.png,1000,1x,4.67,40,5626,1000,meters,jsons/MX_seq30_1_VE1000.json,408206,661936,21,Woman
50,348918,final-intermixed-textured,v2,jsons/MX_seq30_1_VE1000.json,http://54.235.29.9/FacialAge/BNav_EC2/DepthDuration/MX_fS_VE_MTurk/MX_fS_HTML.html#248,248,1600,773,1600,900,1-8-2024,19-31-39,51,VR_target_stimuli/s7_1.3x_1.5_256_BC.png,1000,1.3x,1.5,15,6849,1000,meters,jsons/MX_seq30_1_VE1000.json,408206,661936,21,Woman
51,348918,final-intermixed-textured,v2,jsons/MX_seq30_1_VE1000.json,http://54.235.29.9/FacialAge/BNav_EC2/DepthDuration/MX_fS_VE_MTurk/MX_fS_HTML.html#248,248,1600,773,1600,900,1-8-2024,19-31-39,52,VR_target_stimuli/s20_0.75x_4.99_390_BC.png,1000,0.75x,4.99,50,4962,999,meters,jsons/MX_seq30_1_VE1000.json,408206,661936,21,Woman
52,348918,final-intermixed-textured,v2,jsons/MX_seq30_1_VE1000.json,http://54.235.29.9/FacialAge/BNav_EC2/DepthDuration/MX_fS_VE_MTurk/MX_fS_HTML.html#248,248,1600,773,1600,900,1-8-2024,19-31-39,53,catch_stimuli/c5.png,1000,,,0,4818,1001,meters,jsons/MX_seq30_1_VE1000.json,408206,661936,21,Woman
53,348918,final-intermixed-textured,v2,jsons/MX_seq30_1_VE1000.json,http://54.235.29.9/FacialAge/BNav_EC2/DepthDuration/MX_fS_VE_MTurk/MX_fS_HTML.html#248,248,1600,773,1600,900,1-8-2024,19-31-39,54,VR_target_stimuli/s31_1x_4.96_333_BC.png,1000,1x,4.96,30,5787,1000,meters,jsons/MX_seq30_1_VE1000.json,408206,661936,21,Woman
54,348918,final-intermixed-textured,v2,jsons/MX_seq30_1_VE1000.json,http://54.235.29.9/FacialAge/BNav_EC2/DepthDuration/MX_fS_VE_MTurk/MX_fS_HTML.html#248,248,1600,773,1600,900,1-8-2024,19-31-39,55,VR_target_stimuli/s33_0.75x_3.1_361.png,1000,0.75x,3.1,35,5679,999,meters,jsons/MX_seq30_1_VE1000.json,408206,661936,21,Woman
55,348918,final-intermixed-textured,v2,jsons/MX_seq30_1_VE1000.json,http://54.235.29.9/FacialAge/BNav_EC2/DepthDuration/MX_fS_VE_MTurk/MX_fS_HTML.html#248,248,1600,773,1600,900,1-8-2024,19-31-39,56,VR_target_stimuli/s52_1.3x_3.2_280_BC.png,1000,1.3x,3.2,30,5157,999,meters,jsons/MX_seq30_1_VE1000.json,408206,661936,21,Woman
56,348918,final-intermixed-textured,v2,jsons/MX_seq30_1_VE1000.json,http://54.235.29.9/FacialAge/BNav_EC2/DepthDuration/MX_fS_VE_MTurk/MX_fS_HTML.html#248,248,1600,773,1600,900,1-8-2024,19-31-39,57,VR_target_stimuli/s32_1x_1.5_218.png,1000,1x,1.5,9,7606,1000,meters,jsons/MX_seq30_1_VE1000.json,408206,661936,21,Woman
57,348918,final-intermixed-textured,v2,jsons/MX_seq30_1_VE1000.json,http://54.235.29.9/FacialAge/BNav_EC2/DepthDuration/MX_fS_VE_MTurk/MX_fS_HTML.html#248,248,1600,773,1600,900,1-8-2024,19-31-39,58,VR_target_stimuli/s18_1x_2.25_353_BC.png,1000,1x,2.25,10,8888,999,meters,jsons/MX_seq30_1_VE1000.json,408206,661936,21,Woman
58,348918,final-intermixed-textured,v2,jsons/MX_seq30_1_VE1000.json,http://54.235.29.9/FacialAge/BNav_EC2/DepthDuration/MX_fS_VE_MTurk/MX_fS_HTML.html#248,248,1600,773,1600,900,1-8-2024,19-31-39,59,VR_target_stimuli/s39_0.75x_1_205_BC.png,1000,0.75x,1.0,8,7450,999,meters,jsons/MX_seq30_1_VE1000.json,408206,661936,21,Woman
59,348918,final-intermixed-textured,v2,jsons/MX_seq30_1_VE1000.json,http://54.235.29.9/FacialAge/BNav_EC2/DepthDuration/MX_fS_VE_MTurk/MX_fS_HTML.html#248,248,1600,773,1600,900,1-8-2024,19-31-39,60,VR_target_stimuli/s51_1.3x_3.64_479.png,1000,1.3x,3.64,10,4418,1000,meters,jsons/MX_seq30_1_VE1000.json,408206,661936,21,Woman
