,subjID,experimentName,versionName,sequenceName,url,selected_row,windowWidth,windowHeight,screenWidth,screenHeight,startDate,startTime,trial,stimulus,duration,scale,actual_depth,depth_estimate,trial_RT,log_sceneDuration,unitSelection,seq_filepath,experimentTime,totalTime,age,gender
0,360382,final-intermixed-textured,v2,jsons/MX_seq28_0_VE1000_flipped.json,http://54.235.29.9/FacialAge/BNav_EC2/DepthDuration/MX_fS_VE_MTurk/MX_fS_HTML.html#82,82,1903,910,1920,1080,1-8-2024,18-31-24,1,VR_target_stimuli/s39_0.75x_1_205_BC.png,1000,0.75x,1.0,1,4561,1013,meters,jsons/MX_seq28_0_VE1000_flipped.json,226656,423652,19,Man
1,360382,final-intermixed-textured,v2,jsons/MX_seq28_0_VE1000_flipped.json,http://54.235.29.9/FacialAge/BNav_EC2/DepthDuration/MX_fS_VE_MTurk/MX_fS_HTML.html#82,82,1903,910,1920,1080,1-8-2024,18-31-24,2,VR_target_stimuli/s51_1x_3.64_461_BC.png,1000,1x,3.64,3,4705,1000,meters,jsons/MX_seq28_0_VE1000_flipped.json,226656,423652,19,Man
2,360382,final-intermixed-textured,v2,jsons/MX_seq28_0_VE1000_flipped.json,http://54.235.29.9/FacialAge/BNav_EC2/DepthDuration/MX_fS_VE_MTurk/MX_fS_HTML.html#82,82,1903,910,1920,1080,1-8-2024,18-31-24,3,VR_target_stimuli/s43_1.3x_2.2_363_BC.png,1000,1.3x,2.2,2,2678,1003,meters,jsons/MX_seq28_0_VE1000_flipped.json,226656,423652,19,Man
3,360382,final-intermixed-textured,v2,jsons/MX_seq28_0_VE1000_flipped.json,http://54.235.29.9/FacialAge/BNav_EC2/DepthDuration/MX_fS_VE_MTurk/MX_fS_HTML.html#82,82,1903,910,1920,1080,1-8-2024,18-31-24,4,VR_target_stimuli/s24_1x_3.3_349.png,1000,1x,3.3,4,2466,1005,meters,jsons/MX_seq28_0_VE1000_flipped.json,226656,423652,19,Man
4,360382,final-intermixed-textured,v2,jsons/MX_seq28_0_VE1000_flipped.json,http://54.235.29.9/FacialAge/BNav_EC2/DepthDuration/MX_fS_VE_MTurk/MX_fS_HTML.html#82,82,1903,910,1920,1080,1-8-2024,18-31-24,5,VR_target_stimuli/s10_0.75x_2.7_321.png,1000,0.75x,2.7,2,7778,1000,meters,jsons/MX_seq28_0_VE1000_flipped.json,226656,423652,19,Man
5,360382,final-intermixed-textured,v2,jsons/MX_seq28_0_VE1000_flipped.json,http://54.235.29.9/FacialAge/BNav_EC2/DepthDuration/MX_fS_VE_MTurk/MX_fS_HTML.html#82,82,1903,910,1920,1080,1-8-2024,18-31-24,6,VR_target_stimuli/s36_1.3x_4.1_442.png,1000,1.3x,4.1,4,2907,993,meters,jsons/MX_seq28_0_VE1000_flipped.json,226656,423652,19,Man
6,360382,final-intermixed-textured,v2,jsons/MX_seq28_0_VE1000_flipped.json,http://54.235.29.9/FacialAge/BNav_EC2/DepthDuration/MX_fS_VE_MTurk/MX_fS_HTML.html#82,82,1903,910,1920,1080,1-8-2024,18-31-24,7,catch_stimuli/c0_BC.png,1000,,,0,4520,1004,meters,jsons/MX_seq28_0_VE1000_flipped.json,226656,423652,19,Man
7,360382,final-intermixed-textured,v2,jsons/MX_seq28_0_VE1000_flipped.json,http://54.235.29.9/FacialAge/BNav_EC2/DepthDuration/MX_fS_VE_MTurk/MX_fS_HTML.html#82,82,1903,910,1920,1080,1-8-2024,18-31-24,8,VR_target_stimuli/s40_1.3x_1.2_332_BC.png,1000,1.3x,1.2,1,3722,1005,meters,jsons/MX_seq28_0_VE1000_flipped.json,226656,423652,19,Man
8,360382,final-intermixed-textured,v2,jsons/MX_seq28_0_VE1000_flipped.json,http://54.235.29.9/FacialAge/BNav_EC2/DepthDuration/MX_fS_VE_MTurk/MX_fS_HTML.html#82,82,1903,910,1920,1080,1-8-2024,18-31-24,9,VR_target_stimuli/s41_1x_2.1_286_BC.png,1000,1x,2.1,2,3157,1001,meters,jsons/MX_seq28_0_VE1000_flipped.json,226656,423652,19,Man
9,360382,final-intermixed-textured,v2,jsons/MX_seq28_0_VE1000_flipped.json,http://54.235.29.9/FacialAge/BNav_EC2/DepthDuration/MX_fS_VE_MTurk/MX_fS_HTML.html#82,82,1903,910,1920,1080,1-8-2024,18-31-24,10,VR_target_stimuli/s45_0.75x_3.5_362.png,1000,0.75x,3.5,3,2731,1002,meters,jsons/MX_seq28_0_VE1000_flipped.json,226656,423652,19,Man
10,360382,final-intermixed-textured,v2,jsons/MX_seq28_0_VE1000_flipped.json,http://54.235.29.9/FacialAge/BNav_EC2/DepthDuration/MX_fS_VE_MTurk/MX_fS_HTML.html#82,82,1903,910,1920,1080,1-8-2024,18-31-24,11,VR_target_stimuli/s23_1x_3.65_353.png,1000,1x,3.65,3,4296,993,meters,jsons/MX_seq28_0_VE1000_flipped.json,226656,423652,19,Man
11,360382,final-intermixed-textured,v2,jsons/MX_seq28_0_VE1000_flipped.json,http://54.235.29.9/FacialAge/BNav_EC2/DepthDuration/MX_fS_VE_MTurk/MX_fS_HTML.html#82,82,1903,910,1920,1080,1-8-2024,18-31-24,12,VR_target_stimuli/s26_1.3x_4_441.png,1000,1.3x,4.0,3,3877,1000,meters,jsons/MX_seq28_0_VE1000_flipped.json,226656,423652,19,Man
12,360382,final-intermixed-textured,v2,jsons/MX_seq28_0_VE1000_flipped.json,http://54.235.29.9/FacialAge/BNav_EC2/DepthDuration/MX_fS_VE_MTurk/MX_fS_HTML.html#82,82,1903,910,1920,1080,1-8-2024,18-31-24,13,VR_target_stimuli/s12_0.75x_3.1_364_BC.png,1000,0.75x,3.1,2,3475,1001,meters,jsons/MX_seq28_0_VE1000_flipped.json,226656,423652,19,Man
13,360382,final-intermixed-textured,v2,jsons/MX_seq28_0_VE1000_flipped.json,http://54.235.29.9/FacialAge/BNav_EC2/DepthDuration/MX_fS_VE_MTurk/MX_fS_HTML.html#82,82,1903,910,1920,1080,1-8-2024,18-31-24,14,VR_target_stimuli/s30_1.3x_2.3_337.png,1000,1.3x,2.3,2,2366,992,meters,jsons/MX_seq28_0_VE1000_flipped.json,226656,423652,19,Man
14,360382,final-intermixed-textured,v2,jsons/MX_seq28_0_VE1000_flipped.json,http://54.235.29.9/FacialAge/BNav_EC2/DepthDuration/MX_fS_VE_MTurk/MX_fS_HTML.html#82,82,1903,910,1920,1080,1-8-2024,18-31-24,15,VR_target_stimuli/s16_1x_1_219.png,1000,1x,1.0,2,3404,1005,meters,jsons/MX_seq28_0_VE1000_flipped.json,226656,423652,19,Man
15,360382,final-intermixed-textured,v2,jsons/MX_seq28_0_VE1000_flipped.json,http://54.235.29.9/FacialAge/BNav_EC2/DepthDuration/MX_fS_VE_MTurk/MX_fS_HTML.html#82,82,1903,910,1920,1080,1-8-2024,18-31-24,16,VR_target_stimuli/s17_0.75x_1.8_285_BC.png,1000,0.75x,1.8,2,2442,1003,meters,jsons/MX_seq28_0_VE1000_flipped.json,226656,423652,19,Man
16,360382,final-intermixed-textured,v2,jsons/MX_seq28_0_VE1000_flipped.json,http://54.235.29.9/FacialAge/BNav_EC2/DepthDuration/MX_fS_VE_MTurk/MX_fS_HTML.html#82,82,1903,910,1920,1080,1-8-2024,18-31-24,17,catch_stimuli/c1_BC.png,1000,,,0,4114,998,meters,jsons/MX_seq28_0_VE1000_flipped.json,226656,423652,19,Man
17,360382,final-intermixed-textured,v2,jsons/MX_seq28_0_VE1000_flipped.json,http://54.235.29.9/FacialAge/BNav_EC2/DepthDuration/MX_fS_VE_MTurk/MX_fS_HTML.html#82,82,1903,910,1920,1080,1-8-2024,18-31-24,18,VR_target_stimuli/s5_0.75x_4_375.png,1000,0.75x,4.0,3,2630,997,meters,jsons/MX_seq28_0_VE1000_flipped.json,226656,423652,19,Man
18,360382,final-intermixed-textured,v2,jsons/MX_seq28_0_VE1000_flipped.json,http://54.235.29.9/FacialAge/BNav_EC2/DepthDuration/MX_fS_VE_MTurk/MX_fS_HTML.html#82,82,1903,910,1920,1080,1-8-2024,18-31-24,19,VR_target_stimuli/s37_1.3x_3.3_555_BC.png,1000,1.3x,3.3,1,2873,1000,meters,jsons/MX_seq28_0_VE1000_flipped.json,226656,423652,19,Man
19,360382,final-intermixed-textured,v2,jsons/MX_seq28_0_VE1000_flipped.json,http://54.235.29.9/FacialAge/BNav_EC2/DepthDuration/MX_fS_VE_MTurk/MX_fS_HTML.html#82,82,1903,910,1920,1080,1-8-2024,18-31-24,20,VR_target_stimuli/s46_1x_2.42_348_BC.png,1000,1x,2.42,1,2368,997,meters,jsons/MX_seq28_0_VE1000_flipped.json,226656,423652,19,Man
20,360382,final-intermixed-textured,v2,jsons/MX_seq28_0_VE1000_flipped.json,http://54.235.29.9/FacialAge/BNav_EC2/DepthDuration/MX_fS_VE_MTurk/MX_fS_HTML.html#82,82,1903,910,1920,1080,1-8-2024,18-31-24,21,VR_target_stimuli/s22_1.3x_4.29_364_BC.png,1000,1.3x,4.29,3,2505,1008,meters,jsons/MX_seq28_0_VE1000_flipped.json,226656,423652,19,Man
21,360382,final-intermixed-textured,v2,jsons/MX_seq28_0_VE1000_flipped.json,http://54.235.29.9/FacialAge/BNav_EC2/DepthDuration/MX_fS_VE_MTurk/MX_fS_HTML.html#82,82,1903,910,1920,1080,1-8-2024,18-31-24,22,VR_target_stimuli/s42_0.75x_3.2_301_BC.png,1000,0.75x,3.2,2,3639,996,meters,jsons/MX_seq28_0_VE1000_flipped.json,226656,423652,19,Man
22,360382,final-intermixed-textured,v2,jsons/MX_seq28_0_VE1000_flipped.json,http://54.235.29.9/FacialAge/BNav_EC2/DepthDuration/MX_fS_VE_MTurk/MX_fS_HTML.html#82,82,1903,910,1920,1080,1-8-2024,18-31-24,23,VR_target_stimuli/s25_1x_1.4_290_BC.png,1000,1x,1.4,1,2372,997,meters,jsons/MX_seq28_0_VE1000_flipped.json,226656,423652,19,Man
23,360382,final-intermixed-textured,v2,jsons/MX_seq28_0_VE1000_flipped.json,http://54.235.29.9/FacialAge/BNav_EC2/DepthDuration/MX_fS_VE_MTurk/MX_fS_HTML.html#82,82,1903,910,1920,1080,1-8-2024,18-31-24,24,VR_target_stimuli/s50_0.75x_4.53_517.png,1000,0.75x,4.53,3,4580,1003,meters,jsons/MX_seq28_0_VE1000_flipped.json,226656,423652,19,Man
24,360382,final-intermixed-textured,v2,jsons/MX_seq28_0_VE1000_flipped.json,http://54.235.29.9/FacialAge/BNav_EC2/DepthDuration/MX_fS_VE_MTurk/MX_fS_HTML.html#82,82,1903,910,1920,1080,1-8-2024,18-31-24,25,VR_target_stimuli/s53_1.3x_1.6_355.png,1000,1.3x,1.6,1,3116,996,meters,jsons/MX_seq28_0_VE1000_flipped.json,226656,423652,19,Man
25,360382,final-intermixed-textured,v2,jsons/MX_seq28_0_VE1000_flipped.json,http://54.235.29.9/FacialAge/BNav_EC2/DepthDuration/MX_fS_VE_MTurk/MX_fS_HTML.html#82,82,1903,910,1920,1080,1-8-2024,18-31-24,26,catch_stimuli/c2_BC.png,1000,,,0,3249,992,meters,jsons/MX_seq28_0_VE1000_flipped.json,226656,423652,19,Man
26,360382,final-intermixed-textured,v2,jsons/MX_seq28_0_VE1000_flipped.json,http://54.235.29.9/FacialAge/BNav_EC2/DepthDuration/MX_fS_VE_MTurk/MX_fS_HTML.html#82,82,1903,910,1920,1080,1-8-2024,18-31-24,27,VR_target_stimuli/s38_1x_3.55_353.png,1000,1x,3.55,2,2564,1001,meters,jsons/MX_seq28_0_VE1000_flipped.json,226656,423652,19,Man
27,360382,final-intermixed-textured,v2,jsons/MX_seq28_0_VE1000_flipped.json,http://54.235.29.9/FacialAge/BNav_EC2/DepthDuration/MX_fS_VE_MTurk/MX_fS_HTML.html#82,82,1903,910,1920,1080,1-8-2024,18-31-24,28,VR_target_stimuli/s9_1x_1.2_263_BC.png,1000,1x,1.2,1,2630,1004,meters,jsons/MX_seq28_0_VE1000_flipped.json,226656,423652,19,Man
28,360382,final-intermixed-textured,v2,jsons/MX_seq28_0_VE1000_flipped.json,http://54.235.29.9/FacialAge/BNav_EC2/DepthDuration/MX_fS_VE_MTurk/MX_fS_HTML.html#82,82,1903,910,1920,1080,1-8-2024,18-31-24,29,VR_target_stimuli/s44_0.75x_4.4_314.png,1000,0.75x,4.4,4,3602,991,meters,jsons/MX_seq28_0_VE1000_flipped.json,226656,423652,19,Man
29,360382,final-intermixed-textured,v2,jsons/MX_seq28_0_VE1000_flipped.json,http://54.235.29.9/FacialAge/BNav_EC2/DepthDuration/MX_fS_VE_MTurk/MX_fS_HTML.html#82,82,1903,910,1920,1080,1-8-2024,18-31-24,30,VR_target_stimuli/s3_1.3x_5_390.png,1000,1.3x,5.0,3,2819,1005,meters,jsons/MX_seq28_0_VE1000_flipped.json,226656,423652,19,Man
30,360382,final-intermixed-textured,v2,jsons/MX_seq28_0_VE1000_flipped.json,http://54.235.29.9/FacialAge/BNav_EC2/DepthDuration/MX_fS_VE_MTurk/MX_fS_HTML.html#82,82,1903,910,1920,1080,1-8-2024,18-31-24,31,VR_target_stimuli/s1_1x_1.7_262.png,1000,1x,1.7,2,5879,1005,meters,jsons/MX_seq28_0_VE1000_flipped.json,226656,423652,19,Man
31,360382,final-intermixed-textured,v2,jsons/MX_seq28_0_VE1000_flipped.json,http://54.235.29.9/FacialAge/BNav_EC2/DepthDuration/MX_fS_VE_MTurk/MX_fS_HTML.html#82,82,1903,910,1920,1080,1-8-2024,18-31-24,32,VR_target_stimuli/s11_1.3x_5_363_BC.png,1000,1.3x,5.0,3,2799,1000,meters,jsons/MX_seq28_0_VE1000_flipped.json,226656,423652,19,Man
32,360382,final-intermixed-textured,v2,jsons/MX_seq28_0_VE1000_flipped.json,http://54.235.29.9/FacialAge/BNav_EC2/DepthDuration/MX_fS_VE_MTurk/MX_fS_HTML.html#82,82,1903,910,1920,1080,1-8-2024,18-31-24,33,VR_target_stimuli/s2_0.75x_2.7_384_BC.png,1000,0.75x,2.7,2,3346,1013,meters,jsons/MX_seq28_0_VE1000_flipped.json,226656,423652,19,Man
33,360382,final-intermixed-textured,v2,jsons/MX_seq28_0_VE1000_flipped.json,http://54.235.29.9/FacialAge/BNav_EC2/DepthDuration/MX_fS_VE_MTurk/MX_fS_HTML.html#82,82,1903,910,1920,1080,1-8-2024,18-31-24,34,catch_stimuli/c3_BC.png,1000,,,0,3185,998,meters,jsons/MX_seq28_0_VE1000_flipped.json,226656,423652,19,Man
34,360382,final-intermixed-textured,v2,jsons/MX_seq28_0_VE1000_flipped.json,http://54.235.29.9/FacialAge/BNav_EC2/DepthDuration/MX_fS_VE_MTurk/MX_fS_HTML.html#82,82,1903,910,1920,1080,1-8-2024,18-31-24,35,VR_target_stimuli/s6_1.3x_2.1_298.png,1000,1.3x,2.1,2,3008,1012,meters,jsons/MX_seq28_0_VE1000_flipped.json,226656,423652,19,Man
35,360382,final-intermixed-textured,v2,jsons/MX_seq28_0_VE1000_flipped.json,http://54.235.29.9/FacialAge/BNav_EC2/DepthDuration/MX_fS_VE_MTurk/MX_fS_HTML.html#82,82,1903,910,1920,1080,1-8-2024,18-31-24,36,VR_target_stimuli/s0_1x_2.6_351.png,1000,1x,2.6,3,2947,1002,meters,jsons/MX_seq28_0_VE1000_flipped.json,226656,423652,19,Man
36,360382,final-intermixed-textured,v2,jsons/MX_seq28_0_VE1000_flipped.json,http://54.235.29.9/FacialAge/BNav_EC2/DepthDuration/MX_fS_VE_MTurk/MX_fS_HTML.html#82,82,1903,910,1920,1080,1-8-2024,18-31-24,37,VR_target_stimuli/s34_0.75x_2.8_269.png,1000,0.75x,2.8,4,3128,1003,meters,jsons/MX_seq28_0_VE1000_flipped.json,226656,423652,19,Man
37,360382,final-intermixed-textured,v2,jsons/MX_seq28_0_VE1000_flipped.json,http://54.235.29.9/FacialAge/BNav_EC2/DepthDuration/MX_fS_VE_MTurk/MX_fS_HTML.html#82,82,1903,910,1920,1080,1-8-2024,18-31-24,38,VR_target_stimuli/s13_0.75x_2.4_308_BC.png,1000,0.75x,2.4,3,2271,988,meters,jsons/MX_seq28_0_VE1000_flipped.json,226656,423652,19,Man
38,360382,final-intermixed-textured,v2,jsons/MX_seq28_0_VE1000_flipped.json,http://54.235.29.9/FacialAge/BNav_EC2/DepthDuration/MX_fS_VE_MTurk/MX_fS_HTML.html#82,82,1903,910,1920,1080,1-8-2024,18-31-24,39,VR_target_stimuli/s14_1.3x_3.83_359_BC.png,1000,1.3x,3.83,3,2386,1005,meters,jsons/MX_seq28_0_VE1000_flipped.json,226656,423652,19,Man
39,360382,final-intermixed-textured,v2,jsons/MX_seq28_0_VE1000_flipped.json,http://54.235.29.9/FacialAge/BNav_EC2/DepthDuration/MX_fS_VE_MTurk/MX_fS_HTML.html#82,82,1903,910,1920,1080,1-8-2024,18-31-24,40,VR_target_stimuli/s47_1x_3.45_370_BC.png,1000,1x,3.45,5,3977,1005,meters,jsons/MX_seq28_0_VE1000_flipped.json,226656,423652,19,Man
40,360382,final-intermixed-textured,v2,jsons/MX_seq28_0_VE1000_flipped.json,http://54.235.29.9/FacialAge/BNav_EC2/DepthDuration/MX_fS_VE_MTurk/MX_fS_HTML.html#82,82,1903,910,1920,1080,1-8-2024,18-31-24,41,VR_target_stimuli/s29_1.3x_1.3_253_BC.png,1000,1.3x,1.3,1,3737,999,meters,jsons/MX_seq28_0_VE1000_flipped.json,226656,423652,19,Man
41,360382,final-intermixed-textured,v2,jsons/MX_seq28_0_VE1000_flipped.json,http://54.235.29.9/FacialAge/BNav_EC2/DepthDuration/MX_fS_VE_MTurk/MX_fS_HTML.html#82,82,1903,910,1920,1080,1-8-2024,18-31-24,42,VR_target_stimuli/s28_0.75x_3.2_357.png,1000,0.75x,3.2,3,4425,998,meters,jsons/MX_seq28_0_VE1000_flipped.json,226656,423652,19,Man
42,360382,final-intermixed-textured,v2,jsons/MX_seq28_0_VE1000_flipped.json,http://54.235.29.9/FacialAge/BNav_EC2/DepthDuration/MX_fS_VE_MTurk/MX_fS_HTML.html#82,82,1903,910,1920,1080,1-8-2024,18-31-24,43,VR_target_stimuli/s48_1x_2.55_256.png,1000,1x,2.55,4,3002,1012,meters,jsons/MX_seq28_0_VE1000_flipped.json,226656,423652,19,Man
43,360382,final-intermixed-textured,v2,jsons/MX_seq28_0_VE1000_flipped.json,http://54.235.29.9/FacialAge/BNav_EC2/DepthDuration/MX_fS_VE_MTurk/MX_fS_HTML.html#82,82,1903,910,1920,1080,1-8-2024,18-31-24,44,VR_target_stimuli/s19_0.75x_1.21_257_BC.png,1000,0.75x,1.21,1,3826,1004,meters,jsons/MX_seq28_0_VE1000_flipped.json,226656,423652,19,Man
44,360382,final-intermixed-textured,v2,jsons/MX_seq28_0_VE1000_flipped.json,http://54.235.29.9/FacialAge/BNav_EC2/DepthDuration/MX_fS_VE_MTurk/MX_fS_HTML.html#82,82,1903,910,1920,1080,1-8-2024,18-31-24,45,catch_stimuli/c4_BC.png,1000,,,0,2924,1010,meters,jsons/MX_seq28_0_VE1000_flipped.json,226656,423652,19,Man
45,360382,final-intermixed-textured,v2,jsons/MX_seq28_0_VE1000_flipped.json,http://54.235.29.9/FacialAge/BNav_EC2/DepthDuration/MX_fS_VE_MTurk/MX_fS_HTML.html#82,82,1903,910,1920,1080,1-8-2024,18-31-24,46,VR_target_stimuli/s21_1.3x_4.22_384.png,1000,1.3x,4.22,5,3077,988,meters,jsons/MX_seq28_0_VE1000_flipped.json,226656,423652,19,Man
46,360382,final-intermixed-textured,v2,jsons/MX_seq28_0_VE1000_flipped.json,http://54.235.29.9/FacialAge/BNav_EC2/DepthDuration/MX_fS_VE_MTurk/MX_fS_HTML.html#82,82,1903,910,1920,1080,1-8-2024,18-31-24,47,VR_target_stimuli/s8_1x_3.1_332_BC.png,1000,1x,3.1,3,2697,1009,meters,jsons/MX_seq28_0_VE1000_flipped.json,226656,423652,19,Man
47,360382,final-intermixed-textured,v2,jsons/MX_seq28_0_VE1000_flipped.json,http://54.235.29.9/FacialAge/BNav_EC2/DepthDuration/MX_fS_VE_MTurk/MX_fS_HTML.html#82,82,1903,910,1920,1080,1-8-2024,18-31-24,48,VR_target_stimuli/s27_1x_1.76_248_BC.png,1000,1x,1.76,3,2464,990,meters,jsons/MX_seq28_0_VE1000_flipped.json,226656,423652,19,Man
48,360382,final-intermixed-textured,v2,jsons/MX_seq28_0_VE1000_flipped.json,http://54.235.29.9/FacialAge/BNav_EC2/DepthDuration/MX_fS_VE_MTurk/MX_fS_HTML.html#82,82,1903,910,1920,1080,1-8-2024,18-31-24,49,VR_target_stimuli/s15_0.75x_4.2_388_BC.png,1000,0.75x,4.2,3,2454,1001,meters,jsons/MX_seq28_0_VE1000_flipped.json,226656,423652,19,Man
49,360382,final-intermixed-textured,v2,jsons/MX_seq28_0_VE1000_flipped.json,http://54.235.29.9/FacialAge/BNav_EC2/DepthDuration/MX_fS_VE_MTurk/MX_fS_HTML.html#82,82,1903,910,1920,1080,1-8-2024,18-31-24,50,VR_target_stimuli/s4_1.3x_1.4_328.png,1000,1.3x,1.4,1,2379,997,meters,jsons/MX_seq28_0_VE1000_flipped.json,226656,423652,19,Man
50,360382,final-intermixed-textured,v2,jsons/MX_seq28_0_VE1000_flipped.json,http://54.235.29.9/FacialAge/BNav_EC2/DepthDuration/MX_fS_VE_MTurk/MX_fS_HTML.html#82,82,1903,910,1920,1080,1-8-2024,18-31-24,51,VR_target_stimuli/s35_0.75x_2_323.png,1000,0.75x,2.0,2,2393,1006,meters,jsons/MX_seq28_0_VE1000_flipped.json,226656,423652,19,Man
51,360382,final-intermixed-textured,v2,jsons/MX_seq28_0_VE1000_flipped.json,http://54.235.29.9/FacialAge/BNav_EC2/DepthDuration/MX_fS_VE_MTurk/MX_fS_HTML.html#82,82,1903,910,1920,1080,1-8-2024,18-31-24,52,VR_target_stimuli/s49_1x_4.67_341.png,1000,1x,4.67,4,2958,1000,meters,jsons/MX_seq28_0_VE1000_flipped.json,226656,423652,19,Man
52,360382,final-intermixed-textured,v2,jsons/MX_seq28_0_VE1000_flipped.json,http://54.235.29.9/FacialAge/BNav_EC2/DepthDuration/MX_fS_VE_MTurk/MX_fS_HTML.html#82,82,1903,910,1920,1080,1-8-2024,18-31-24,53,catch_stimuli/c5_BC.png,1000,,,0,2855,1003,meters,jsons/MX_seq28_0_VE1000_flipped.json,226656,423652,19,Man
53,360382,final-intermixed-textured,v2,jsons/MX_seq28_0_VE1000_flipped.json,http://54.235.29.9/FacialAge/BNav_EC2/DepthDuration/MX_fS_VE_MTurk/MX_fS_HTML.html#82,82,1903,910,1920,1080,1-8-2024,18-31-24,54,VR_target_stimuli/s7_1.3x_1.5_256_BC.png,1000,1.3x,1.5,2,5450,1008,meters,jsons/MX_seq28_0_VE1000_flipped.json,226656,423652,19,Man
54,360382,final-intermixed-textured,v2,jsons/MX_seq28_0_VE1000_flipped.json,http://54.235.29.9/FacialAge/BNav_EC2/DepthDuration/MX_fS_VE_MTurk/MX_fS_HTML.html#82,82,1903,910,1920,1080,1-8-2024,18-31-24,55,VR_target_stimuli/s20_1x_4.99_398_BC.png,1000,1x,4.99,4,2278,990,meters,jsons/MX_seq28_0_VE1000_flipped.json,226656,423652,19,Man
55,360382,final-intermixed-textured,v2,jsons/MX_seq28_0_VE1000_flipped.json,http://54.235.29.9/FacialAge/BNav_EC2/DepthDuration/MX_fS_VE_MTurk/MX_fS_HTML.html#82,82,1903,910,1920,1080,1-8-2024,18-31-24,56,VR_target_stimuli/s31_0.75x_4.96_329.png,1000,0.75x,4.96,6,2612,996,meters,jsons/MX_seq28_0_VE1000_flipped.json,226656,423652,19,Man
56,360382,final-intermixed-textured,v2,jsons/MX_seq28_0_VE1000_flipped.json,http://54.235.29.9/FacialAge/BNav_EC2/DepthDuration/MX_fS_VE_MTurk/MX_fS_HTML.html#82,82,1903,910,1920,1080,1-8-2024,18-31-24,57,VR_target_stimuli/s33_1.3x_3.1_378_BC.png,1000,1.3x,3.1,3,3478,987,meters,jsons/MX_seq28_0_VE1000_flipped.json,226656,423652,19,Man
57,360382,final-intermixed-textured,v2,jsons/MX_seq28_0_VE1000_flipped.json,http://54.235.29.9/FacialAge/BNav_EC2/DepthDuration/MX_fS_VE_MTurk/MX_fS_HTML.html#82,82,1903,910,1920,1080,1-8-2024,18-31-24,58,VR_target_stimuli/s52_1.3x_3.2_280.png,1000,1.3x,3.2,4,2897,1001,meters,jsons/MX_seq28_0_VE1000_flipped.json,226656,423652,19,Man
58,360382,final-intermixed-textured,v2,jsons/MX_seq28_0_VE1000_flipped.json,http://54.235.29.9/FacialAge/BNav_EC2/DepthDuration/MX_fS_VE_MTurk/MX_fS_HTML.html#82,82,1903,910,1920,1080,1-8-2024,18-31-24,59,VR_target_stimuli/s32_1x_1.5_218.png,1000,1x,1.5,3,2777,1002,meters,jsons/MX_seq28_0_VE1000_flipped.json,226656,423652,19,Man
59,360382,final-intermixed-textured,v2,jsons/MX_seq28_0_VE1000_flipped.json,http://54.235.29.9/FacialAge/BNav_EC2/DepthDuration/MX_fS_VE_MTurk/MX_fS_HTML.html#82,82,1903,910,1920,1080,1-8-2024,18-31-24,60,VR_target_stimuli/s18_0.75x_2.25_341_BC.png,1000,0.75x,2.25,2,2473,998,meters,jsons/MX_seq28_0_VE1000_flipped.json,226656,423652,19,Man
