,subjID,experimentName,versionName,sequenceName,url,selected_row,windowWidth,windowHeight,screenWidth,screenHeight,startDate,startTime,trial,stimulus,duration,scale,actual_depth,depth_estimate,trial_RT,log_sceneDuration,unitSelection,seq_filepath,experimentTime,totalTime,age,gender
0,368556,final-intermixed-textured,v2,jsons/MX_seq29_0_VE1000.json,http://54.235.29.9/FacialAge/BNav_EC2/DepthDuration/MX_fS_VE_MTurk/MX_fS_HTML.html#14,14,1600,739,1600,900,1-8-2024,18-36-7,1,VR_target_stimuli/s51_0.75x_3.64_460_BC.png,1000,0.75x,3.64,3,5508,1002,meters,jsons/MX_seq29_0_VE1000.json,289226,365395,25,Woman
1,368556,final-intermixed-textured,v2,jsons/MX_seq29_0_VE1000.json,http://54.235.29.9/FacialAge/BNav_EC2/DepthDuration/MX_fS_VE_MTurk/MX_fS_HTML.html#14,14,1600,739,1600,900,1-8-2024,18-36-7,2,VR_target_stimuli/s43_1x_2.2_354.png,1000,1x,2.2,4,4917,1003,meters,jsons/MX_seq29_0_VE1000.json,289226,365395,25,Woman
2,368556,final-intermixed-textured,v2,jsons/MX_seq29_0_VE1000.json,http://54.235.29.9/FacialAge/BNav_EC2/DepthDuration/MX_fS_VE_MTurk/MX_fS_HTML.html#14,14,1600,739,1600,900,1-8-2024,18-36-7,3,VR_target_stimuli/s24_1.3x_3.3_352_BC.png,1000,1.3x,3.3,4,6519,987,meters,jsons/MX_seq29_0_VE1000.json,289226,365395,25,Woman
3,368556,final-intermixed-textured,v2,jsons/MX_seq29_0_VE1000.json,http://54.235.29.9/FacialAge/BNav_EC2/DepthDuration/MX_fS_VE_MTurk/MX_fS_HTML.html#14,14,1600,739,1600,900,1-8-2024,18-36-7,4,VR_target_stimuli/s10_1x_2.7_324_BC.png,1000,1x,2.7,5,4426,1003,meters,jsons/MX_seq29_0_VE1000.json,289226,365395,25,Woman
4,368556,final-intermixed-textured,v2,jsons/MX_seq29_0_VE1000.json,http://54.235.29.9/FacialAge/BNav_EC2/DepthDuration/MX_fS_VE_MTurk/MX_fS_HTML.html#14,14,1600,739,1600,900,1-8-2024,18-36-7,5,VR_target_stimuli/s36_0.75x_4.1_407.png,1000,0.75x,4.1,6,4865,988,meters,jsons/MX_seq29_0_VE1000.json,289226,365395,25,Woman
5,368556,final-intermixed-textured,v2,jsons/MX_seq29_0_VE1000.json,http://54.235.29.9/FacialAge/BNav_EC2/DepthDuration/MX_fS_VE_MTurk/MX_fS_HTML.html#14,14,1600,739,1600,900,1-8-2024,18-36-7,6,VR_target_stimuli/s40_1.3x_1.2_332.png,1000,1.3x,1.2,3,4076,1001,meters,jsons/MX_seq29_0_VE1000.json,289226,365395,25,Woman
6,368556,final-intermixed-textured,v2,jsons/MX_seq29_0_VE1000.json,http://54.235.29.9/FacialAge/BNav_EC2/DepthDuration/MX_fS_VE_MTurk/MX_fS_HTML.html#14,14,1600,739,1600,900,1-8-2024,18-36-7,7,catch_stimuli/c0.png,1000,,,0,3821,1002,meters,jsons/MX_seq29_0_VE1000.json,289226,365395,25,Woman
7,368556,final-intermixed-textured,v2,jsons/MX_seq29_0_VE1000.json,http://54.235.29.9/FacialAge/BNav_EC2/DepthDuration/MX_fS_VE_MTurk/MX_fS_HTML.html#14,14,1600,739,1600,900,1-8-2024,18-36-7,8,VR_target_stimuli/s41_1.3x_2.1_294.png,1000,1.3x,2.1,2,4577,1001,meters,jsons/MX_seq29_0_VE1000.json,289226,365395,25,Woman
8,368556,final-intermixed-textured,v2,jsons/MX_seq29_0_VE1000.json,http://54.235.29.9/FacialAge/BNav_EC2/DepthDuration/MX_fS_VE_MTurk/MX_fS_HTML.html#14,14,1600,739,1600,900,1-8-2024,18-36-7,9,VR_target_stimuli/s45_1x_3.5_368.png,1000,1x,3.5,3,3953,1003,meters,jsons/MX_seq29_0_VE1000.json,289226,365395,25,Woman
9,368556,final-intermixed-textured,v2,jsons/MX_seq29_0_VE1000.json,http://54.235.29.9/FacialAge/BNav_EC2/DepthDuration/MX_fS_VE_MTurk/MX_fS_HTML.html#14,14,1600,739,1600,900,1-8-2024,18-36-7,10,VR_target_stimuli/s23_0.75x_3.65_351_BC.png,1000,0.75x,3.65,4,4094,1002,meters,jsons/MX_seq29_0_VE1000.json,289226,365395,25,Woman
10,368556,final-intermixed-textured,v2,jsons/MX_seq29_0_VE1000.json,http://54.235.29.9/FacialAge/BNav_EC2/DepthDuration/MX_fS_VE_MTurk/MX_fS_HTML.html#14,14,1600,739,1600,900,1-8-2024,18-36-7,11,VR_target_stimuli/s26_1x_4_433_BC.png,1000,1x,4.0,4,4037,1001,meters,jsons/MX_seq29_0_VE1000.json,289226,365395,25,Woman
11,368556,final-intermixed-textured,v2,jsons/MX_seq29_0_VE1000.json,http://54.235.29.9/FacialAge/BNav_EC2/DepthDuration/MX_fS_VE_MTurk/MX_fS_HTML.html#14,14,1600,739,1600,900,1-8-2024,18-36-7,12,VR_target_stimuli/s12_1.3x_3.1_375_BC.png,1000,1.3x,3.1,4,4084,1008,meters,jsons/MX_seq29_0_VE1000.json,289226,365395,25,Woman
12,368556,final-intermixed-textured,v2,jsons/MX_seq29_0_VE1000.json,http://54.235.29.9/FacialAge/BNav_EC2/DepthDuration/MX_fS_VE_MTurk/MX_fS_HTML.html#14,14,1600,739,1600,900,1-8-2024,18-36-7,13,VR_target_stimuli/s30_0.75x_2.3_332.png,1000,0.75x,2.3,3,3811,1008,meters,jsons/MX_seq29_0_VE1000.json,289226,365395,25,Woman
13,368556,final-intermixed-textured,v2,jsons/MX_seq29_0_VE1000.json,http://54.235.29.9/FacialAge/BNav_EC2/DepthDuration/MX_fS_VE_MTurk/MX_fS_HTML.html#14,14,1600,739,1600,900,1-8-2024,18-36-7,14,VR_target_stimuli/s16_1.3x_1_223_BC.png,1000,1.3x,1.0,2,5062,1004,meters,jsons/MX_seq29_0_VE1000.json,289226,365395,25,Woman
14,368556,final-intermixed-textured,v2,jsons/MX_seq29_0_VE1000.json,http://54.235.29.9/FacialAge/BNav_EC2/DepthDuration/MX_fS_VE_MTurk/MX_fS_HTML.html#14,14,1600,739,1600,900,1-8-2024,18-36-7,15,VR_target_stimuli/s17_1x_1.8_291.png,1000,1x,1.8,3,4498,1004,meters,jsons/MX_seq29_0_VE1000.json,289226,365395,25,Woman
15,368556,final-intermixed-textured,v2,jsons/MX_seq29_0_VE1000.json,http://54.235.29.9/FacialAge/BNav_EC2/DepthDuration/MX_fS_VE_MTurk/MX_fS_HTML.html#14,14,1600,739,1600,900,1-8-2024,18-36-7,16,VR_target_stimuli/s5_0.75x_4_375_BC.png,1000,0.75x,4.0,4,3946,997,meters,jsons/MX_seq29_0_VE1000.json,289226,365395,25,Woman
16,368556,final-intermixed-textured,v2,jsons/MX_seq29_0_VE1000.json,http://54.235.29.9/FacialAge/BNav_EC2/DepthDuration/MX_fS_VE_MTurk/MX_fS_HTML.html#14,14,1600,739,1600,900,1-8-2024,18-36-7,17,catch_stimuli/c1.png,1000,,,0,4063,992,meters,jsons/MX_seq29_0_VE1000.json,289226,365395,25,Woman
17,368556,final-intermixed-textured,v2,jsons/MX_seq29_0_VE1000.json,http://54.235.29.9/FacialAge/BNav_EC2/DepthDuration/MX_fS_VE_MTurk/MX_fS_HTML.html#14,14,1600,739,1600,900,1-8-2024,18-36-7,18,VR_target_stimuli/s37_0.75x_3.3_567.png,1000,0.75x,3.3,3,5134,1002,meters,jsons/MX_seq29_0_VE1000.json,289226,365395,25,Woman
18,368556,final-intermixed-textured,v2,jsons/MX_seq29_0_VE1000.json,http://54.235.29.9/FacialAge/BNav_EC2/DepthDuration/MX_fS_VE_MTurk/MX_fS_HTML.html#14,14,1600,739,1600,900,1-8-2024,18-36-7,19,VR_target_stimuli/s46_1.3x_2.42_354.png,1000,1.3x,2.42,4,4775,1002,meters,jsons/MX_seq29_0_VE1000.json,289226,365395,25,Woman
19,368556,final-intermixed-textured,v2,jsons/MX_seq29_0_VE1000.json,http://54.235.29.9/FacialAge/BNav_EC2/DepthDuration/MX_fS_VE_MTurk/MX_fS_HTML.html#14,14,1600,739,1600,900,1-8-2024,18-36-7,20,VR_target_stimuli/s22_1x_4.29_354_BC.png,1000,1x,4.29,6,4151,1005,meters,jsons/MX_seq29_0_VE1000.json,289226,365395,25,Woman
20,368556,final-intermixed-textured,v2,jsons/MX_seq29_0_VE1000.json,http://54.235.29.9/FacialAge/BNav_EC2/DepthDuration/MX_fS_VE_MTurk/MX_fS_HTML.html#14,14,1600,739,1600,900,1-8-2024,18-36-7,21,VR_target_stimuli/s42_1.3x_3.2_305_BC.png,1000,1.3x,3.2,4,6475,1003,meters,jsons/MX_seq29_0_VE1000.json,289226,365395,25,Woman
21,368556,final-intermixed-textured,v2,jsons/MX_seq29_0_VE1000.json,http://54.235.29.9/FacialAge/BNav_EC2/DepthDuration/MX_fS_VE_MTurk/MX_fS_HTML.html#14,14,1600,739,1600,900,1-8-2024,18-36-7,22,VR_target_stimuli/s25_0.75x_1.4_281_BC.png,1000,0.75x,1.4,2,7107,1010,meters,jsons/MX_seq29_0_VE1000.json,289226,365395,25,Woman
22,368556,final-intermixed-textured,v2,jsons/MX_seq29_0_VE1000.json,http://54.235.29.9/FacialAge/BNav_EC2/DepthDuration/MX_fS_VE_MTurk/MX_fS_HTML.html#14,14,1600,739,1600,900,1-8-2024,18-36-7,23,VR_target_stimuli/s50_1x_4.53_518.png,1000,1x,4.53,4,5846,1004,meters,jsons/MX_seq29_0_VE1000.json,289226,365395,25,Woman
23,368556,final-intermixed-textured,v2,jsons/MX_seq29_0_VE1000.json,http://54.235.29.9/FacialAge/BNav_EC2/DepthDuration/MX_fS_VE_MTurk/MX_fS_HTML.html#14,14,1600,739,1600,900,1-8-2024,18-36-7,24,VR_target_stimuli/s53_0.75x_1.6_403.png,1000,0.75x,1.6,2,4156,1002,meters,jsons/MX_seq29_0_VE1000.json,289226,365395,25,Woman
24,368556,final-intermixed-textured,v2,jsons/MX_seq29_0_VE1000.json,http://54.235.29.9/FacialAge/BNav_EC2/DepthDuration/MX_fS_VE_MTurk/MX_fS_HTML.html#14,14,1600,739,1600,900,1-8-2024,18-36-7,25,VR_target_stimuli/s38_1.3x_3.55_358.png,1000,1.3x,3.55,5,5347,1002,meters,jsons/MX_seq29_0_VE1000.json,289226,365395,25,Woman
25,368556,final-intermixed-textured,v2,jsons/MX_seq29_0_VE1000.json,http://54.235.29.9/FacialAge/BNav_EC2/DepthDuration/MX_fS_VE_MTurk/MX_fS_HTML.html#14,14,1600,739,1600,900,1-8-2024,18-36-7,26,catch_stimuli/c2.png,1000,,,0,5070,992,meters,jsons/MX_seq29_0_VE1000.json,289226,365395,25,Woman
26,368556,final-intermixed-textured,v2,jsons/MX_seq29_0_VE1000.json,http://54.235.29.9/FacialAge/BNav_EC2/DepthDuration/MX_fS_VE_MTurk/MX_fS_HTML.html#14,14,1600,739,1600,900,1-8-2024,18-36-7,27,VR_target_stimuli/s9_1x_1.2_263_BC.png,1000,1x,1.2,2,4210,985,meters,jsons/MX_seq29_0_VE1000.json,289226,365395,25,Woman
27,368556,final-intermixed-textured,v2,jsons/MX_seq29_0_VE1000.json,http://54.235.29.9/FacialAge/BNav_EC2/DepthDuration/MX_fS_VE_MTurk/MX_fS_HTML.html#14,14,1600,739,1600,900,1-8-2024,18-36-7,28,VR_target_stimuli/s44_1x_4.4_317.png,1000,1x,4.4,6,5227,1008,meters,jsons/MX_seq29_0_VE1000.json,289226,365395,25,Woman
28,368556,final-intermixed-textured,v2,jsons/MX_seq29_0_VE1000.json,http://54.235.29.9/FacialAge/BNav_EC2/DepthDuration/MX_fS_VE_MTurk/MX_fS_HTML.html#14,14,1600,739,1600,900,1-8-2024,18-36-7,29,VR_target_stimuli/s3_0.75x_5_381.png,1000,0.75x,5.0,8,9358,990,meters,jsons/MX_seq29_0_VE1000.json,289226,365395,25,Woman
29,368556,final-intermixed-textured,v2,jsons/MX_seq29_0_VE1000.json,http://54.235.29.9/FacialAge/BNav_EC2/DepthDuration/MX_fS_VE_MTurk/MX_fS_HTML.html#14,14,1600,739,1600,900,1-8-2024,18-36-7,30,VR_target_stimuli/s1_1.3x_1.7_261_BC.png,1000,1.3x,1.7,3,3863,1002,meters,jsons/MX_seq29_0_VE1000.json,289226,365395,25,Woman
30,368556,final-intermixed-textured,v2,jsons/MX_seq29_0_VE1000.json,http://54.235.29.9/FacialAge/BNav_EC2/DepthDuration/MX_fS_VE_MTurk/MX_fS_HTML.html#14,14,1600,739,1600,900,1-8-2024,18-36-7,31,VR_target_stimuli/s11_1x_5_361_BC.png,1000,1x,5.0,5,4502,1003,meters,jsons/MX_seq29_0_VE1000.json,289226,365395,25,Woman
31,368556,final-intermixed-textured,v2,jsons/MX_seq29_0_VE1000.json,http://54.235.29.9/FacialAge/BNav_EC2/DepthDuration/MX_fS_VE_MTurk/MX_fS_HTML.html#14,14,1600,739,1600,900,1-8-2024,18-36-7,32,VR_target_stimuli/s2_1.3x_2.7_397.png,1000,1.3x,2.7,4,4358,996,meters,jsons/MX_seq29_0_VE1000.json,289226,365395,25,Woman
32,368556,final-intermixed-textured,v2,jsons/MX_seq29_0_VE1000.json,http://54.235.29.9/FacialAge/BNav_EC2/DepthDuration/MX_fS_VE_MTurk/MX_fS_HTML.html#14,14,1600,739,1600,900,1-8-2024,18-36-7,33,VR_target_stimuli/s6_0.75x_2.1_290_BC.png,1000,0.75x,2.1,5,4274,1004,meters,jsons/MX_seq29_0_VE1000.json,289226,365395,25,Woman
33,368556,final-intermixed-textured,v2,jsons/MX_seq29_0_VE1000.json,http://54.235.29.9/FacialAge/BNav_EC2/DepthDuration/MX_fS_VE_MTurk/MX_fS_HTML.html#14,14,1600,739,1600,900,1-8-2024,18-36-7,34,catch_stimuli/c3.png,1000,,,0,3293,998,meters,jsons/MX_seq29_0_VE1000.json,289226,365395,25,Woman
34,368556,final-intermixed-textured,v2,jsons/MX_seq29_0_VE1000.json,http://54.235.29.9/FacialAge/BNav_EC2/DepthDuration/MX_fS_VE_MTurk/MX_fS_HTML.html#14,14,1600,739,1600,900,1-8-2024,18-36-7,35,VR_target_stimuli/s0_1.3x_2.6_356.png,1000,1.3x,2.6,4,5608,991,meters,jsons/MX_seq29_0_VE1000.json,289226,365395,25,Woman
35,368556,final-intermixed-textured,v2,jsons/MX_seq29_0_VE1000.json,http://54.235.29.9/FacialAge/BNav_EC2/DepthDuration/MX_fS_VE_MTurk/MX_fS_HTML.html#14,14,1600,739,1600,900,1-8-2024,18-36-7,36,VR_target_stimuli/s34_1x_2.8_283_BC.png,1000,1x,2.8,4,3865,989,meters,jsons/MX_seq29_0_VE1000.json,289226,365395,25,Woman
36,368556,final-intermixed-textured,v2,jsons/MX_seq29_0_VE1000.json,http://54.235.29.9/FacialAge/BNav_EC2/DepthDuration/MX_fS_VE_MTurk/MX_fS_HTML.html#14,14,1600,739,1600,900,1-8-2024,18-36-7,37,VR_target_stimuli/s13_0.75x_2.4_308.png,1000,0.75x,2.4,4,3524,1001,meters,jsons/MX_seq29_0_VE1000.json,289226,365395,25,Woman
37,368556,final-intermixed-textured,v2,jsons/MX_seq29_0_VE1000.json,http://54.235.29.9/FacialAge/BNav_EC2/DepthDuration/MX_fS_VE_MTurk/MX_fS_HTML.html#14,14,1600,739,1600,900,1-8-2024,18-36-7,38,VR_target_stimuli/s14_0.75x_3.83_355_BC.png,1000,0.75x,3.83,6,5124,1000,meters,jsons/MX_seq29_0_VE1000.json,289226,365395,25,Woman
38,368556,final-intermixed-textured,v2,jsons/MX_seq29_0_VE1000.json,http://54.235.29.9/FacialAge/BNav_EC2/DepthDuration/MX_fS_VE_MTurk/MX_fS_HTML.html#14,14,1600,739,1600,900,1-8-2024,18-36-7,39,VR_target_stimuli/s47_1.3x_3.45_373_BC.png,1000,1.3x,3.45,3,3914,999,meters,jsons/MX_seq29_0_VE1000.json,289226,365395,25,Woman
39,368556,final-intermixed-textured,v2,jsons/MX_seq29_0_VE1000.json,http://54.235.29.9/FacialAge/BNav_EC2/DepthDuration/MX_fS_VE_MTurk/MX_fS_HTML.html#14,14,1600,739,1600,900,1-8-2024,18-36-7,40,VR_target_stimuli/s29_1x_1.3_250.png,1000,1x,1.3,2,3409,1003,meters,jsons/MX_seq29_0_VE1000.json,289226,365395,25,Woman
40,368556,final-intermixed-textured,v2,jsons/MX_seq29_0_VE1000.json,http://54.235.29.9/FacialAge/BNav_EC2/DepthDuration/MX_fS_VE_MTurk/MX_fS_HTML.html#14,14,1600,739,1600,900,1-8-2024,18-36-7,41,VR_target_stimuli/s28_1.3x_3.2_365.png,1000,1.3x,3.2,4,3441,998,meters,jsons/MX_seq29_0_VE1000.json,289226,365395,25,Woman
41,368556,final-intermixed-textured,v2,jsons/MX_seq29_0_VE1000.json,http://54.235.29.9/FacialAge/BNav_EC2/DepthDuration/MX_fS_VE_MTurk/MX_fS_HTML.html#14,14,1600,739,1600,900,1-8-2024,18-36-7,42,VR_target_stimuli/s48_0.75x_2.55_243.png,1000,0.75x,2.55,4,3578,1002,meters,jsons/MX_seq29_0_VE1000.json,289226,365395,25,Woman
42,368556,final-intermixed-textured,v2,jsons/MX_seq29_0_VE1000.json,http://54.235.29.9/FacialAge/BNav_EC2/DepthDuration/MX_fS_VE_MTurk/MX_fS_HTML.html#14,14,1600,739,1600,900,1-8-2024,18-36-7,43,VR_target_stimuli/s19_1x_1.21_263.png,1000,1x,1.21,3,3301,1004,meters,jsons/MX_seq29_0_VE1000.json,289226,365395,25,Woman
43,368556,final-intermixed-textured,v2,jsons/MX_seq29_0_VE1000.json,http://54.235.29.9/FacialAge/BNav_EC2/DepthDuration/MX_fS_VE_MTurk/MX_fS_HTML.html#14,14,1600,739,1600,900,1-8-2024,18-36-7,44,VR_target_stimuli/s21_0.75x_4.22_374_BC.png,1000,0.75x,4.22,8,4465,1012,meters,jsons/MX_seq29_0_VE1000.json,289226,365395,25,Woman
44,368556,final-intermixed-textured,v2,jsons/MX_seq29_0_VE1000.json,http://54.235.29.9/FacialAge/BNav_EC2/DepthDuration/MX_fS_VE_MTurk/MX_fS_HTML.html#14,14,1600,739,1600,900,1-8-2024,18-36-7,45,catch_stimuli/c4.png,1000,,,0,3256,994,meters,jsons/MX_seq29_0_VE1000.json,289226,365395,25,Woman
45,368556,final-intermixed-textured,v2,jsons/MX_seq29_0_VE1000.json,http://54.235.29.9/FacialAge/BNav_EC2/DepthDuration/MX_fS_VE_MTurk/MX_fS_HTML.html#14,14,1600,739,1600,900,1-8-2024,18-36-7,46,VR_target_stimuli/s8_1.3x_3.1_345_BC.png,1000,1.3x,3.1,4,2967,1001,meters,jsons/MX_seq29_0_VE1000.json,289226,365395,25,Woman
46,368556,final-intermixed-textured,v2,jsons/MX_seq29_0_VE1000.json,http://54.235.29.9/FacialAge/BNav_EC2/DepthDuration/MX_fS_VE_MTurk/MX_fS_HTML.html#14,14,1600,739,1600,900,1-8-2024,18-36-7,47,VR_target_stimuli/s27_1x_1.76_248_BC.png,1000,1x,1.76,4,3435,995,meters,jsons/MX_seq29_0_VE1000.json,289226,365395,25,Woman
47,368556,final-intermixed-textured,v2,jsons/MX_seq29_0_VE1000.json,http://54.235.29.9/FacialAge/BNav_EC2/DepthDuration/MX_fS_VE_MTurk/MX_fS_HTML.html#14,14,1600,739,1600,900,1-8-2024,18-36-7,48,VR_target_stimuli/s15_1x_4.2_390_BC.png,1000,1x,4.2,6,3668,990,meters,jsons/MX_seq29_0_VE1000.json,289226,365395,25,Woman
48,368556,final-intermixed-textured,v2,jsons/MX_seq29_0_VE1000.json,http://54.235.29.9/FacialAge/BNav_EC2/DepthDuration/MX_fS_VE_MTurk/MX_fS_HTML.html#14,14,1600,739,1600,900,1-8-2024,18-36-7,49,VR_target_stimuli/s4_0.75x_1.4_301_BC.png,1000,0.75x,1.4,2,3430,1007,meters,jsons/MX_seq29_0_VE1000.json,289226,365395,25,Woman
49,368556,final-intermixed-textured,v2,jsons/MX_seq29_0_VE1000.json,http://54.235.29.9/FacialAge/BNav_EC2/DepthDuration/MX_fS_VE_MTurk/MX_fS_HTML.html#14,14,1600,739,1600,900,1-8-2024,18-36-7,50,VR_target_stimuli/s35_1.3x_2_338_BC.png,1000,1.3x,2.0,3,2991,1006,meters,jsons/MX_seq29_0_VE1000.json,289226,365395,25,Woman
50,368556,final-intermixed-textured,v2,jsons/MX_seq29_0_VE1000.json,http://54.235.29.9/FacialAge/BNav_EC2/DepthDuration/MX_fS_VE_MTurk/MX_fS_HTML.html#14,14,1600,739,1600,900,1-8-2024,18-36-7,51,VR_target_stimuli/s49_0.75x_4.67_328.png,1000,0.75x,4.67,5,3727,1004,meters,jsons/MX_seq29_0_VE1000.json,289226,365395,25,Woman
51,368556,final-intermixed-textured,v2,jsons/MX_seq29_0_VE1000.json,http://54.235.29.9/FacialAge/BNav_EC2/DepthDuration/MX_fS_VE_MTurk/MX_fS_HTML.html#14,14,1600,739,1600,900,1-8-2024,18-36-7,52,VR_target_stimuli/s7_1x_1.5_255.png,1000,1x,1.5,3,3703,998,meters,jsons/MX_seq29_0_VE1000.json,289226,365395,25,Woman
52,368556,final-intermixed-textured,v2,jsons/MX_seq29_0_VE1000.json,http://54.235.29.9/FacialAge/BNav_EC2/DepthDuration/MX_fS_VE_MTurk/MX_fS_HTML.html#14,14,1600,739,1600,900,1-8-2024,18-36-7,53,catch_stimuli/c5.png,1000,,,0,3754,1005,meters,jsons/MX_seq29_0_VE1000.json,289226,365395,25,Woman
53,368556,final-intermixed-textured,v2,jsons/MX_seq29_0_VE1000.json,http://54.235.29.9/FacialAge/BNav_EC2/DepthDuration/MX_fS_VE_MTurk/MX_fS_HTML.html#14,14,1600,739,1600,900,1-8-2024,18-36-7,54,VR_target_stimuli/s20_1.3x_4.99_412.png,1000,1.3x,4.99,7,3739,1003,meters,jsons/MX_seq29_0_VE1000.json,289226,365395,25,Woman
54,368556,final-intermixed-textured,v2,jsons/MX_seq29_0_VE1000.json,http://54.235.29.9/FacialAge/BNav_EC2/DepthDuration/MX_fS_VE_MTurk/MX_fS_HTML.html#14,14,1600,739,1600,900,1-8-2024,18-36-7,55,VR_target_stimuli/s31_1x_4.96_333.png,1000,1x,4.96,3,3584,1004,meters,jsons/MX_seq29_0_VE1000.json,289226,365395,25,Woman
55,368556,final-intermixed-textured,v2,jsons/MX_seq29_0_VE1000.json,http://54.235.29.9/FacialAge/BNav_EC2/DepthDuration/MX_fS_VE_MTurk/MX_fS_HTML.html#14,14,1600,739,1600,900,1-8-2024,18-36-7,56,VR_target_stimuli/s33_0.75x_3.1_361_BC.png,1000,0.75x,3.1,4,3458,998,meters,jsons/MX_seq29_0_VE1000.json,289226,365395,25,Woman
56,368556,final-intermixed-textured,v2,jsons/MX_seq29_0_VE1000.json,http://54.235.29.9/FacialAge/BNav_EC2/DepthDuration/MX_fS_VE_MTurk/MX_fS_HTML.html#14,14,1600,739,1600,900,1-8-2024,18-36-7,57,VR_target_stimuli/s52_1.3x_3.2_280_BC.png,1000,1.3x,3.2,5,3104,1003,meters,jsons/MX_seq29_0_VE1000.json,289226,365395,25,Woman
57,368556,final-intermixed-textured,v2,jsons/MX_seq29_0_VE1000.json,http://54.235.29.9/FacialAge/BNav_EC2/DepthDuration/MX_fS_VE_MTurk/MX_fS_HTML.html#14,14,1600,739,1600,900,1-8-2024,18-36-7,58,VR_target_stimuli/s32_1.3x_1.5_224.png,1000,1.3x,1.5,4,3476,999,meters,jsons/MX_seq29_0_VE1000.json,289226,365395,25,Woman
58,368556,final-intermixed-textured,v2,jsons/MX_seq29_0_VE1000.json,http://54.235.29.9/FacialAge/BNav_EC2/DepthDuration/MX_fS_VE_MTurk/MX_fS_HTML.html#14,14,1600,739,1600,900,1-8-2024,18-36-7,59,VR_target_stimuli/s18_1x_2.25_353_BC.png,1000,1x,2.25,4,3042,998,meters,jsons/MX_seq29_0_VE1000.json,289226,365395,25,Woman
59,368556,final-intermixed-textured,v2,jsons/MX_seq29_0_VE1000.json,http://54.235.29.9/FacialAge/BNav_EC2/DepthDuration/MX_fS_VE_MTurk/MX_fS_HTML.html#14,14,1600,739,1600,900,1-8-2024,18-36-7,60,VR_target_stimuli/s39_0.75x_1_205.png,1000,0.75x,1.0,3,3819,1005,meters,jsons/MX_seq29_0_VE1000.json,289226,365395,25,Woman
