,subjID,experimentName,versionName,sequenceName,url,selected_row,windowWidth,windowHeight,screenWidth,screenHeight,startDate,startTime,trial,stimulus,duration,scale,actual_depth,depth_estimate,trial_RT,log_sceneDuration,unitSelection,seq_filepath,experimentTime,totalTime,age,gender
0,383136,final-intermixed-textured,v2,jsons/MX_seq34_2_VE1000.json,http://54.235.29.9/FacialAge/BNav_EC2/DepthDuration/MX_fS_VE_MTurk/MX_fS_HTML.html#229,229,1920,919,1920,1080,1-8-2024,18-30-2,1,VR_target_stimuli/s40_1x_1.2_319.png,1000,1x,1.2,3,5114,1006,meters,jsons/MX_seq34_2_VE1000.json,239398,415574,24,Woman
1,383136,final-intermixed-textured,v2,jsons/MX_seq34_2_VE1000.json,http://54.235.29.9/FacialAge/BNav_EC2/DepthDuration/MX_fS_VE_MTurk/MX_fS_HTML.html#229,229,1920,919,1920,1080,1-8-2024,18-30-2,2,VR_target_stimuli/s41_1.3x_2.1_294_BC.png,1000,1.3x,2.1,2,2900,1002,meters,jsons/MX_seq34_2_VE1000.json,239398,415574,24,Woman
2,383136,final-intermixed-textured,v2,jsons/MX_seq34_2_VE1000.json,http://54.235.29.9/FacialAge/BNav_EC2/DepthDuration/MX_fS_VE_MTurk/MX_fS_HTML.html#229,229,1920,919,1920,1080,1-8-2024,18-30-2,3,VR_target_stimuli/s45_0.75x_3.5_362.png,1000,0.75x,3.5,3,5631,1002,meters,jsons/MX_seq34_2_VE1000.json,239398,415574,24,Woman
3,383136,final-intermixed-textured,v2,jsons/MX_seq34_2_VE1000.json,http://54.235.29.9/FacialAge/BNav_EC2/DepthDuration/MX_fS_VE_MTurk/MX_fS_HTML.html#229,229,1920,919,1920,1080,1-8-2024,18-30-2,4,VR_target_stimuli/s23_1.3x_3.65_354.png,1000,1.3x,3.65,4,3424,989,meters,jsons/MX_seq34_2_VE1000.json,239398,415574,24,Woman
4,383136,final-intermixed-textured,v2,jsons/MX_seq34_2_VE1000.json,http://54.235.29.9/FacialAge/BNav_EC2/DepthDuration/MX_fS_VE_MTurk/MX_fS_HTML.html#229,229,1920,919,1920,1080,1-8-2024,18-30-2,5,VR_target_stimuli/s26_1x_4_433_BC.png,1000,1x,4.0,6,3193,1005,meters,jsons/MX_seq34_2_VE1000.json,239398,415574,24,Woman
5,383136,final-intermixed-textured,v2,jsons/MX_seq34_2_VE1000.json,http://54.235.29.9/FacialAge/BNav_EC2/DepthDuration/MX_fS_VE_MTurk/MX_fS_HTML.html#229,229,1920,919,1920,1080,1-8-2024,18-30-2,6,VR_target_stimuli/s12_0.75x_3.1_364_BC.png,1000,0.75x,3.1,4,3310,1006,meters,jsons/MX_seq34_2_VE1000.json,239398,415574,24,Woman
6,383136,final-intermixed-textured,v2,jsons/MX_seq34_2_VE1000.json,http://54.235.29.9/FacialAge/BNav_EC2/DepthDuration/MX_fS_VE_MTurk/MX_fS_HTML.html#229,229,1920,919,1920,1080,1-8-2024,18-30-2,7,catch_stimuli/c0.png,1000,,,0,3052,1002,meters,jsons/MX_seq34_2_VE1000.json,239398,415574,24,Woman
7,383136,final-intermixed-textured,v2,jsons/MX_seq34_2_VE1000.json,http://54.235.29.9/FacialAge/BNav_EC2/DepthDuration/MX_fS_VE_MTurk/MX_fS_HTML.html#229,229,1920,919,1920,1080,1-8-2024,18-30-2,8,VR_target_stimuli/s30_0.75x_2.3_332_BC.png,1000,0.75x,2.3,3,4612,998,meters,jsons/MX_seq34_2_VE1000.json,239398,415574,24,Woman
8,383136,final-intermixed-textured,v2,jsons/MX_seq34_2_VE1000.json,http://54.235.29.9/FacialAge/BNav_EC2/DepthDuration/MX_fS_VE_MTurk/MX_fS_HTML.html#229,229,1920,919,1920,1080,1-8-2024,18-30-2,9,VR_target_stimuli/s16_1.3x_1_223_BC.png,1000,1.3x,1.0,1,4326,999,meters,jsons/MX_seq34_2_VE1000.json,239398,415574,24,Woman
9,383136,final-intermixed-textured,v2,jsons/MX_seq34_2_VE1000.json,http://54.235.29.9/FacialAge/BNav_EC2/DepthDuration/MX_fS_VE_MTurk/MX_fS_HTML.html#229,229,1920,919,1920,1080,1-8-2024,18-30-2,10,VR_target_stimuli/s17_1x_1.8_291.png,1000,1x,1.8,3,2863,1006,meters,jsons/MX_seq34_2_VE1000.json,239398,415574,24,Woman
10,383136,final-intermixed-textured,v2,jsons/MX_seq34_2_VE1000.json,http://54.235.29.9/FacialAge/BNav_EC2/DepthDuration/MX_fS_VE_MTurk/MX_fS_HTML.html#229,229,1920,919,1920,1080,1-8-2024,18-30-2,11,VR_target_stimuli/s5_1.3x_4_393.png,1000,1.3x,4.0,6,4610,1007,meters,jsons/MX_seq34_2_VE1000.json,239398,415574,24,Woman
11,383136,final-intermixed-textured,v2,jsons/MX_seq34_2_VE1000.json,http://54.235.29.9/FacialAge/BNav_EC2/DepthDuration/MX_fS_VE_MTurk/MX_fS_HTML.html#229,229,1920,919,1920,1080,1-8-2024,18-30-2,12,VR_target_stimuli/s37_0.75x_3.3_567.png,1000,0.75x,3.3,4,3605,991,meters,jsons/MX_seq34_2_VE1000.json,239398,415574,24,Woman
12,383136,final-intermixed-textured,v2,jsons/MX_seq34_2_VE1000.json,http://54.235.29.9/FacialAge/BNav_EC2/DepthDuration/MX_fS_VE_MTurk/MX_fS_HTML.html#229,229,1920,919,1920,1080,1-8-2024,18-30-2,13,VR_target_stimuli/s46_1x_2.42_348_BC.png,1000,1x,2.42,3,8159,988,meters,jsons/MX_seq34_2_VE1000.json,239398,415574,24,Woman
13,383136,final-intermixed-textured,v2,jsons/MX_seq34_2_VE1000.json,http://54.235.29.9/FacialAge/BNav_EC2/DepthDuration/MX_fS_VE_MTurk/MX_fS_HTML.html#229,229,1920,919,1920,1080,1-8-2024,18-30-2,14,VR_target_stimuli/s22_0.75x_4.29_348.png,1000,0.75x,4.29,8,3650,1008,meters,jsons/MX_seq34_2_VE1000.json,239398,415574,24,Woman
14,383136,final-intermixed-textured,v2,jsons/MX_seq34_2_VE1000.json,http://54.235.29.9/FacialAge/BNav_EC2/DepthDuration/MX_fS_VE_MTurk/MX_fS_HTML.html#229,229,1920,919,1920,1080,1-8-2024,18-30-2,15,VR_target_stimuli/s42_1.3x_3.2_305.png,1000,1.3x,3.2,5,3486,1003,meters,jsons/MX_seq34_2_VE1000.json,239398,415574,24,Woman
15,383136,final-intermixed-textured,v2,jsons/MX_seq34_2_VE1000.json,http://54.235.29.9/FacialAge/BNav_EC2/DepthDuration/MX_fS_VE_MTurk/MX_fS_HTML.html#229,229,1920,919,1920,1080,1-8-2024,18-30-2,16,VR_target_stimuli/s25_1x_1.4_290_BC.png,1000,1x,1.4,4,3531,1003,meters,jsons/MX_seq34_2_VE1000.json,239398,415574,24,Woman
16,383136,final-intermixed-textured,v2,jsons/MX_seq34_2_VE1000.json,http://54.235.29.9/FacialAge/BNav_EC2/DepthDuration/MX_fS_VE_MTurk/MX_fS_HTML.html#229,229,1920,919,1920,1080,1-8-2024,18-30-2,17,catch_stimuli/c1.png,1000,,,0,3229,991,meters,jsons/MX_seq34_2_VE1000.json,239398,415574,24,Woman
17,383136,final-intermixed-textured,v2,jsons/MX_seq34_2_VE1000.json,http://54.235.29.9/FacialAge/BNav_EC2/DepthDuration/MX_fS_VE_MTurk/MX_fS_HTML.html#229,229,1920,919,1920,1080,1-8-2024,18-30-2,18,VR_target_stimuli/s50_1x_4.53_518.png,1000,1x,4.53,5,4243,991,meters,jsons/MX_seq34_2_VE1000.json,239398,415574,24,Woman
18,383136,final-intermixed-textured,v2,jsons/MX_seq34_2_VE1000.json,http://54.235.29.9/FacialAge/BNav_EC2/DepthDuration/MX_fS_VE_MTurk/MX_fS_HTML.html#229,229,1920,919,1920,1080,1-8-2024,18-30-2,19,VR_target_stimuli/s53_0.75x_1.6_403_BC.png,1000,0.75x,1.6,1,4013,1003,meters,jsons/MX_seq34_2_VE1000.json,239398,415574,24,Woman
19,383136,final-intermixed-textured,v2,jsons/MX_seq34_2_VE1000.json,http://54.235.29.9/FacialAge/BNav_EC2/DepthDuration/MX_fS_VE_MTurk/MX_fS_HTML.html#229,229,1920,919,1920,1080,1-8-2024,18-30-2,20,VR_target_stimuli/s38_1.3x_3.55_358_BC.png,1000,1.3x,3.55,3,3471,991,meters,jsons/MX_seq34_2_VE1000.json,239398,415574,24,Woman
20,383136,final-intermixed-textured,v2,jsons/MX_seq34_2_VE1000.json,http://54.235.29.9/FacialAge/BNav_EC2/DepthDuration/MX_fS_VE_MTurk/MX_fS_HTML.html#229,229,1920,919,1920,1080,1-8-2024,18-30-2,21,VR_target_stimuli/s9_0.75x_1.2_260_BC.png,1000,0.75x,1.2,1,2586,1002,meters,jsons/MX_seq34_2_VE1000.json,239398,415574,24,Woman
21,383136,final-intermixed-textured,v2,jsons/MX_seq34_2_VE1000.json,http://54.235.29.9/FacialAge/BNav_EC2/DepthDuration/MX_fS_VE_MTurk/MX_fS_HTML.html#229,229,1920,919,1920,1080,1-8-2024,18-30-2,22,VR_target_stimuli/s44_1x_4.4_317_BC.png,1000,1x,4.4,6,3390,1007,meters,jsons/MX_seq34_2_VE1000.json,239398,415574,24,Woman
22,383136,final-intermixed-textured,v2,jsons/MX_seq34_2_VE1000.json,http://54.235.29.9/FacialAge/BNav_EC2/DepthDuration/MX_fS_VE_MTurk/MX_fS_HTML.html#229,229,1920,919,1920,1080,1-8-2024,18-30-2,23,VR_target_stimuli/s3_1.3x_5_390_BC.png,1000,1.3x,5.0,6,3232,1005,meters,jsons/MX_seq34_2_VE1000.json,239398,415574,24,Woman
23,383136,final-intermixed-textured,v2,jsons/MX_seq34_2_VE1000.json,http://54.235.29.9/FacialAge/BNav_EC2/DepthDuration/MX_fS_VE_MTurk/MX_fS_HTML.html#229,229,1920,919,1920,1080,1-8-2024,18-30-2,24,VR_target_stimuli/s1_1x_1.7_262.png,1000,1x,1.7,2,4110,1000,meters,jsons/MX_seq34_2_VE1000.json,239398,415574,24,Woman
24,383136,final-intermixed-textured,v2,jsons/MX_seq34_2_VE1000.json,http://54.235.29.9/FacialAge/BNav_EC2/DepthDuration/MX_fS_VE_MTurk/MX_fS_HTML.html#229,229,1920,919,1920,1080,1-8-2024,18-30-2,25,VR_target_stimuli/s11_0.75x_5_359.png,1000,0.75x,5.0,7,3582,1000,meters,jsons/MX_seq34_2_VE1000.json,239398,415574,24,Woman
25,383136,final-intermixed-textured,v2,jsons/MX_seq34_2_VE1000.json,http://54.235.29.9/FacialAge/BNav_EC2/DepthDuration/MX_fS_VE_MTurk/MX_fS_HTML.html#229,229,1920,919,1920,1080,1-8-2024,18-30-2,26,catch_stimuli/c2.png,1000,,,0,3876,995,meters,jsons/MX_seq34_2_VE1000.json,239398,415574,24,Woman
26,383136,final-intermixed-textured,v2,jsons/MX_seq34_2_VE1000.json,http://54.235.29.9/FacialAge/BNav_EC2/DepthDuration/MX_fS_VE_MTurk/MX_fS_HTML.html#229,229,1920,919,1920,1080,1-8-2024,18-30-2,27,VR_target_stimuli/s2_1.3x_2.7_397.png,1000,1.3x,2.7,2,3094,991,meters,jsons/MX_seq34_2_VE1000.json,239398,415574,24,Woman
27,383136,final-intermixed-textured,v2,jsons/MX_seq34_2_VE1000.json,http://54.235.29.9/FacialAge/BNav_EC2/DepthDuration/MX_fS_VE_MTurk/MX_fS_HTML.html#229,229,1920,919,1920,1080,1-8-2024,18-30-2,28,VR_target_stimuli/s6_1.3x_2.1_298_BC.png,1000,1.3x,2.1,2,2587,992,meters,jsons/MX_seq34_2_VE1000.json,239398,415574,24,Woman
28,383136,final-intermixed-textured,v2,jsons/MX_seq34_2_VE1000.json,http://54.235.29.9/FacialAge/BNav_EC2/DepthDuration/MX_fS_VE_MTurk/MX_fS_HTML.html#229,229,1920,919,1920,1080,1-8-2024,18-30-2,29,VR_target_stimuli/s0_1x_2.6_351_BC.png,1000,1x,2.6,4,3377,1001,meters,jsons/MX_seq34_2_VE1000.json,239398,415574,24,Woman
29,383136,final-intermixed-textured,v2,jsons/MX_seq34_2_VE1000.json,http://54.235.29.9/FacialAge/BNav_EC2/DepthDuration/MX_fS_VE_MTurk/MX_fS_HTML.html#229,229,1920,919,1920,1080,1-8-2024,18-30-2,30,VR_target_stimuli/s34_0.75x_2.8_269_BC.png,1000,0.75x,2.8,4,2559,1004,meters,jsons/MX_seq34_2_VE1000.json,239398,415574,24,Woman
30,383136,final-intermixed-textured,v2,jsons/MX_seq34_2_VE1000.json,http://54.235.29.9/FacialAge/BNav_EC2/DepthDuration/MX_fS_VE_MTurk/MX_fS_HTML.html#229,229,1920,919,1920,1080,1-8-2024,18-30-2,31,VR_target_stimuli/s13_1.3x_2.4_313.png,1000,1.3x,2.4,4,2877,989,meters,jsons/MX_seq34_2_VE1000.json,239398,415574,24,Woman
31,383136,final-intermixed-textured,v2,jsons/MX_seq34_2_VE1000.json,http://54.235.29.9/FacialAge/BNav_EC2/DepthDuration/MX_fS_VE_MTurk/MX_fS_HTML.html#229,229,1920,919,1920,1080,1-8-2024,18-30-2,32,VR_target_stimuli/s14_0.75x_3.83_355.png,1000,0.75x,3.83,6,3001,993,meters,jsons/MX_seq34_2_VE1000.json,239398,415574,24,Woman
32,383136,final-intermixed-textured,v2,jsons/MX_seq34_2_VE1000.json,http://54.235.29.9/FacialAge/BNav_EC2/DepthDuration/MX_fS_VE_MTurk/MX_fS_HTML.html#229,229,1920,919,1920,1080,1-8-2024,18-30-2,33,VR_target_stimuli/s47_1x_3.45_370.png,1000,1x,3.45,5,2917,1004,meters,jsons/MX_seq34_2_VE1000.json,239398,415574,24,Woman
33,383136,final-intermixed-textured,v2,jsons/MX_seq34_2_VE1000.json,http://54.235.29.9/FacialAge/BNav_EC2/DepthDuration/MX_fS_VE_MTurk/MX_fS_HTML.html#229,229,1920,919,1920,1080,1-8-2024,18-30-2,34,catch_stimuli/c3.png,1000,,,0,5701,990,meters,jsons/MX_seq34_2_VE1000.json,239398,415574,24,Woman
34,383136,final-intermixed-textured,v2,jsons/MX_seq34_2_VE1000.json,http://54.235.29.9/FacialAge/BNav_EC2/DepthDuration/MX_fS_VE_MTurk/MX_fS_HTML.html#229,229,1920,919,1920,1080,1-8-2024,18-30-2,35,VR_target_stimuli/s29_0.75x_1.3_246_BC.png,1000,0.75x,1.3,1,2583,997,meters,jsons/MX_seq34_2_VE1000.json,239398,415574,24,Woman
35,383136,final-intermixed-textured,v2,jsons/MX_seq34_2_VE1000.json,http://54.235.29.9/FacialAge/BNav_EC2/DepthDuration/MX_fS_VE_MTurk/MX_fS_HTML.html#229,229,1920,919,1920,1080,1-8-2024,18-30-2,36,VR_target_stimuli/s28_1.3x_3.2_365.png,1000,1.3x,3.2,3,2490,997,meters,jsons/MX_seq34_2_VE1000.json,239398,415574,24,Woman
36,383136,final-intermixed-textured,v2,jsons/MX_seq34_2_VE1000.json,http://54.235.29.9/FacialAge/BNav_EC2/DepthDuration/MX_fS_VE_MTurk/MX_fS_HTML.html#229,229,1920,919,1920,1080,1-8-2024,18-30-2,37,VR_target_stimuli/s48_1x_2.55_256.png,1000,1x,2.55,2,2800,998,meters,jsons/MX_seq34_2_VE1000.json,239398,415574,24,Woman
37,383136,final-intermixed-textured,v2,jsons/MX_seq34_2_VE1000.json,http://54.235.29.9/FacialAge/BNav_EC2/DepthDuration/MX_fS_VE_MTurk/MX_fS_HTML.html#229,229,1920,919,1920,1080,1-8-2024,18-30-2,38,VR_target_stimuli/s19_1x_1.21_263_BC.png,1000,1x,1.21,2,3169,993,meters,jsons/MX_seq34_2_VE1000.json,239398,415574,24,Woman
38,383136,final-intermixed-textured,v2,jsons/MX_seq34_2_VE1000.json,http://54.235.29.9/FacialAge/BNav_EC2/DepthDuration/MX_fS_VE_MTurk/MX_fS_HTML.html#229,229,1920,919,1920,1080,1-8-2024,18-30-2,39,VR_target_stimuli/s21_0.75x_4.22_374.png,1000,0.75x,4.22,7,4253,1005,meters,jsons/MX_seq34_2_VE1000.json,239398,415574,24,Woman
39,383136,final-intermixed-textured,v2,jsons/MX_seq34_2_VE1000.json,http://54.235.29.9/FacialAge/BNav_EC2/DepthDuration/MX_fS_VE_MTurk/MX_fS_HTML.html#229,229,1920,919,1920,1080,1-8-2024,18-30-2,40,VR_target_stimuli/s8_1.3x_3.1_345_BC.png,1000,1.3x,3.1,4,4084,1011,meters,jsons/MX_seq34_2_VE1000.json,239398,415574,24,Woman
40,383136,final-intermixed-textured,v2,jsons/MX_seq34_2_VE1000.json,http://54.235.29.9/FacialAge/BNav_EC2/DepthDuration/MX_fS_VE_MTurk/MX_fS_HTML.html#229,229,1920,919,1920,1080,1-8-2024,18-30-2,41,VR_target_stimuli/s27_0.75x_1.76_243.png,1000,0.75x,1.76,5,3744,992,meters,jsons/MX_seq34_2_VE1000.json,239398,415574,24,Woman
41,383136,final-intermixed-textured,v2,jsons/MX_seq34_2_VE1000.json,http://54.235.29.9/FacialAge/BNav_EC2/DepthDuration/MX_fS_VE_MTurk/MX_fS_HTML.html#229,229,1920,919,1920,1080,1-8-2024,18-30-2,42,VR_target_stimuli/s15_1x_4.2_390.png,1000,1x,4.2,6,3159,1002,meters,jsons/MX_seq34_2_VE1000.json,239398,415574,24,Woman
42,383136,final-intermixed-textured,v2,jsons/MX_seq34_2_VE1000.json,http://54.235.29.9/FacialAge/BNav_EC2/DepthDuration/MX_fS_VE_MTurk/MX_fS_HTML.html#229,229,1920,919,1920,1080,1-8-2024,18-30-2,43,VR_target_stimuli/s4_1.3x_1.4_328_BC.png,1000,1.3x,1.4,2,2979,993,meters,jsons/MX_seq34_2_VE1000.json,239398,415574,24,Woman
43,383136,final-intermixed-textured,v2,jsons/MX_seq34_2_VE1000.json,http://54.235.29.9/FacialAge/BNav_EC2/DepthDuration/MX_fS_VE_MTurk/MX_fS_HTML.html#229,229,1920,919,1920,1080,1-8-2024,18-30-2,44,VR_target_stimuli/s35_1x_2_331_BC.png,1000,1x,2.0,3,2465,1010,meters,jsons/MX_seq34_2_VE1000.json,239398,415574,24,Woman
44,383136,final-intermixed-textured,v2,jsons/MX_seq34_2_VE1000.json,http://54.235.29.9/FacialAge/BNav_EC2/DepthDuration/MX_fS_VE_MTurk/MX_fS_HTML.html#229,229,1920,919,1920,1080,1-8-2024,18-30-2,45,catch_stimuli/c4.png,1000,,,0,2538,1011,meters,jsons/MX_seq34_2_VE1000.json,239398,415574,24,Woman
45,383136,final-intermixed-textured,v2,jsons/MX_seq34_2_VE1000.json,http://54.235.29.9/FacialAge/BNav_EC2/DepthDuration/MX_fS_VE_MTurk/MX_fS_HTML.html#229,229,1920,919,1920,1080,1-8-2024,18-30-2,46,VR_target_stimuli/s49_0.75x_4.67_328_BC.png,1000,0.75x,4.67,5,3395,988,meters,jsons/MX_seq34_2_VE1000.json,239398,415574,24,Woman
46,383136,final-intermixed-textured,v2,jsons/MX_seq34_2_VE1000.json,http://54.235.29.9/FacialAge/BNav_EC2/DepthDuration/MX_fS_VE_MTurk/MX_fS_HTML.html#229,229,1920,919,1920,1080,1-8-2024,18-30-2,47,VR_target_stimuli/s7_1.3x_1.5_256.png,1000,1.3x,1.5,2,2522,1004,meters,jsons/MX_seq34_2_VE1000.json,239398,415574,24,Woman
47,383136,final-intermixed-textured,v2,jsons/MX_seq34_2_VE1000.json,http://54.235.29.9/FacialAge/BNav_EC2/DepthDuration/MX_fS_VE_MTurk/MX_fS_HTML.html#229,229,1920,919,1920,1080,1-8-2024,18-30-2,48,VR_target_stimuli/s20_1.3x_4.99_412.png,1000,1.3x,4.99,7,3757,991,meters,jsons/MX_seq34_2_VE1000.json,239398,415574,24,Woman
48,383136,final-intermixed-textured,v2,jsons/MX_seq34_2_VE1000.json,http://54.235.29.9/FacialAge/BNav_EC2/DepthDuration/MX_fS_VE_MTurk/MX_fS_HTML.html#229,229,1920,919,1920,1080,1-8-2024,18-30-2,49,VR_target_stimuli/s31_1x_4.96_333_BC.png,1000,1x,4.96,7,3574,991,meters,jsons/MX_seq34_2_VE1000.json,239398,415574,24,Woman
49,383136,final-intermixed-textured,v2,jsons/MX_seq34_2_VE1000.json,http://54.235.29.9/FacialAge/BNav_EC2/DepthDuration/MX_fS_VE_MTurk/MX_fS_HTML.html#229,229,1920,919,1920,1080,1-8-2024,18-30-2,50,VR_target_stimuli/s33_0.75x_3.1_361.png,1000,0.75x,3.1,5,4060,1002,meters,jsons/MX_seq34_2_VE1000.json,239398,415574,24,Woman
50,383136,final-intermixed-textured,v2,jsons/MX_seq34_2_VE1000.json,http://54.235.29.9/FacialAge/BNav_EC2/DepthDuration/MX_fS_VE_MTurk/MX_fS_HTML.html#229,229,1920,919,1920,1080,1-8-2024,18-30-2,51,VR_target_stimuli/s52_1x_3.2_275.png,1000,1x,3.2,6,4486,1004,meters,jsons/MX_seq34_2_VE1000.json,239398,415574,24,Woman
51,383136,final-intermixed-textured,v2,jsons/MX_seq34_2_VE1000.json,http://54.235.29.9/FacialAge/BNav_EC2/DepthDuration/MX_fS_VE_MTurk/MX_fS_HTML.html#229,229,1920,919,1920,1080,1-8-2024,18-30-2,52,VR_target_stimuli/s32_1.3x_1.5_224_BC.png,1000,1.3x,1.5,5,2825,1005,meters,jsons/MX_seq34_2_VE1000.json,239398,415574,24,Woman
52,383136,final-intermixed-textured,v2,jsons/MX_seq34_2_VE1000.json,http://54.235.29.9/FacialAge/BNav_EC2/DepthDuration/MX_fS_VE_MTurk/MX_fS_HTML.html#229,229,1920,919,1920,1080,1-8-2024,18-30-2,53,catch_stimuli/c5.png,1000,,,0,2589,1001,meters,jsons/MX_seq34_2_VE1000.json,239398,415574,24,Woman
53,383136,final-intermixed-textured,v2,jsons/MX_seq34_2_VE1000.json,http://54.235.29.9/FacialAge/BNav_EC2/DepthDuration/MX_fS_VE_MTurk/MX_fS_HTML.html#229,229,1920,919,1920,1080,1-8-2024,18-30-2,54,VR_target_stimuli/s18_0.75x_2.25_341_BC.png,1000,0.75x,2.25,2,2921,990,meters,jsons/MX_seq34_2_VE1000.json,239398,415574,24,Woman
54,383136,final-intermixed-textured,v2,jsons/MX_seq34_2_VE1000.json,http://54.235.29.9/FacialAge/BNav_EC2/DepthDuration/MX_fS_VE_MTurk/MX_fS_HTML.html#229,229,1920,919,1920,1080,1-8-2024,18-30-2,55,VR_target_stimuli/s39_1.3x_1_208_BC.png,1000,1.3x,1.0,1,2446,987,meters,jsons/MX_seq34_2_VE1000.json,239398,415574,24,Woman
55,383136,final-intermixed-textured,v2,jsons/MX_seq34_2_VE1000.json,http://54.235.29.9/FacialAge/BNav_EC2/DepthDuration/MX_fS_VE_MTurk/MX_fS_HTML.html#229,229,1920,919,1920,1080,1-8-2024,18-30-2,56,VR_target_stimuli/s51_1x_3.64_461_BC.png,1000,1x,3.64,3,2673,995,meters,jsons/MX_seq34_2_VE1000.json,239398,415574,24,Woman
56,383136,final-intermixed-textured,v2,jsons/MX_seq34_2_VE1000.json,http://54.235.29.9/FacialAge/BNav_EC2/DepthDuration/MX_fS_VE_MTurk/MX_fS_HTML.html#229,229,1920,919,1920,1080,1-8-2024,18-30-2,57,VR_target_stimuli/s43_0.75x_2.2_348_BC.png,1000,0.75x,2.2,3,2402,998,meters,jsons/MX_seq34_2_VE1000.json,239398,415574,24,Woman
57,383136,final-intermixed-textured,v2,jsons/MX_seq34_2_VE1000.json,http://54.235.29.9/FacialAge/BNav_EC2/DepthDuration/MX_fS_VE_MTurk/MX_fS_HTML.html#229,229,1920,919,1920,1080,1-8-2024,18-30-2,58,VR_target_stimuli/s24_0.75x_3.3_344.png,1000,0.75x,3.3,4,4311,1002,meters,jsons/MX_seq34_2_VE1000.json,239398,415574,24,Woman
58,383136,final-intermixed-textured,v2,jsons/MX_seq34_2_VE1000.json,http://54.235.29.9/FacialAge/BNav_EC2/DepthDuration/MX_fS_VE_MTurk/MX_fS_HTML.html#229,229,1920,919,1920,1080,1-8-2024,18-30-2,59,VR_target_stimuli/s10_1.3x_2.7_325.png,1000,1.3x,2.7,2,2665,1003,meters,jsons/MX_seq34_2_VE1000.json,239398,415574,24,Woman
59,383136,final-intermixed-textured,v2,jsons/MX_seq34_2_VE1000.json,http://54.235.29.9/FacialAge/BNav_EC2/DepthDuration/MX_fS_VE_MTurk/MX_fS_HTML.html#229,229,1920,919,1920,1080,1-8-2024,18-30-2,60,VR_target_stimuli/s36_1x_4.1_423.png,1000,1x,4.1,4,2737,990,meters,jsons/MX_seq34_2_VE1000.json,239398,415574,24,Woman
