,subjID,experimentName,versionName,sequenceName,url,selected_row,windowWidth,windowHeight,screenWidth,screenHeight,startDate,startTime,trial,stimulus,duration,scale,actual_depth,depth_estimate,trial_RT,log_sceneDuration,unitSelection,seq_filepath,experimentTime,totalTime,age,gender
0,396563,final-intermixed-textured,v2,jsons/MX_seq27_2_VE1000.json,http://54.235.29.9/FacialAge/BNav_EC2/DepthDuration/MX_fS_VE_MTurk/MX_fS_HTML.html#237,237,1280,585,1280,720,1-8-2024,19-31-30,1,VR_target_stimuli/s18_1x_2.25_353.png,1000,1x,2.25,25,9545,949,meters,jsons/MX_seq27_2_VE1000.json,379262,518617,28,Woman
1,396563,final-intermixed-textured,v2,jsons/MX_seq27_2_VE1000.json,http://54.235.29.9/FacialAge/BNav_EC2/DepthDuration/MX_fS_VE_MTurk/MX_fS_HTML.html#237,237,1280,585,1280,720,1-8-2024,19-31-30,2,VR_target_stimuli/s39_1.3x_1_208_BC.png,1000,1.3x,1.0,5,7184,1024,meters,jsons/MX_seq27_2_VE1000.json,379262,518617,28,Woman
2,396563,final-intermixed-textured,v2,jsons/MX_seq27_2_VE1000.json,http://54.235.29.9/FacialAge/BNav_EC2/DepthDuration/MX_fS_VE_MTurk/MX_fS_HTML.html#237,237,1280,585,1280,720,1-8-2024,19-31-30,3,VR_target_stimuli/s51_0.75x_3.64_460.png,1000,0.75x,3.64,16,6714,957,meters,jsons/MX_seq27_2_VE1000.json,379262,518617,28,Woman
3,396563,final-intermixed-textured,v2,jsons/MX_seq27_2_VE1000.json,http://54.235.29.9/FacialAge/BNav_EC2/DepthDuration/MX_fS_VE_MTurk/MX_fS_HTML.html#237,237,1280,585,1280,720,1-8-2024,19-31-30,4,VR_target_stimuli/s43_1.3x_2.2_363.png,1000,1.3x,2.2,18,5660,1003,meters,jsons/MX_seq27_2_VE1000.json,379262,518617,28,Woman
4,396563,final-intermixed-textured,v2,jsons/MX_seq27_2_VE1000.json,http://54.235.29.9/FacialAge/BNav_EC2/DepthDuration/MX_fS_VE_MTurk/MX_fS_HTML.html#237,237,1280,585,1280,720,1-8-2024,19-31-30,5,VR_target_stimuli/s24_1x_3.3_349_BC.png,1000,1x,3.3,20,5396,1008,meters,jsons/MX_seq27_2_VE1000.json,379262,518617,28,Woman
5,396563,final-intermixed-textured,v2,jsons/MX_seq27_2_VE1000.json,http://54.235.29.9/FacialAge/BNav_EC2/DepthDuration/MX_fS_VE_MTurk/MX_fS_HTML.html#237,237,1280,585,1280,720,1-8-2024,19-31-30,6,VR_target_stimuli/s10_0.75x_2.7_321_BC.png,1000,0.75x,2.7,10,11378,995,meters,jsons/MX_seq27_2_VE1000.json,379262,518617,28,Woman
6,396563,final-intermixed-textured,v2,jsons/MX_seq27_2_VE1000.json,http://54.235.29.9/FacialAge/BNav_EC2/DepthDuration/MX_fS_VE_MTurk/MX_fS_HTML.html#237,237,1280,585,1280,720,1-8-2024,19-31-30,7,catch_stimuli/c0.png,1000,,,0,5865,974,meters,jsons/MX_seq27_2_VE1000.json,379262,518617,28,Woman
7,396563,final-intermixed-textured,v2,jsons/MX_seq27_2_VE1000.json,http://54.235.29.9/FacialAge/BNav_EC2/DepthDuration/MX_fS_VE_MTurk/MX_fS_HTML.html#237,237,1280,585,1280,720,1-8-2024,19-31-30,8,VR_target_stimuli/s36_0.75x_4.1_407.png,1000,0.75x,4.1,16,6120,1002,meters,jsons/MX_seq27_2_VE1000.json,379262,518617,28,Woman
8,396563,final-intermixed-textured,v2,jsons/MX_seq27_2_VE1000.json,http://54.235.29.9/FacialAge/BNav_EC2/DepthDuration/MX_fS_VE_MTurk/MX_fS_HTML.html#237,237,1280,585,1280,720,1-8-2024,19-31-30,9,VR_target_stimuli/s40_1.3x_1.2_332.png,1000,1.3x,1.2,3,8837,996,meters,jsons/MX_seq27_2_VE1000.json,379262,518617,28,Woman
9,396563,final-intermixed-textured,v2,jsons/MX_seq27_2_VE1000.json,http://54.235.29.9/FacialAge/BNav_EC2/DepthDuration/MX_fS_VE_MTurk/MX_fS_HTML.html#237,237,1280,585,1280,720,1-8-2024,19-31-30,10,VR_target_stimuli/s41_1x_2.1_286.png,1000,1x,2.1,7,11674,993,meters,jsons/MX_seq27_2_VE1000.json,379262,518617,28,Woman
10,396563,final-intermixed-textured,v2,jsons/MX_seq27_2_VE1000.json,http://54.235.29.9/FacialAge/BNav_EC2/DepthDuration/MX_fS_VE_MTurk/MX_fS_HTML.html#237,237,1280,585,1280,720,1-8-2024,19-31-30,11,VR_target_stimuli/s45_1.3x_3.5_377_BC.png,1000,1.3x,3.5,8,5431,953,meters,jsons/MX_seq27_2_VE1000.json,379262,518617,28,Woman
11,396563,final-intermixed-textured,v2,jsons/MX_seq27_2_VE1000.json,http://54.235.29.9/FacialAge/BNav_EC2/DepthDuration/MX_fS_VE_MTurk/MX_fS_HTML.html#237,237,1280,585,1280,720,1-8-2024,19-31-30,12,VR_target_stimuli/s23_0.75x_3.65_351_BC.png,1000,0.75x,3.65,7,6004,1000,meters,jsons/MX_seq27_2_VE1000.json,379262,518617,28,Woman
12,396563,final-intermixed-textured,v2,jsons/MX_seq27_2_VE1000.json,http://54.235.29.9/FacialAge/BNav_EC2/DepthDuration/MX_fS_VE_MTurk/MX_fS_HTML.html#237,237,1280,585,1280,720,1-8-2024,19-31-30,13,VR_target_stimuli/s26_1x_4_433_BC.png,1000,1x,4.0,10,4975,997,meters,jsons/MX_seq27_2_VE1000.json,379262,518617,28,Woman
13,396563,final-intermixed-textured,v2,jsons/MX_seq27_2_VE1000.json,http://54.235.29.9/FacialAge/BNav_EC2/DepthDuration/MX_fS_VE_MTurk/MX_fS_HTML.html#237,237,1280,585,1280,720,1-8-2024,19-31-30,14,VR_target_stimuli/s12_0.75x_3.1_364_BC.png,1000,0.75x,3.1,5,5962,1005,meters,jsons/MX_seq27_2_VE1000.json,379262,518617,28,Woman
14,396563,final-intermixed-textured,v2,jsons/MX_seq27_2_VE1000.json,http://54.235.29.9/FacialAge/BNav_EC2/DepthDuration/MX_fS_VE_MTurk/MX_fS_HTML.html#237,237,1280,585,1280,720,1-8-2024,19-31-30,15,VR_target_stimuli/s30_1.3x_2.3_337.png,1000,1.3x,2.3,5,4391,1000,meters,jsons/MX_seq27_2_VE1000.json,379262,518617,28,Woman
15,396563,final-intermixed-textured,v2,jsons/MX_seq27_2_VE1000.json,http://54.235.29.9/FacialAge/BNav_EC2/DepthDuration/MX_fS_VE_MTurk/MX_fS_HTML.html#237,237,1280,585,1280,720,1-8-2024,19-31-30,16,VR_target_stimuli/s16_1x_1_219.png,1000,1x,1.0,2,4497,1008,meters,jsons/MX_seq27_2_VE1000.json,379262,518617,28,Woman
16,396563,final-intermixed-textured,v2,jsons/MX_seq27_2_VE1000.json,http://54.235.29.9/FacialAge/BNav_EC2/DepthDuration/MX_fS_VE_MTurk/MX_fS_HTML.html#237,237,1280,585,1280,720,1-8-2024,19-31-30,17,catch_stimuli/c1.png,1000,,,0,4693,999,meters,jsons/MX_seq27_2_VE1000.json,379262,518617,28,Woman
17,396563,final-intermixed-textured,v2,jsons/MX_seq27_2_VE1000.json,http://54.235.29.9/FacialAge/BNav_EC2/DepthDuration/MX_fS_VE_MTurk/MX_fS_HTML.html#237,237,1280,585,1280,720,1-8-2024,19-31-30,18,VR_target_stimuli/s17_1x_1.8_291_BC.png,1000,1x,1.8,2,4924,999,meters,jsons/MX_seq27_2_VE1000.json,379262,518617,28,Woman
18,396563,final-intermixed-textured,v2,jsons/MX_seq27_2_VE1000.json,http://54.235.29.9/FacialAge/BNav_EC2/DepthDuration/MX_fS_VE_MTurk/MX_fS_HTML.html#237,237,1280,585,1280,720,1-8-2024,19-31-30,19,VR_target_stimuli/s5_0.75x_4_375.png,1000,0.75x,4.0,6,5146,985,meters,jsons/MX_seq27_2_VE1000.json,379262,518617,28,Woman
19,396563,final-intermixed-textured,v2,jsons/MX_seq27_2_VE1000.json,http://54.235.29.9/FacialAge/BNav_EC2/DepthDuration/MX_fS_VE_MTurk/MX_fS_HTML.html#237,237,1280,585,1280,720,1-8-2024,19-31-30,20,VR_target_stimuli/s37_1.3x_3.3_555_BC.png,1000,1.3x,3.3,5,5608,1000,meters,jsons/MX_seq27_2_VE1000.json,379262,518617,28,Woman
20,396563,final-intermixed-textured,v2,jsons/MX_seq27_2_VE1000.json,http://54.235.29.9/FacialAge/BNav_EC2/DepthDuration/MX_fS_VE_MTurk/MX_fS_HTML.html#237,237,1280,585,1280,720,1-8-2024,19-31-30,21,VR_target_stimuli/s46_0.75x_2.42_343.png,1000,0.75x,2.42,4,7911,1015,meters,jsons/MX_seq27_2_VE1000.json,379262,518617,28,Woman
21,396563,final-intermixed-textured,v2,jsons/MX_seq27_2_VE1000.json,http://54.235.29.9/FacialAge/BNav_EC2/DepthDuration/MX_fS_VE_MTurk/MX_fS_HTML.html#237,237,1280,585,1280,720,1-8-2024,19-31-30,22,VR_target_stimuli/s22_1x_4.29_354_BC.png,1000,1x,4.29,7,4204,1005,meters,jsons/MX_seq27_2_VE1000.json,379262,518617,28,Woman
22,396563,final-intermixed-textured,v2,jsons/MX_seq27_2_VE1000.json,http://54.235.29.9/FacialAge/BNav_EC2/DepthDuration/MX_fS_VE_MTurk/MX_fS_HTML.html#237,237,1280,585,1280,720,1-8-2024,19-31-30,23,VR_target_stimuli/s42_1.3x_3.2_305.png,1000,1.3x,3.2,6,4520,1007,meters,jsons/MX_seq27_2_VE1000.json,379262,518617,28,Woman
23,396563,final-intermixed-textured,v2,jsons/MX_seq27_2_VE1000.json,http://54.235.29.9/FacialAge/BNav_EC2/DepthDuration/MX_fS_VE_MTurk/MX_fS_HTML.html#237,237,1280,585,1280,720,1-8-2024,19-31-30,24,VR_target_stimuli/s25_1x_1.4_290.png,1000,1x,1.4,2,4149,998,meters,jsons/MX_seq27_2_VE1000.json,379262,518617,28,Woman
24,396563,final-intermixed-textured,v2,jsons/MX_seq27_2_VE1000.json,http://54.235.29.9/FacialAge/BNav_EC2/DepthDuration/MX_fS_VE_MTurk/MX_fS_HTML.html#237,237,1280,585,1280,720,1-8-2024,19-31-30,25,VR_target_stimuli/s50_0.75x_4.53_517_BC.png,1000,0.75x,4.53,6,5814,994,meters,jsons/MX_seq27_2_VE1000.json,379262,518617,28,Woman
25,396563,final-intermixed-textured,v2,jsons/MX_seq27_2_VE1000.json,http://54.235.29.9/FacialAge/BNav_EC2/DepthDuration/MX_fS_VE_MTurk/MX_fS_HTML.html#237,237,1280,585,1280,720,1-8-2024,19-31-30,26,catch_stimuli/c2.png,1000,,,0,4383,1001,meters,jsons/MX_seq27_2_VE1000.json,379262,518617,28,Woman
26,396563,final-intermixed-textured,v2,jsons/MX_seq27_2_VE1000.json,http://54.235.29.9/FacialAge/BNav_EC2/DepthDuration/MX_fS_VE_MTurk/MX_fS_HTML.html#237,237,1280,585,1280,720,1-8-2024,19-31-30,27,VR_target_stimuli/s53_1.3x_1.6_355_BC.png,1000,1.3x,1.6,2,4787,996,meters,jsons/MX_seq27_2_VE1000.json,379262,518617,28,Woman
27,396563,final-intermixed-textured,v2,jsons/MX_seq27_2_VE1000.json,http://54.235.29.9/FacialAge/BNav_EC2/DepthDuration/MX_fS_VE_MTurk/MX_fS_HTML.html#237,237,1280,585,1280,720,1-8-2024,19-31-30,28,VR_target_stimuli/s38_1.3x_3.55_358_BC.png,1000,1.3x,3.55,4,8623,1000,meters,jsons/MX_seq27_2_VE1000.json,379262,518617,28,Woman
28,396563,final-intermixed-textured,v2,jsons/MX_seq27_2_VE1000.json,http://54.235.29.9/FacialAge/BNav_EC2/DepthDuration/MX_fS_VE_MTurk/MX_fS_HTML.html#237,237,1280,585,1280,720,1-8-2024,19-31-30,29,VR_target_stimuli/s9_1x_1.2_263_BC.png,1000,1x,1.2,2,8805,1013,meters,jsons/MX_seq27_2_VE1000.json,379262,518617,28,Woman
29,396563,final-intermixed-textured,v2,jsons/MX_seq27_2_VE1000.json,http://54.235.29.9/FacialAge/BNav_EC2/DepthDuration/MX_fS_VE_MTurk/MX_fS_HTML.html#237,237,1280,585,1280,720,1-8-2024,19-31-30,30,VR_target_stimuli/s44_0.75x_4.4_314.png,1000,0.75x,4.4,8,7406,1000,meters,jsons/MX_seq27_2_VE1000.json,379262,518617,28,Woman
30,396563,final-intermixed-textured,v2,jsons/MX_seq27_2_VE1000.json,http://54.235.29.9/FacialAge/BNav_EC2/DepthDuration/MX_fS_VE_MTurk/MX_fS_HTML.html#237,237,1280,585,1280,720,1-8-2024,19-31-30,31,VR_target_stimuli/s3_1.3x_5_390.png,1000,1.3x,5.0,7,4045,1001,meters,jsons/MX_seq27_2_VE1000.json,379262,518617,28,Woman
31,396563,final-intermixed-textured,v2,jsons/MX_seq27_2_VE1000.json,http://54.235.29.9/FacialAge/BNav_EC2/DepthDuration/MX_fS_VE_MTurk/MX_fS_HTML.html#237,237,1280,585,1280,720,1-8-2024,19-31-30,32,VR_target_stimuli/s1_0.75x_1.7_265_BC.png,1000,0.75x,1.7,3,6289,1000,meters,jsons/MX_seq27_2_VE1000.json,379262,518617,28,Woman
32,396563,final-intermixed-textured,v2,jsons/MX_seq27_2_VE1000.json,http://54.235.29.9/FacialAge/BNav_EC2/DepthDuration/MX_fS_VE_MTurk/MX_fS_HTML.html#237,237,1280,585,1280,720,1-8-2024,19-31-30,33,VR_target_stimuli/s11_1x_5_361.png,1000,1x,5.0,6,4086,1002,meters,jsons/MX_seq27_2_VE1000.json,379262,518617,28,Woman
33,396563,final-intermixed-textured,v2,jsons/MX_seq27_2_VE1000.json,http://54.235.29.9/FacialAge/BNav_EC2/DepthDuration/MX_fS_VE_MTurk/MX_fS_HTML.html#237,237,1280,585,1280,720,1-8-2024,19-31-30,34,catch_stimuli/c3.png,1000,,,0,4367,940,meters,jsons/MX_seq27_2_VE1000.json,379262,518617,28,Woman
34,396563,final-intermixed-textured,v2,jsons/MX_seq27_2_VE1000.json,http://54.235.29.9/FacialAge/BNav_EC2/DepthDuration/MX_fS_VE_MTurk/MX_fS_HTML.html#237,237,1280,585,1280,720,1-8-2024,19-31-30,35,VR_target_stimuli/s2_0.75x_2.7_384_BC.png,1000,0.75x,2.7,4,7009,993,meters,jsons/MX_seq27_2_VE1000.json,379262,518617,28,Woman
35,396563,final-intermixed-textured,v2,jsons/MX_seq27_2_VE1000.json,http://54.235.29.9/FacialAge/BNav_EC2/DepthDuration/MX_fS_VE_MTurk/MX_fS_HTML.html#237,237,1280,585,1280,720,1-8-2024,19-31-30,36,VR_target_stimuli/s6_1.3x_2.1_298.png,1000,1.3x,2.1,3,4535,999,meters,jsons/MX_seq27_2_VE1000.json,379262,518617,28,Woman
36,396563,final-intermixed-textured,v2,jsons/MX_seq27_2_VE1000.json,http://54.235.29.9/FacialAge/BNav_EC2/DepthDuration/MX_fS_VE_MTurk/MX_fS_HTML.html#237,237,1280,585,1280,720,1-8-2024,19-31-30,37,VR_target_stimuli/s0_1x_2.6_351.png,1000,1x,2.6,5,4606,1000,meters,jsons/MX_seq27_2_VE1000.json,379262,518617,28,Woman
37,396563,final-intermixed-textured,v2,jsons/MX_seq27_2_VE1000.json,http://54.235.29.9/FacialAge/BNav_EC2/DepthDuration/MX_fS_VE_MTurk/MX_fS_HTML.html#237,237,1280,585,1280,720,1-8-2024,19-31-30,38,VR_target_stimuli/s34_1x_2.8_283_BC.png,1000,1x,2.8,4,5740,1001,meters,jsons/MX_seq27_2_VE1000.json,379262,518617,28,Woman
38,396563,final-intermixed-textured,v2,jsons/MX_seq27_2_VE1000.json,http://54.235.29.9/FacialAge/BNav_EC2/DepthDuration/MX_fS_VE_MTurk/MX_fS_HTML.html#237,237,1280,585,1280,720,1-8-2024,19-31-30,39,VR_target_stimuli/s13_0.75x_2.4_308.png,1000,0.75x,2.4,5,4816,1027,meters,jsons/MX_seq27_2_VE1000.json,379262,518617,28,Woman
39,396563,final-intermixed-textured,v2,jsons/MX_seq27_2_VE1000.json,http://54.235.29.9/FacialAge/BNav_EC2/DepthDuration/MX_fS_VE_MTurk/MX_fS_HTML.html#237,237,1280,585,1280,720,1-8-2024,19-31-30,40,VR_target_stimuli/s14_1.3x_3.83_359_BC.png,1000,1.3x,3.83,6,4812,999,meters,jsons/MX_seq27_2_VE1000.json,379262,518617,28,Woman
40,396563,final-intermixed-textured,v2,jsons/MX_seq27_2_VE1000.json,http://54.235.29.9/FacialAge/BNav_EC2/DepthDuration/MX_fS_VE_MTurk/MX_fS_HTML.html#237,237,1280,585,1280,720,1-8-2024,19-31-30,41,VR_target_stimuli/s47_0.75x_3.45_366.png,1000,0.75x,3.45,4,7181,986,meters,jsons/MX_seq27_2_VE1000.json,379262,518617,28,Woman
41,396563,final-intermixed-textured,v2,jsons/MX_seq27_2_VE1000.json,http://54.235.29.9/FacialAge/BNav_EC2/DepthDuration/MX_fS_VE_MTurk/MX_fS_HTML.html#237,237,1280,585,1280,720,1-8-2024,19-31-30,42,VR_target_stimuli/s29_1x_1.3_250_BC.png,1000,1x,1.3,2,6134,996,meters,jsons/MX_seq27_2_VE1000.json,379262,518617,28,Woman
42,396563,final-intermixed-textured,v2,jsons/MX_seq27_2_VE1000.json,http://54.235.29.9/FacialAge/BNav_EC2/DepthDuration/MX_fS_VE_MTurk/MX_fS_HTML.html#237,237,1280,585,1280,720,1-8-2024,19-31-30,43,VR_target_stimuli/s28_1.3x_3.2_365_BC.png,1000,1.3x,3.2,4,4620,1007,meters,jsons/MX_seq27_2_VE1000.json,379262,518617,28,Woman
43,396563,final-intermixed-textured,v2,jsons/MX_seq27_2_VE1000.json,http://54.235.29.9/FacialAge/BNav_EC2/DepthDuration/MX_fS_VE_MTurk/MX_fS_HTML.html#237,237,1280,585,1280,720,1-8-2024,19-31-30,44,VR_target_stimuli/s48_1x_2.55_256.png,1000,1x,2.55,5,5977,1008,meters,jsons/MX_seq27_2_VE1000.json,379262,518617,28,Woman
44,396563,final-intermixed-textured,v2,jsons/MX_seq27_2_VE1000.json,http://54.235.29.9/FacialAge/BNav_EC2/DepthDuration/MX_fS_VE_MTurk/MX_fS_HTML.html#237,237,1280,585,1280,720,1-8-2024,19-31-30,45,catch_stimuli/c4.png,1000,,,0,4666,999,meters,jsons/MX_seq27_2_VE1000.json,379262,518617,28,Woman
45,396563,final-intermixed-textured,v2,jsons/MX_seq27_2_VE1000.json,http://54.235.29.9/FacialAge/BNav_EC2/DepthDuration/MX_fS_VE_MTurk/MX_fS_HTML.html#237,237,1280,585,1280,720,1-8-2024,19-31-30,46,VR_target_stimuli/s19_0.75x_1.21_257_BC.png,1000,0.75x,1.21,3,4622,1011,meters,jsons/MX_seq27_2_VE1000.json,379262,518617,28,Woman
46,396563,final-intermixed-textured,v2,jsons/MX_seq27_2_VE1000.json,http://54.235.29.9/FacialAge/BNav_EC2/DepthDuration/MX_fS_VE_MTurk/MX_fS_HTML.html#237,237,1280,585,1280,720,1-8-2024,19-31-30,47,VR_target_stimuli/s21_1.3x_4.22_384.png,1000,1.3x,4.22,2,7636,1002,meters,jsons/MX_seq27_2_VE1000.json,379262,518617,28,Woman
47,396563,final-intermixed-textured,v2,jsons/MX_seq27_2_VE1000.json,http://54.235.29.9/FacialAge/BNav_EC2/DepthDuration/MX_fS_VE_MTurk/MX_fS_HTML.html#237,237,1280,585,1280,720,1-8-2024,19-31-30,48,VR_target_stimuli/s8_1.3x_3.1_345.png,1000,1.3x,3.1,7,5102,998,meters,jsons/MX_seq27_2_VE1000.json,379262,518617,28,Woman
48,396563,final-intermixed-textured,v2,jsons/MX_seq27_2_VE1000.json,http://54.235.29.9/FacialAge/BNav_EC2/DepthDuration/MX_fS_VE_MTurk/MX_fS_HTML.html#237,237,1280,585,1280,720,1-8-2024,19-31-30,49,VR_target_stimuli/s27_1x_1.76_248_BC.png,1000,1x,1.76,3,5274,997,meters,jsons/MX_seq27_2_VE1000.json,379262,518617,28,Woman
49,396563,final-intermixed-textured,v2,jsons/MX_seq27_2_VE1000.json,http://54.235.29.9/FacialAge/BNav_EC2/DepthDuration/MX_fS_VE_MTurk/MX_fS_HTML.html#237,237,1280,585,1280,720,1-8-2024,19-31-30,50,VR_target_stimuli/s15_0.75x_4.2_388.png,1000,0.75x,4.2,6,4499,1004,meters,jsons/MX_seq27_2_VE1000.json,379262,518617,28,Woman
50,396563,final-intermixed-textured,v2,jsons/MX_seq27_2_VE1000.json,http://54.235.29.9/FacialAge/BNav_EC2/DepthDuration/MX_fS_VE_MTurk/MX_fS_HTML.html#237,237,1280,585,1280,720,1-8-2024,19-31-30,51,VR_target_stimuli/s4_1x_1.4_313.png,1000,1x,1.4,2,4806,998,meters,jsons/MX_seq27_2_VE1000.json,379262,518617,28,Woman
51,396563,final-intermixed-textured,v2,jsons/MX_seq27_2_VE1000.json,http://54.235.29.9/FacialAge/BNav_EC2/DepthDuration/MX_fS_VE_MTurk/MX_fS_HTML.html#237,237,1280,585,1280,720,1-8-2024,19-31-30,52,VR_target_stimuli/s35_1.3x_2_338_BC.png,1000,1.3x,2.0,3,5736,1000,meters,jsons/MX_seq27_2_VE1000.json,379262,518617,28,Woman
52,396563,final-intermixed-textured,v2,jsons/MX_seq27_2_VE1000.json,http://54.235.29.9/FacialAge/BNav_EC2/DepthDuration/MX_fS_VE_MTurk/MX_fS_HTML.html#237,237,1280,585,1280,720,1-8-2024,19-31-30,53,catch_stimuli/c5.png,1000,,,0,4466,1002,meters,jsons/MX_seq27_2_VE1000.json,379262,518617,28,Woman
53,396563,final-intermixed-textured,v2,jsons/MX_seq27_2_VE1000.json,http://54.235.29.9/FacialAge/BNav_EC2/DepthDuration/MX_fS_VE_MTurk/MX_fS_HTML.html#237,237,1280,585,1280,720,1-8-2024,19-31-30,54,VR_target_stimuli/s49_0.75x_4.67_328_BC.png,1000,0.75x,4.67,5,5467,999,meters,jsons/MX_seq27_2_VE1000.json,379262,518617,28,Woman
54,396563,final-intermixed-textured,v2,jsons/MX_seq27_2_VE1000.json,http://54.235.29.9/FacialAge/BNav_EC2/DepthDuration/MX_fS_VE_MTurk/MX_fS_HTML.html#237,237,1280,585,1280,720,1-8-2024,19-31-30,55,VR_target_stimuli/s7_1.3x_1.5_256.png,1000,1.3x,1.5,2,4282,999,meters,jsons/MX_seq27_2_VE1000.json,379262,518617,28,Woman
55,396563,final-intermixed-textured,v2,jsons/MX_seq27_2_VE1000.json,http://54.235.29.9/FacialAge/BNav_EC2/DepthDuration/MX_fS_VE_MTurk/MX_fS_HTML.html#237,237,1280,585,1280,720,1-8-2024,19-31-30,56,VR_target_stimuli/s20_1x_4.99_398_BC.png,1000,1x,4.99,8,6037,1009,meters,jsons/MX_seq27_2_VE1000.json,379262,518617,28,Woman
56,396563,final-intermixed-textured,v2,jsons/MX_seq27_2_VE1000.json,http://54.235.29.9/FacialAge/BNav_EC2/DepthDuration/MX_fS_VE_MTurk/MX_fS_HTML.html#237,237,1280,585,1280,720,1-8-2024,19-31-30,57,VR_target_stimuli/s31_0.75x_4.96_329.png,1000,0.75x,4.96,7,5261,975,meters,jsons/MX_seq27_2_VE1000.json,379262,518617,28,Woman
57,396563,final-intermixed-textured,v2,jsons/MX_seq27_2_VE1000.json,http://54.235.29.9/FacialAge/BNav_EC2/DepthDuration/MX_fS_VE_MTurk/MX_fS_HTML.html#237,237,1280,585,1280,720,1-8-2024,19-31-30,58,VR_target_stimuli/s33_0.75x_3.1_361_BC.png,1000,0.75x,3.1,8,5043,987,meters,jsons/MX_seq27_2_VE1000.json,379262,518617,28,Woman
58,396563,final-intermixed-textured,v2,jsons/MX_seq27_2_VE1000.json,http://54.235.29.9/FacialAge/BNav_EC2/DepthDuration/MX_fS_VE_MTurk/MX_fS_HTML.html#237,237,1280,585,1280,720,1-8-2024,19-31-30,59,VR_target_stimuli/s52_1.3x_3.2_280_BC.png,1000,1.3x,3.2,3,4447,1002,meters,jsons/MX_seq27_2_VE1000.json,379262,518617,28,Woman
59,396563,final-intermixed-textured,v2,jsons/MX_seq27_2_VE1000.json,http://54.235.29.9/FacialAge/BNav_EC2/DepthDuration/MX_fS_VE_MTurk/MX_fS_HTML.html#237,237,1280,585,1280,720,1-8-2024,19-31-30,60,VR_target_stimuli/s32_1x_1.5_218.png,1000,1x,1.5,4,6334,1000,meters,jsons/MX_seq27_2_VE1000.json,379262,518617,28,Woman
