,subjID,experimentName,versionName,sequenceName,url,selected_row,windowWidth,windowHeight,screenWidth,screenHeight,startDate,startTime,trial,stimulus,duration,scale,actual_depth,depth_estimate,trial_RT,log_sceneDuration,unitSelection,seq_filepath,experimentTime,totalTime,age,gender
0,405453,final-intermixed-textured,v2,jsons/MX_seq21_0_VE1000.json,http://54.235.29.9/FacialAge/BNav_EC2/DepthDuration/MX_fS_VE_MTurk/MX_fS_HTML.html#214,214,1366,768,1366,768,1-8-2024,21-45-26,1,VR_target_stimuli/s7_0.75x_1.5_253_BC.png,1000,0.75x,1.5,1.0,6017,1000,meters,jsons/MX_seq21_0_VE1000.json,330721,599854,35,Man
1,405453,final-intermixed-textured,v2,jsons/MX_seq21_0_VE1000.json,http://54.235.29.9/FacialAge/BNav_EC2/DepthDuration/MX_fS_VE_MTurk/MX_fS_HTML.html#214,214,1366,768,1366,768,1-8-2024,21-45-26,2,VR_target_stimuli/s20_1x_4.99_398_BC.png,1000,1x,4.99,0.0,4639,999,meters,jsons/MX_seq21_0_VE1000.json,330721,599854,35,Man
2,405453,final-intermixed-textured,v2,jsons/MX_seq21_0_VE1000.json,http://54.235.29.9/FacialAge/BNav_EC2/DepthDuration/MX_fS_VE_MTurk/MX_fS_HTML.html#214,214,1366,768,1366,768,1-8-2024,21-45-26,3,VR_target_stimuli/s31_1.3x_4.96_342_BC.png,1000,1.3x,4.96,0.0,4072,999,meters,jsons/MX_seq21_0_VE1000.json,330721,599854,35,Man
3,405453,final-intermixed-textured,v2,jsons/MX_seq21_0_VE1000.json,http://54.235.29.9/FacialAge/BNav_EC2/DepthDuration/MX_fS_VE_MTurk/MX_fS_HTML.html#214,214,1366,768,1366,768,1-8-2024,21-45-26,4,VR_target_stimuli/s33_1x_3.1_366.png,1000,1x,3.1,0.0,4064,999,meters,jsons/MX_seq21_0_VE1000.json,330721,599854,35,Man
4,405453,final-intermixed-textured,v2,jsons/MX_seq21_0_VE1000.json,http://54.235.29.9/FacialAge/BNav_EC2/DepthDuration/MX_fS_VE_MTurk/MX_fS_HTML.html#214,214,1366,768,1366,768,1-8-2024,21-45-26,5,VR_target_stimuli/s52_0.75x_3.2_270.png,1000,0.75x,3.2,0.2,13994,999,meters,jsons/MX_seq21_0_VE1000.json,330721,599854,35,Man
5,405453,final-intermixed-textured,v2,jsons/MX_seq21_0_VE1000.json,http://54.235.29.9/FacialAge/BNav_EC2/DepthDuration/MX_fS_VE_MTurk/MX_fS_HTML.html#214,214,1366,768,1366,768,1-8-2024,21-45-26,6,VR_target_stimuli/s32_1.3x_1.5_224.png,1000,1.3x,1.5,0.0,3699,999,meters,jsons/MX_seq21_0_VE1000.json,330721,599854,35,Man
6,405453,final-intermixed-textured,v2,jsons/MX_seq21_0_VE1000.json,http://54.235.29.9/FacialAge/BNav_EC2/DepthDuration/MX_fS_VE_MTurk/MX_fS_HTML.html#214,214,1366,768,1366,768,1-8-2024,21-45-26,7,catch_stimuli/c0.png,1000,,,0.0,3609,999,meters,jsons/MX_seq21_0_VE1000.json,330721,599854,35,Man
7,405453,final-intermixed-textured,v2,jsons/MX_seq21_0_VE1000.json,http://54.235.29.9/FacialAge/BNav_EC2/DepthDuration/MX_fS_VE_MTurk/MX_fS_HTML.html#214,214,1366,768,1366,768,1-8-2024,21-45-26,8,VR_target_stimuli/s18_1.3x_2.25_368_BC.png,1000,1.3x,2.25,0.0,4011,999,meters,jsons/MX_seq21_0_VE1000.json,330721,599854,35,Man
8,405453,final-intermixed-textured,v2,jsons/MX_seq21_0_VE1000.json,http://54.235.29.9/FacialAge/BNav_EC2/DepthDuration/MX_fS_VE_MTurk/MX_fS_HTML.html#214,214,1366,768,1366,768,1-8-2024,21-45-26,9,VR_target_stimuli/s39_1x_1_207_BC.png,1000,1x,1.0,0.0,3820,998,meters,jsons/MX_seq21_0_VE1000.json,330721,599854,35,Man
9,405453,final-intermixed-textured,v2,jsons/MX_seq21_0_VE1000.json,http://54.235.29.9/FacialAge/BNav_EC2/DepthDuration/MX_fS_VE_MTurk/MX_fS_HTML.html#214,214,1366,768,1366,768,1-8-2024,21-45-26,10,VR_target_stimuli/s51_0.75x_3.64_460.png,1000,0.75x,3.64,0.1,7047,1001,meters,jsons/MX_seq21_0_VE1000.json,330721,599854,35,Man
10,405453,final-intermixed-textured,v2,jsons/MX_seq21_0_VE1000.json,http://54.235.29.9/FacialAge/BNav_EC2/DepthDuration/MX_fS_VE_MTurk/MX_fS_HTML.html#214,214,1366,768,1366,768,1-8-2024,21-45-26,11,VR_target_stimuli/s43_1x_2.2_354.png,1000,1x,2.2,0.0,4658,999,meters,jsons/MX_seq21_0_VE1000.json,330721,599854,35,Man
11,405453,final-intermixed-textured,v2,jsons/MX_seq21_0_VE1000.json,http://54.235.29.9/FacialAge/BNav_EC2/DepthDuration/MX_fS_VE_MTurk/MX_fS_HTML.html#214,214,1366,768,1366,768,1-8-2024,21-45-26,12,VR_target_stimuli/s24_1.3x_3.3_352.png,1000,1.3x,3.3,0.0,4115,1000,meters,jsons/MX_seq21_0_VE1000.json,330721,599854,35,Man
12,405453,final-intermixed-textured,v2,jsons/MX_seq21_0_VE1000.json,http://54.235.29.9/FacialAge/BNav_EC2/DepthDuration/MX_fS_VE_MTurk/MX_fS_HTML.html#214,214,1366,768,1366,768,1-8-2024,21-45-26,13,VR_target_stimuli/s10_0.75x_2.7_321_BC.png,1000,0.75x,2.7,0.0,3915,999,meters,jsons/MX_seq21_0_VE1000.json,330721,599854,35,Man
13,405453,final-intermixed-textured,v2,jsons/MX_seq21_0_VE1000.json,http://54.235.29.9/FacialAge/BNav_EC2/DepthDuration/MX_fS_VE_MTurk/MX_fS_HTML.html#214,214,1366,768,1366,768,1-8-2024,21-45-26,14,VR_target_stimuli/s36_1.3x_4.1_442_BC.png,1000,1.3x,4.1,0.0,4699,999,meters,jsons/MX_seq21_0_VE1000.json,330721,599854,35,Man
14,405453,final-intermixed-textured,v2,jsons/MX_seq21_0_VE1000.json,http://54.235.29.9/FacialAge/BNav_EC2/DepthDuration/MX_fS_VE_MTurk/MX_fS_HTML.html#214,214,1366,768,1366,768,1-8-2024,21-45-26,15,VR_target_stimuli/s40_1x_1.2_319_BC.png,1000,1x,1.2,1.0,8789,999,meters,jsons/MX_seq21_0_VE1000.json,330721,599854,35,Man
15,405453,final-intermixed-textured,v2,jsons/MX_seq21_0_VE1000.json,http://54.235.29.9/FacialAge/BNav_EC2/DepthDuration/MX_fS_VE_MTurk/MX_fS_HTML.html#214,214,1366,768,1366,768,1-8-2024,21-45-26,16,VR_target_stimuli/s41_0.75x_2.1_281.png,1000,0.75x,2.1,0.0,4122,1000,meters,jsons/MX_seq21_0_VE1000.json,330721,599854,35,Man
16,405453,final-intermixed-textured,v2,jsons/MX_seq21_0_VE1000.json,http://54.235.29.9/FacialAge/BNav_EC2/DepthDuration/MX_fS_VE_MTurk/MX_fS_HTML.html#214,214,1366,768,1366,768,1-8-2024,21-45-26,17,catch_stimuli/c1.png,1000,,,0.0,3262,996,meters,jsons/MX_seq21_0_VE1000.json,330721,599854,35,Man
17,405453,final-intermixed-textured,v2,jsons/MX_seq21_0_VE1000.json,http://54.235.29.9/FacialAge/BNav_EC2/DepthDuration/MX_fS_VE_MTurk/MX_fS_HTML.html#214,214,1366,768,1366,768,1-8-2024,21-45-26,18,VR_target_stimuli/s45_0.75x_3.5_362_BC.png,1000,0.75x,3.5,0.0,3463,997,meters,jsons/MX_seq21_0_VE1000.json,330721,599854,35,Man
18,405453,final-intermixed-textured,v2,jsons/MX_seq21_0_VE1000.json,http://54.235.29.9/FacialAge/BNav_EC2/DepthDuration/MX_fS_VE_MTurk/MX_fS_HTML.html#214,214,1366,768,1366,768,1-8-2024,21-45-26,19,VR_target_stimuli/s23_1.3x_3.65_354.png,1000,1.3x,3.65,0.2,8984,999,meters,jsons/MX_seq21_0_VE1000.json,330721,599854,35,Man
19,405453,final-intermixed-textured,v2,jsons/MX_seq21_0_VE1000.json,http://54.235.29.9/FacialAge/BNav_EC2/DepthDuration/MX_fS_VE_MTurk/MX_fS_HTML.html#214,214,1366,768,1366,768,1-8-2024,21-45-26,20,VR_target_stimuli/s26_1x_4_433.png,1000,1x,4.0,0.0,3432,998,meters,jsons/MX_seq21_0_VE1000.json,330721,599854,35,Man
20,405453,final-intermixed-textured,v2,jsons/MX_seq21_0_VE1000.json,http://54.235.29.9/FacialAge/BNav_EC2/DepthDuration/MX_fS_VE_MTurk/MX_fS_HTML.html#214,214,1366,768,1366,768,1-8-2024,21-45-26,21,VR_target_stimuli/s12_1.3x_3.1_375.png,1000,1.3x,3.1,1.0,6539,1000,meters,jsons/MX_seq21_0_VE1000.json,330721,599854,35,Man
21,405453,final-intermixed-textured,v2,jsons/MX_seq21_0_VE1000.json,http://54.235.29.9/FacialAge/BNav_EC2/DepthDuration/MX_fS_VE_MTurk/MX_fS_HTML.html#214,214,1366,768,1366,768,1-8-2024,21-45-26,22,VR_target_stimuli/s30_0.75x_2.3_332.png,1000,0.75x,2.3,0.0,3479,999,meters,jsons/MX_seq21_0_VE1000.json,330721,599854,35,Man
22,405453,final-intermixed-textured,v2,jsons/MX_seq21_0_VE1000.json,http://54.235.29.9/FacialAge/BNav_EC2/DepthDuration/MX_fS_VE_MTurk/MX_fS_HTML.html#214,214,1366,768,1366,768,1-8-2024,21-45-26,23,VR_target_stimuli/s16_1x_1_219_BC.png,1000,1x,1.0,0.0,3598,1000,meters,jsons/MX_seq21_0_VE1000.json,330721,599854,35,Man
23,405453,final-intermixed-textured,v2,jsons/MX_seq21_0_VE1000.json,http://54.235.29.9/FacialAge/BNav_EC2/DepthDuration/MX_fS_VE_MTurk/MX_fS_HTML.html#214,214,1366,768,1366,768,1-8-2024,21-45-26,24,VR_target_stimuli/s17_0.75x_1.8_285_BC.png,1000,0.75x,1.8,0.2,5166,999,meters,jsons/MX_seq21_0_VE1000.json,330721,599854,35,Man
24,405453,final-intermixed-textured,v2,jsons/MX_seq21_0_VE1000.json,http://54.235.29.9/FacialAge/BNav_EC2/DepthDuration/MX_fS_VE_MTurk/MX_fS_HTML.html#214,214,1366,768,1366,768,1-8-2024,21-45-26,25,VR_target_stimuli/s5_1.3x_4_393_BC.png,1000,1.3x,4.0,0.3,7005,999,meters,jsons/MX_seq21_0_VE1000.json,330721,599854,35,Man
25,405453,final-intermixed-textured,v2,jsons/MX_seq21_0_VE1000.json,http://54.235.29.9/FacialAge/BNav_EC2/DepthDuration/MX_fS_VE_MTurk/MX_fS_HTML.html#214,214,1366,768,1366,768,1-8-2024,21-45-26,26,catch_stimuli/c2.png,1000,,,0.0,3151,998,meters,jsons/MX_seq21_0_VE1000.json,330721,599854,35,Man
26,405453,final-intermixed-textured,v2,jsons/MX_seq21_0_VE1000.json,http://54.235.29.9/FacialAge/BNav_EC2/DepthDuration/MX_fS_VE_MTurk/MX_fS_HTML.html#214,214,1366,768,1366,768,1-8-2024,21-45-26,27,VR_target_stimuli/s37_1x_3.3_563.png,1000,1x,3.3,0.0,3555,1000,meters,jsons/MX_seq21_0_VE1000.json,330721,599854,35,Man
27,405453,final-intermixed-textured,v2,jsons/MX_seq21_0_VE1000.json,http://54.235.29.9/FacialAge/BNav_EC2/DepthDuration/MX_fS_VE_MTurk/MX_fS_HTML.html#214,214,1366,768,1366,768,1-8-2024,21-45-26,28,VR_target_stimuli/s46_1x_2.42_348_BC.png,1000,1x,2.42,0.3,6899,999,meters,jsons/MX_seq21_0_VE1000.json,330721,599854,35,Man
28,405453,final-intermixed-textured,v2,jsons/MX_seq21_0_VE1000.json,http://54.235.29.9/FacialAge/BNav_EC2/DepthDuration/MX_fS_VE_MTurk/MX_fS_HTML.html#214,214,1366,768,1366,768,1-8-2024,21-45-26,29,VR_target_stimuli/s22_0.75x_4.29_348.png,1000,0.75x,4.29,0.2,5766,1000,meters,jsons/MX_seq21_0_VE1000.json,330721,599854,35,Man
29,405453,final-intermixed-textured,v2,jsons/MX_seq21_0_VE1000.json,http://54.235.29.9/FacialAge/BNav_EC2/DepthDuration/MX_fS_VE_MTurk/MX_fS_HTML.html#214,214,1366,768,1366,768,1-8-2024,21-45-26,30,VR_target_stimuli/s42_1.3x_3.2_305.png,1000,1.3x,3.2,0.0,3477,1000,meters,jsons/MX_seq21_0_VE1000.json,330721,599854,35,Man
30,405453,final-intermixed-textured,v2,jsons/MX_seq21_0_VE1000.json,http://54.235.29.9/FacialAge/BNav_EC2/DepthDuration/MX_fS_VE_MTurk/MX_fS_HTML.html#214,214,1366,768,1366,768,1-8-2024,21-45-26,31,VR_target_stimuli/s25_1x_1.4_290.png,1000,1x,1.4,0.0,4142,999,meters,jsons/MX_seq21_0_VE1000.json,330721,599854,35,Man
31,405453,final-intermixed-textured,v2,jsons/MX_seq21_0_VE1000.json,http://54.235.29.9/FacialAge/BNav_EC2/DepthDuration/MX_fS_VE_MTurk/MX_fS_HTML.html#214,214,1366,768,1366,768,1-8-2024,21-45-26,32,VR_target_stimuli/s50_1.3x_4.53_518_BC.png,1000,1.3x,4.53,0.0,8308,999,meters,jsons/MX_seq21_0_VE1000.json,330721,599854,35,Man
32,405453,final-intermixed-textured,v2,jsons/MX_seq21_0_VE1000.json,http://54.235.29.9/FacialAge/BNav_EC2/DepthDuration/MX_fS_VE_MTurk/MX_fS_HTML.html#214,214,1366,768,1366,768,1-8-2024,21-45-26,33,VR_target_stimuli/s53_0.75x_1.6_403_BC.png,1000,0.75x,1.6,0.1,8064,999,meters,jsons/MX_seq21_0_VE1000.json,330721,599854,35,Man
33,405453,final-intermixed-textured,v2,jsons/MX_seq21_0_VE1000.json,http://54.235.29.9/FacialAge/BNav_EC2/DepthDuration/MX_fS_VE_MTurk/MX_fS_HTML.html#214,214,1366,768,1366,768,1-8-2024,21-45-26,34,catch_stimuli/c3.png,1000,,,0.0,3562,999,meters,jsons/MX_seq21_0_VE1000.json,330721,599854,35,Man
34,405453,final-intermixed-textured,v2,jsons/MX_seq21_0_VE1000.json,http://54.235.29.9/FacialAge/BNav_EC2/DepthDuration/MX_fS_VE_MTurk/MX_fS_HTML.html#214,214,1366,768,1366,768,1-8-2024,21-45-26,35,VR_target_stimuli/s38_1.3x_3.55_358_BC.png,1000,1.3x,3.55,0.1,5307,1000,meters,jsons/MX_seq21_0_VE1000.json,330721,599854,35,Man
35,405453,final-intermixed-textured,v2,jsons/MX_seq21_0_VE1000.json,http://54.235.29.9/FacialAge/BNav_EC2/DepthDuration/MX_fS_VE_MTurk/MX_fS_HTML.html#214,214,1366,768,1366,768,1-8-2024,21-45-26,36,VR_target_stimuli/s9_1x_1.2_263_BC.png,1000,1x,1.2,0.0,3608,999,meters,jsons/MX_seq21_0_VE1000.json,330721,599854,35,Man
36,405453,final-intermixed-textured,v2,jsons/MX_seq21_0_VE1000.json,http://54.235.29.9/FacialAge/BNav_EC2/DepthDuration/MX_fS_VE_MTurk/MX_fS_HTML.html#214,214,1366,768,1366,768,1-8-2024,21-45-26,37,VR_target_stimuli/s44_0.75x_4.4_314.png,1000,0.75x,4.4,1.0,5070,999,meters,jsons/MX_seq21_0_VE1000.json,330721,599854,35,Man
37,405453,final-intermixed-textured,v2,jsons/MX_seq21_0_VE1000.json,http://54.235.29.9/FacialAge/BNav_EC2/DepthDuration/MX_fS_VE_MTurk/MX_fS_HTML.html#214,214,1366,768,1366,768,1-8-2024,21-45-26,38,VR_target_stimuli/s3_0.75x_5_381_BC.png,1000,0.75x,5.0,0.0,7870,998,meters,jsons/MX_seq21_0_VE1000.json,330721,599854,35,Man
38,405453,final-intermixed-textured,v2,jsons/MX_seq21_0_VE1000.json,http://54.235.29.9/FacialAge/BNav_EC2/DepthDuration/MX_fS_VE_MTurk/MX_fS_HTML.html#214,214,1366,768,1366,768,1-8-2024,21-45-26,39,VR_target_stimuli/s1_1.3x_1.7_261.png,1000,1.3x,1.7,0.1,5054,1000,meters,jsons/MX_seq21_0_VE1000.json,330721,599854,35,Man
39,405453,final-intermixed-textured,v2,jsons/MX_seq21_0_VE1000.json,http://54.235.29.9/FacialAge/BNav_EC2/DepthDuration/MX_fS_VE_MTurk/MX_fS_HTML.html#214,214,1366,768,1366,768,1-8-2024,21-45-26,40,VR_target_stimuli/s11_1x_5_361.png,1000,1x,5.0,0.2,4972,1000,meters,jsons/MX_seq21_0_VE1000.json,330721,599854,35,Man
40,405453,final-intermixed-textured,v2,jsons/MX_seq21_0_VE1000.json,http://54.235.29.9/FacialAge/BNav_EC2/DepthDuration/MX_fS_VE_MTurk/MX_fS_HTML.html#214,214,1366,768,1366,768,1-8-2024,21-45-26,41,VR_target_stimuli/s2_1.3x_2.7_397_BC.png,1000,1.3x,2.7,0.1,4662,1000,meters,jsons/MX_seq21_0_VE1000.json,330721,599854,35,Man
41,405453,final-intermixed-textured,v2,jsons/MX_seq21_0_VE1000.json,http://54.235.29.9/FacialAge/BNav_EC2/DepthDuration/MX_fS_VE_MTurk/MX_fS_HTML.html#214,214,1366,768,1366,768,1-8-2024,21-45-26,42,VR_target_stimuli/s6_0.75x_2.1_290_BC.png,1000,0.75x,2.1,0.0,4692,1000,meters,jsons/MX_seq21_0_VE1000.json,330721,599854,35,Man
42,405453,final-intermixed-textured,v2,jsons/MX_seq21_0_VE1000.json,http://54.235.29.9/FacialAge/BNav_EC2/DepthDuration/MX_fS_VE_MTurk/MX_fS_HTML.html#214,214,1366,768,1366,768,1-8-2024,21-45-26,43,VR_target_stimuli/s0_1x_2.6_351.png,1000,1x,2.6,0.1,5303,1001,meters,jsons/MX_seq21_0_VE1000.json,330721,599854,35,Man
43,405453,final-intermixed-textured,v2,jsons/MX_seq21_0_VE1000.json,http://54.235.29.9/FacialAge/BNav_EC2/DepthDuration/MX_fS_VE_MTurk/MX_fS_HTML.html#214,214,1366,768,1366,768,1-8-2024,21-45-26,44,VR_target_stimuli/s34_0.75x_2.8_269.png,1000,0.75x,2.8,1.0,4263,999,meters,jsons/MX_seq21_0_VE1000.json,330721,599854,35,Man
44,405453,final-intermixed-textured,v2,jsons/MX_seq21_0_VE1000.json,http://54.235.29.9/FacialAge/BNav_EC2/DepthDuration/MX_fS_VE_MTurk/MX_fS_HTML.html#214,214,1366,768,1366,768,1-8-2024,21-45-26,45,catch_stimuli/c4.png,1000,,,0.0,4016,998,meters,jsons/MX_seq21_0_VE1000.json,330721,599854,35,Man
45,405453,final-intermixed-textured,v2,jsons/MX_seq21_0_VE1000.json,http://54.235.29.9/FacialAge/BNav_EC2/DepthDuration/MX_fS_VE_MTurk/MX_fS_HTML.html#214,214,1366,768,1366,768,1-8-2024,21-45-26,46,VR_target_stimuli/s13_1.3x_2.4_313.png,1000,1.3x,2.4,0.1,4510,1000,meters,jsons/MX_seq21_0_VE1000.json,330721,599854,35,Man
46,405453,final-intermixed-textured,v2,jsons/MX_seq21_0_VE1000.json,http://54.235.29.9/FacialAge/BNav_EC2/DepthDuration/MX_fS_VE_MTurk/MX_fS_HTML.html#214,214,1366,768,1366,768,1-8-2024,21-45-26,47,VR_target_stimuli/s14_1x_ 3.83_357_BC.png,1000,1x,3.83,0.1,7228,1000,meters,jsons/MX_seq21_0_VE1000.json,330721,599854,35,Man
47,405453,final-intermixed-textured,v2,jsons/MX_seq21_0_VE1000.json,http://54.235.29.9/FacialAge/BNav_EC2/DepthDuration/MX_fS_VE_MTurk/MX_fS_HTML.html#214,214,1366,768,1366,768,1-8-2024,21-45-26,48,VR_target_stimuli/s47_1x_3.45_370.png,1000,1x,3.45,0.2,4256,999,meters,jsons/MX_seq21_0_VE1000.json,330721,599854,35,Man
48,405453,final-intermixed-textured,v2,jsons/MX_seq21_0_VE1000.json,http://54.235.29.9/FacialAge/BNav_EC2/DepthDuration/MX_fS_VE_MTurk/MX_fS_HTML.html#214,214,1366,768,1366,768,1-8-2024,21-45-26,49,VR_target_stimuli/s29_0.75x_1.3_246_BC.png,1000,0.75x,1.3,0.3,4857,999,meters,jsons/MX_seq21_0_VE1000.json,330721,599854,35,Man
49,405453,final-intermixed-textured,v2,jsons/MX_seq21_0_VE1000.json,http://54.235.29.9/FacialAge/BNav_EC2/DepthDuration/MX_fS_VE_MTurk/MX_fS_HTML.html#214,214,1366,768,1366,768,1-8-2024,21-45-26,50,VR_target_stimuli/s28_1.3x_3.2_365.png,1000,1.3x,3.2,0.1,4351,1000,meters,jsons/MX_seq21_0_VE1000.json,330721,599854,35,Man
50,405453,final-intermixed-textured,v2,jsons/MX_seq21_0_VE1000.json,http://54.235.29.9/FacialAge/BNav_EC2/DepthDuration/MX_fS_VE_MTurk/MX_fS_HTML.html#214,214,1366,768,1366,768,1-8-2024,21-45-26,51,VR_target_stimuli/s48_0.75x_2.55_243.png,1000,0.75x,2.55,1.0,3684,999,meters,jsons/MX_seq21_0_VE1000.json,330721,599854,35,Man
51,405453,final-intermixed-textured,v2,jsons/MX_seq21_0_VE1000.json,http://54.235.29.9/FacialAge/BNav_EC2/DepthDuration/MX_fS_VE_MTurk/MX_fS_HTML.html#214,214,1366,768,1366,768,1-8-2024,21-45-26,52,VR_target_stimuli/s19_1x_1.21_263_BC.png,1000,1x,1.21,0.0,3677,998,meters,jsons/MX_seq21_0_VE1000.json,330721,599854,35,Man
52,405453,final-intermixed-textured,v2,jsons/MX_seq21_0_VE1000.json,http://54.235.29.9/FacialAge/BNav_EC2/DepthDuration/MX_fS_VE_MTurk/MX_fS_HTML.html#214,214,1366,768,1366,768,1-8-2024,21-45-26,53,catch_stimuli/c5.png,1000,,,0.0,2975,998,meters,jsons/MX_seq21_0_VE1000.json,330721,599854,35,Man
53,405453,final-intermixed-textured,v2,jsons/MX_seq21_0_VE1000.json,http://54.235.29.9/FacialAge/BNav_EC2/DepthDuration/MX_fS_VE_MTurk/MX_fS_HTML.html#214,214,1366,768,1366,768,1-8-2024,21-45-26,54,VR_target_stimuli/s21_1.3x_4.22_384_BC.png,1000,1.3x,4.22,0.0,3638,1000,meters,jsons/MX_seq21_0_VE1000.json,330721,599854,35,Man
54,405453,final-intermixed-textured,v2,jsons/MX_seq21_0_VE1000.json,http://54.235.29.9/FacialAge/BNav_EC2/DepthDuration/MX_fS_VE_MTurk/MX_fS_HTML.html#214,214,1366,768,1366,768,1-8-2024,21-45-26,55,VR_target_stimuli/s8_1x_3.1_332_BC.png,1000,1x,3.1,0.2,5075,999,meters,jsons/MX_seq21_0_VE1000.json,330721,599854,35,Man
55,405453,final-intermixed-textured,v2,jsons/MX_seq21_0_VE1000.json,http://54.235.29.9/FacialAge/BNav_EC2/DepthDuration/MX_fS_VE_MTurk/MX_fS_HTML.html#214,214,1366,768,1366,768,1-8-2024,21-45-26,56,VR_target_stimuli/s27_0.75x_1.76_243_BC.png,1000,0.75x,1.76,0.1,5660,999,meters,jsons/MX_seq21_0_VE1000.json,330721,599854,35,Man
56,405453,final-intermixed-textured,v2,jsons/MX_seq21_0_VE1000.json,http://54.235.29.9/FacialAge/BNav_EC2/DepthDuration/MX_fS_VE_MTurk/MX_fS_HTML.html#214,214,1366,768,1366,768,1-8-2024,21-45-26,57,VR_target_stimuli/s15_1.3x_4.2_389.png,1000,1.3x,4.2,0.0,3569,1001,meters,jsons/MX_seq21_0_VE1000.json,330721,599854,35,Man
57,405453,final-intermixed-textured,v2,jsons/MX_seq21_0_VE1000.json,http://54.235.29.9/FacialAge/BNav_EC2/DepthDuration/MX_fS_VE_MTurk/MX_fS_HTML.html#214,214,1366,768,1366,768,1-8-2024,21-45-26,58,VR_target_stimuli/s4_1.3x_1.4_328_BC.png,1000,1.3x,1.4,0.1,4298,999,meters,jsons/MX_seq21_0_VE1000.json,330721,599854,35,Man
58,405453,final-intermixed-textured,v2,jsons/MX_seq21_0_VE1000.json,http://54.235.29.9/FacialAge/BNav_EC2/DepthDuration/MX_fS_VE_MTurk/MX_fS_HTML.html#214,214,1366,768,1366,768,1-8-2024,21-45-26,59,VR_target_stimuli/s35_1x_2_331.png,1000,1x,2.0,0.1,4512,1000,meters,jsons/MX_seq21_0_VE1000.json,330721,599854,35,Man
59,405453,final-intermixed-textured,v2,jsons/MX_seq21_0_VE1000.json,http://54.235.29.9/FacialAge/BNav_EC2/DepthDuration/MX_fS_VE_MTurk/MX_fS_HTML.html#214,214,1366,768,1366,768,1-8-2024,21-45-26,60,VR_target_stimuli/s49_0.75x_4.67_328.png,1000,0.75x,4.67,0.2,6373,999,meters,jsons/MX_seq21_0_VE1000.json,330721,599854,35,Man
