,subjID,experimentName,versionName,sequenceName,url,selected_row,windowWidth,windowHeight,screenWidth,screenHeight,startDate,startTime,trial,stimulus,duration,scale,actual_depth,depth_estimate,trial_RT,log_sceneDuration,unitSelection,seq_filepath,experimentTime,totalTime,age,gender
0,431967,final-intermixed-textured,v2,jsons/MX_seq21_1_VE1000.json,http://54.235.29.9/FacialAge/BNav_EC2/DepthDuration/MX_fS_VE_MTurk/MX_fS_HTML.html#23,23,1912,966,1920,1080,1-8-2024,18-44-43,1,VR_target_stimuli/s7_1.3x_1.5_256.png,1000,1.3x,1.5,2.0,4187,997,meters,jsons/MX_seq21_1_VE1000.json,241429,477908,26,Woman
1,431967,final-intermixed-textured,v2,jsons/MX_seq21_1_VE1000.json,http://54.235.29.9/FacialAge/BNav_EC2/DepthDuration/MX_fS_VE_MTurk/MX_fS_HTML.html#23,23,1912,966,1920,1080,1-8-2024,18-44-43,2,VR_target_stimuli/s20_0.75x_4.99_390.png,1000,0.75x,4.99,6.0,5220,997,meters,jsons/MX_seq21_1_VE1000.json,241429,477908,26,Woman
2,431967,final-intermixed-textured,v2,jsons/MX_seq21_1_VE1000.json,http://54.235.29.9/FacialAge/BNav_EC2/DepthDuration/MX_fS_VE_MTurk/MX_fS_HTML.html#23,23,1912,966,1920,1080,1-8-2024,18-44-43,3,VR_target_stimuli/s31_1x_4.96_333_BC.png,1000,1x,4.96,3.0,4150,986,meters,jsons/MX_seq21_1_VE1000.json,241429,477908,26,Woman
3,431967,final-intermixed-textured,v2,jsons/MX_seq21_1_VE1000.json,http://54.235.29.9/FacialAge/BNav_EC2/DepthDuration/MX_fS_VE_MTurk/MX_fS_HTML.html#23,23,1912,966,1920,1080,1-8-2024,18-44-43,4,VR_target_stimuli/s33_0.75x_3.1_361_BC.png,1000,0.75x,3.1,4.0,4002,1006,meters,jsons/MX_seq21_1_VE1000.json,241429,477908,26,Woman
4,431967,final-intermixed-textured,v2,jsons/MX_seq21_1_VE1000.json,http://54.235.29.9/FacialAge/BNav_EC2/DepthDuration/MX_fS_VE_MTurk/MX_fS_HTML.html#23,23,1912,966,1920,1080,1-8-2024,18-44-43,5,VR_target_stimuli/s52_1.3x_3.2_280_BC.png,1000,1.3x,3.2,4.5,5236,1010,meters,jsons/MX_seq21_1_VE1000.json,241429,477908,26,Woman
5,431967,final-intermixed-textured,v2,jsons/MX_seq21_1_VE1000.json,http://54.235.29.9/FacialAge/BNav_EC2/DepthDuration/MX_fS_VE_MTurk/MX_fS_HTML.html#23,23,1912,966,1920,1080,1-8-2024,18-44-43,6,VR_target_stimuli/s32_1x_1.5_218.png,1000,1x,1.5,2.5,4992,992,meters,jsons/MX_seq21_1_VE1000.json,241429,477908,26,Woman
6,431967,final-intermixed-textured,v2,jsons/MX_seq21_1_VE1000.json,http://54.235.29.9/FacialAge/BNav_EC2/DepthDuration/MX_fS_VE_MTurk/MX_fS_HTML.html#23,23,1912,966,1920,1080,1-8-2024,18-44-43,7,catch_stimuli/c0.png,1000,,,0.0,3340,1010,meters,jsons/MX_seq21_1_VE1000.json,241429,477908,26,Woman
7,431967,final-intermixed-textured,v2,jsons/MX_seq21_1_VE1000.json,http://54.235.29.9/FacialAge/BNav_EC2/DepthDuration/MX_fS_VE_MTurk/MX_fS_HTML.html#23,23,1912,966,1920,1080,1-8-2024,18-44-43,8,VR_target_stimuli/s18_1x_2.25_353.png,1000,1x,2.25,3.0,3890,999,meters,jsons/MX_seq21_1_VE1000.json,241429,477908,26,Woman
8,431967,final-intermixed-textured,v2,jsons/MX_seq21_1_VE1000.json,http://54.235.29.9/FacialAge/BNav_EC2/DepthDuration/MX_fS_VE_MTurk/MX_fS_HTML.html#23,23,1912,966,1920,1080,1-8-2024,18-44-43,9,VR_target_stimuli/s39_0.75x_1_205.png,1000,0.75x,1.0,2.0,3853,1006,meters,jsons/MX_seq21_1_VE1000.json,241429,477908,26,Woman
9,431967,final-intermixed-textured,v2,jsons/MX_seq21_1_VE1000.json,http://54.235.29.9/FacialAge/BNav_EC2/DepthDuration/MX_fS_VE_MTurk/MX_fS_HTML.html#23,23,1912,966,1920,1080,1-8-2024,18-44-43,10,VR_target_stimuli/s51_1.3x_3.64_479_BC.png,1000,1.3x,3.64,3.5,6073,1008,meters,jsons/MX_seq21_1_VE1000.json,241429,477908,26,Woman
10,431967,final-intermixed-textured,v2,jsons/MX_seq21_1_VE1000.json,http://54.235.29.9/FacialAge/BNav_EC2/DepthDuration/MX_fS_VE_MTurk/MX_fS_HTML.html#23,23,1912,966,1920,1080,1-8-2024,18-44-43,11,VR_target_stimuli/s43_0.75x_2.2_348_BC.png,1000,0.75x,2.2,5.0,4022,992,meters,jsons/MX_seq21_1_VE1000.json,241429,477908,26,Woman
11,431967,final-intermixed-textured,v2,jsons/MX_seq21_1_VE1000.json,http://54.235.29.9/FacialAge/BNav_EC2/DepthDuration/MX_fS_VE_MTurk/MX_fS_HTML.html#23,23,1912,966,1920,1080,1-8-2024,18-44-43,12,VR_target_stimuli/s24_1x_3.3_349_BC.png,1000,1x,3.3,4.0,3739,1011,meters,jsons/MX_seq21_1_VE1000.json,241429,477908,26,Woman
12,431967,final-intermixed-textured,v2,jsons/MX_seq21_1_VE1000.json,http://54.235.29.9/FacialAge/BNav_EC2/DepthDuration/MX_fS_VE_MTurk/MX_fS_HTML.html#23,23,1912,966,1920,1080,1-8-2024,18-44-43,13,VR_target_stimuli/s10_1.3x_2.7_325.png,1000,1.3x,2.7,3.0,3514,1001,meters,jsons/MX_seq21_1_VE1000.json,241429,477908,26,Woman
13,431967,final-intermixed-textured,v2,jsons/MX_seq21_1_VE1000.json,http://54.235.29.9/FacialAge/BNav_EC2/DepthDuration/MX_fS_VE_MTurk/MX_fS_HTML.html#23,23,1912,966,1920,1080,1-8-2024,18-44-43,14,VR_target_stimuli/s36_1x_4.1_423.png,1000,1x,4.1,7.0,5122,1009,meters,jsons/MX_seq21_1_VE1000.json,241429,477908,26,Woman
14,431967,final-intermixed-textured,v2,jsons/MX_seq21_1_VE1000.json,http://54.235.29.9/FacialAge/BNav_EC2/DepthDuration/MX_fS_VE_MTurk/MX_fS_HTML.html#23,23,1912,966,1920,1080,1-8-2024,18-44-43,15,VR_target_stimuli/s40_0.75x_1.2_308_BC.png,1000,0.75x,1.2,2.0,3819,1001,meters,jsons/MX_seq21_1_VE1000.json,241429,477908,26,Woman
15,431967,final-intermixed-textured,v2,jsons/MX_seq21_1_VE1000.json,http://54.235.29.9/FacialAge/BNav_EC2/DepthDuration/MX_fS_VE_MTurk/MX_fS_HTML.html#23,23,1912,966,1920,1080,1-8-2024,18-44-43,16,VR_target_stimuli/s41_1.3x_2.1_294_BC.png,1000,1.3x,2.1,3.0,3717,999,meters,jsons/MX_seq21_1_VE1000.json,241429,477908,26,Woman
16,431967,final-intermixed-textured,v2,jsons/MX_seq21_1_VE1000.json,http://54.235.29.9/FacialAge/BNav_EC2/DepthDuration/MX_fS_VE_MTurk/MX_fS_HTML.html#23,23,1912,966,1920,1080,1-8-2024,18-44-43,17,catch_stimuli/c1.png,1000,,,0.0,4104,1000,meters,jsons/MX_seq21_1_VE1000.json,241429,477908,26,Woman
17,431967,final-intermixed-textured,v2,jsons/MX_seq21_1_VE1000.json,http://54.235.29.9/FacialAge/BNav_EC2/DepthDuration/MX_fS_VE_MTurk/MX_fS_HTML.html#23,23,1912,966,1920,1080,1-8-2024,18-44-43,18,VR_target_stimuli/s45_1.3x_3.5_377.png,1000,1.3x,3.5,4.0,3873,1001,meters,jsons/MX_seq21_1_VE1000.json,241429,477908,26,Woman
18,431967,final-intermixed-textured,v2,jsons/MX_seq21_1_VE1000.json,http://54.235.29.9/FacialAge/BNav_EC2/DepthDuration/MX_fS_VE_MTurk/MX_fS_HTML.html#23,23,1912,966,1920,1080,1-8-2024,18-44-43,19,VR_target_stimuli/s23_1x_3.65_353_BC.png,1000,1x,3.65,3.5,4511,999,meters,jsons/MX_seq21_1_VE1000.json,241429,477908,26,Woman
19,431967,final-intermixed-textured,v2,jsons/MX_seq21_1_VE1000.json,http://54.235.29.9/FacialAge/BNav_EC2/DepthDuration/MX_fS_VE_MTurk/MX_fS_HTML.html#23,23,1912,966,1920,1080,1-8-2024,18-44-43,20,VR_target_stimuli/s26_0.75x_4_430.png,1000,0.75x,4.0,6.0,5950,998,meters,jsons/MX_seq21_1_VE1000.json,241429,477908,26,Woman
20,431967,final-intermixed-textured,v2,jsons/MX_seq21_1_VE1000.json,http://54.235.29.9/FacialAge/BNav_EC2/DepthDuration/MX_fS_VE_MTurk/MX_fS_HTML.html#23,23,1912,966,1920,1080,1-8-2024,18-44-43,21,VR_target_stimuli/s12_1x_3.1_372_BC.png,1000,1x,3.1,5.0,3641,993,meters,jsons/MX_seq21_1_VE1000.json,241429,477908,26,Woman
21,431967,final-intermixed-textured,v2,jsons/MX_seq21_1_VE1000.json,http://54.235.29.9/FacialAge/BNav_EC2/DepthDuration/MX_fS_VE_MTurk/MX_fS_HTML.html#23,23,1912,966,1920,1080,1-8-2024,18-44-43,22,VR_target_stimuli/s30_1.3x_2.3_337.png,1000,1.3x,2.3,4.0,5452,993,meters,jsons/MX_seq21_1_VE1000.json,241429,477908,26,Woman
22,431967,final-intermixed-textured,v2,jsons/MX_seq21_1_VE1000.json,http://54.235.29.9/FacialAge/BNav_EC2/DepthDuration/MX_fS_VE_MTurk/MX_fS_HTML.html#23,23,1912,966,1920,1080,1-8-2024,18-44-43,23,VR_target_stimuli/s16_0.75x_1_217_BC.png,1000,0.75x,1.0,2.0,5125,993,meters,jsons/MX_seq21_1_VE1000.json,241429,477908,26,Woman
23,431967,final-intermixed-textured,v2,jsons/MX_seq21_1_VE1000.json,http://54.235.29.9/FacialAge/BNav_EC2/DepthDuration/MX_fS_VE_MTurk/MX_fS_HTML.html#23,23,1912,966,1920,1080,1-8-2024,18-44-43,24,VR_target_stimuli/s17_1.3x_1.8_300_BC.png,1000,1.3x,1.8,3.0,3179,996,meters,jsons/MX_seq21_1_VE1000.json,241429,477908,26,Woman
24,431967,final-intermixed-textured,v2,jsons/MX_seq21_1_VE1000.json,http://54.235.29.9/FacialAge/BNav_EC2/DepthDuration/MX_fS_VE_MTurk/MX_fS_HTML.html#23,23,1912,966,1920,1080,1-8-2024,18-44-43,25,VR_target_stimuli/s5_1x_4_378.png,1000,1x,4.0,5.0,5043,992,meters,jsons/MX_seq21_1_VE1000.json,241429,477908,26,Woman
25,431967,final-intermixed-textured,v2,jsons/MX_seq21_1_VE1000.json,http://54.235.29.9/FacialAge/BNav_EC2/DepthDuration/MX_fS_VE_MTurk/MX_fS_HTML.html#23,23,1912,966,1920,1080,1-8-2024,18-44-43,26,catch_stimuli/c2.png,1000,,,0.0,2946,1001,meters,jsons/MX_seq21_1_VE1000.json,241429,477908,26,Woman
26,431967,final-intermixed-textured,v2,jsons/MX_seq21_1_VE1000.json,http://54.235.29.9/FacialAge/BNav_EC2/DepthDuration/MX_fS_VE_MTurk/MX_fS_HTML.html#23,23,1912,966,1920,1080,1-8-2024,18-44-43,27,VR_target_stimuli/s37_0.75x_3.3_567.png,1000,0.75x,3.3,3.0,2750,992,meters,jsons/MX_seq21_1_VE1000.json,241429,477908,26,Woman
27,431967,final-intermixed-textured,v2,jsons/MX_seq21_1_VE1000.json,http://54.235.29.9/FacialAge/BNav_EC2/DepthDuration/MX_fS_VE_MTurk/MX_fS_HTML.html#23,23,1912,966,1920,1080,1-8-2024,18-44-43,28,VR_target_stimuli/s46_0.75x_2.42_343_BC.png,1000,0.75x,2.42,5.0,2712,992,meters,jsons/MX_seq21_1_VE1000.json,241429,477908,26,Woman
28,431967,final-intermixed-textured,v2,jsons/MX_seq21_1_VE1000.json,http://54.235.29.9/FacialAge/BNav_EC2/DepthDuration/MX_fS_VE_MTurk/MX_fS_HTML.html#23,23,1912,966,1920,1080,1-8-2024,18-44-43,29,VR_target_stimuli/s22_1.3x_4.29_364.png,1000,1.3x,4.29,5.0,2752,1005,meters,jsons/MX_seq21_1_VE1000.json,241429,477908,26,Woman
29,431967,final-intermixed-textured,v2,jsons/MX_seq21_1_VE1000.json,http://54.235.29.9/FacialAge/BNav_EC2/DepthDuration/MX_fS_VE_MTurk/MX_fS_HTML.html#23,23,1912,966,1920,1080,1-8-2024,18-44-43,30,VR_target_stimuli/s42_1x_3.2_303_BC.png,1000,1x,3.2,7.0,2907,992,meters,jsons/MX_seq21_1_VE1000.json,241429,477908,26,Woman
30,431967,final-intermixed-textured,v2,jsons/MX_seq21_1_VE1000.json,http://54.235.29.9/FacialAge/BNav_EC2/DepthDuration/MX_fS_VE_MTurk/MX_fS_HTML.html#23,23,1912,966,1920,1080,1-8-2024,18-44-43,31,VR_target_stimuli/s25_0.75x_1.4_281.png,1000,0.75x,1.4,2.0,3606,992,meters,jsons/MX_seq21_1_VE1000.json,241429,477908,26,Woman
31,431967,final-intermixed-textured,v2,jsons/MX_seq21_1_VE1000.json,http://54.235.29.9/FacialAge/BNav_EC2/DepthDuration/MX_fS_VE_MTurk/MX_fS_HTML.html#23,23,1912,966,1920,1080,1-8-2024,18-44-43,32,VR_target_stimuli/s50_1x_4.53_518.png,1000,1x,4.53,4.0,4545,1011,meters,jsons/MX_seq21_1_VE1000.json,241429,477908,26,Woman
32,431967,final-intermixed-textured,v2,jsons/MX_seq21_1_VE1000.json,http://54.235.29.9/FacialAge/BNav_EC2/DepthDuration/MX_fS_VE_MTurk/MX_fS_HTML.html#23,23,1912,966,1920,1080,1-8-2024,18-44-43,33,VR_target_stimuli/s53_1.3x_1.6_355_BC.png,1000,1.3x,1.6,2.0,2756,1004,meters,jsons/MX_seq21_1_VE1000.json,241429,477908,26,Woman
33,431967,final-intermixed-textured,v2,jsons/MX_seq21_1_VE1000.json,http://54.235.29.9/FacialAge/BNav_EC2/DepthDuration/MX_fS_VE_MTurk/MX_fS_HTML.html#23,23,1912,966,1920,1080,1-8-2024,18-44-43,34,catch_stimuli/c3.png,1000,,,0.0,2723,1007,meters,jsons/MX_seq21_1_VE1000.json,241429,477908,26,Woman
34,431967,final-intermixed-textured,v2,jsons/MX_seq21_1_VE1000.json,http://54.235.29.9/FacialAge/BNav_EC2/DepthDuration/MX_fS_VE_MTurk/MX_fS_HTML.html#23,23,1912,966,1920,1080,1-8-2024,18-44-43,35,VR_target_stimuli/s38_1x_3.55_353_BC.png,1000,1x,3.55,6.0,2753,993,meters,jsons/MX_seq21_1_VE1000.json,241429,477908,26,Woman
35,431967,final-intermixed-textured,v2,jsons/MX_seq21_1_VE1000.json,http://54.235.29.9/FacialAge/BNav_EC2/DepthDuration/MX_fS_VE_MTurk/MX_fS_HTML.html#23,23,1912,966,1920,1080,1-8-2024,18-44-43,36,VR_target_stimuli/s9_0.75x_1.2_260_BC.png,1000,0.75x,1.2,3.0,2943,991,meters,jsons/MX_seq21_1_VE1000.json,241429,477908,26,Woman
36,431967,final-intermixed-textured,v2,jsons/MX_seq21_1_VE1000.json,http://54.235.29.9/FacialAge/BNav_EC2/DepthDuration/MX_fS_VE_MTurk/MX_fS_HTML.html#23,23,1912,966,1920,1080,1-8-2024,18-44-43,37,VR_target_stimuli/s44_1.3x_4.4_325.png,1000,1.3x,4.4,7.0,3304,1008,meters,jsons/MX_seq21_1_VE1000.json,241429,477908,26,Woman
37,431967,final-intermixed-textured,v2,jsons/MX_seq21_1_VE1000.json,http://54.235.29.9/FacialAge/BNav_EC2/DepthDuration/MX_fS_VE_MTurk/MX_fS_HTML.html#23,23,1912,966,1920,1080,1-8-2024,18-44-43,38,VR_target_stimuli/s3_1.3x_5_390_BC.png,1000,1.3x,5.0,6.0,3254,991,meters,jsons/MX_seq21_1_VE1000.json,241429,477908,26,Woman
38,431967,final-intermixed-textured,v2,jsons/MX_seq21_1_VE1000.json,http://54.235.29.9/FacialAge/BNav_EC2/DepthDuration/MX_fS_VE_MTurk/MX_fS_HTML.html#23,23,1912,966,1920,1080,1-8-2024,18-44-43,39,VR_target_stimuli/s1_1x_1.7_262.png,1000,1x,1.7,4.0,2631,995,meters,jsons/MX_seq21_1_VE1000.json,241429,477908,26,Woman
39,431967,final-intermixed-textured,v2,jsons/MX_seq21_1_VE1000.json,http://54.235.29.9/FacialAge/BNav_EC2/DepthDuration/MX_fS_VE_MTurk/MX_fS_HTML.html#23,23,1912,966,1920,1080,1-8-2024,18-44-43,40,VR_target_stimuli/s11_0.75x_5_359.png,1000,0.75x,5.0,8.0,2750,1000,meters,jsons/MX_seq21_1_VE1000.json,241429,477908,26,Woman
40,431967,final-intermixed-textured,v2,jsons/MX_seq21_1_VE1000.json,http://54.235.29.9/FacialAge/BNav_EC2/DepthDuration/MX_fS_VE_MTurk/MX_fS_HTML.html#23,23,1912,966,1920,1080,1-8-2024,18-44-43,41,VR_target_stimuli/s2_1x_2.7_390_BC.png,1000,1x,2.7,6.0,2980,992,meters,jsons/MX_seq21_1_VE1000.json,241429,477908,26,Woman
41,431967,final-intermixed-textured,v2,jsons/MX_seq21_1_VE1000.json,http://54.235.29.9/FacialAge/BNav_EC2/DepthDuration/MX_fS_VE_MTurk/MX_fS_HTML.html#23,23,1912,966,1920,1080,1-8-2024,18-44-43,42,VR_target_stimuli/s6_1.3x_2.1_298_BC.png,1000,1.3x,2.1,5.0,2634,992,meters,jsons/MX_seq21_1_VE1000.json,241429,477908,26,Woman
42,431967,final-intermixed-textured,v2,jsons/MX_seq21_1_VE1000.json,http://54.235.29.9/FacialAge/BNav_EC2/DepthDuration/MX_fS_VE_MTurk/MX_fS_HTML.html#23,23,1912,966,1920,1080,1-8-2024,18-44-43,43,VR_target_stimuli/s0_0.75x_2.6_345.png,1000,0.75x,2.6,4.0,2720,1007,meters,jsons/MX_seq21_1_VE1000.json,241429,477908,26,Woman
43,431967,final-intermixed-textured,v2,jsons/MX_seq21_1_VE1000.json,http://54.235.29.9/FacialAge/BNav_EC2/DepthDuration/MX_fS_VE_MTurk/MX_fS_HTML.html#23,23,1912,966,1920,1080,1-8-2024,18-44-43,44,VR_target_stimuli/s34_1.3x_2.8_294.png,1000,1.3x,2.8,5.0,2664,1010,meters,jsons/MX_seq21_1_VE1000.json,241429,477908,26,Woman
44,431967,final-intermixed-textured,v2,jsons/MX_seq21_1_VE1000.json,http://54.235.29.9/FacialAge/BNav_EC2/DepthDuration/MX_fS_VE_MTurk/MX_fS_HTML.html#23,23,1912,966,1920,1080,1-8-2024,18-44-43,45,catch_stimuli/c4.png,1000,,,0.0,2859,1010,meters,jsons/MX_seq21_1_VE1000.json,241429,477908,26,Woman
45,431967,final-intermixed-textured,v2,jsons/MX_seq21_1_VE1000.json,http://54.235.29.9/FacialAge/BNav_EC2/DepthDuration/MX_fS_VE_MTurk/MX_fS_HTML.html#23,23,1912,966,1920,1080,1-8-2024,18-44-43,46,VR_target_stimuli/s13_1x_2.4_310.png,1000,1x,2.4,5.0,2634,1000,meters,jsons/MX_seq21_1_VE1000.json,241429,477908,26,Woman
46,431967,final-intermixed-textured,v2,jsons/MX_seq21_1_VE1000.json,http://54.235.29.9/FacialAge/BNav_EC2/DepthDuration/MX_fS_VE_MTurk/MX_fS_HTML.html#23,23,1912,966,1920,1080,1-8-2024,18-44-43,47,VR_target_stimuli/s14_0.75x_3.83_355_BC.png,1000,0.75x,3.83,6.0,2630,984,meters,jsons/MX_seq21_1_VE1000.json,241429,477908,26,Woman
47,431967,final-intermixed-textured,v2,jsons/MX_seq21_1_VE1000.json,http://54.235.29.9/FacialAge/BNav_EC2/DepthDuration/MX_fS_VE_MTurk/MX_fS_HTML.html#23,23,1912,966,1920,1080,1-8-2024,18-44-43,48,VR_target_stimuli/s47_0.75x_3.45_366_BC.png,1000,0.75x,3.45,5.0,2992,999,meters,jsons/MX_seq21_1_VE1000.json,241429,477908,26,Woman
48,431967,final-intermixed-textured,v2,jsons/MX_seq21_1_VE1000.json,http://54.235.29.9/FacialAge/BNav_EC2/DepthDuration/MX_fS_VE_MTurk/MX_fS_HTML.html#23,23,1912,966,1920,1080,1-8-2024,18-44-43,49,VR_target_stimuli/s29_1.3x_1.3_253_BC.png,1000,1.3x,1.3,2.0,2641,999,meters,jsons/MX_seq21_1_VE1000.json,241429,477908,26,Woman
49,431967,final-intermixed-textured,v2,jsons/MX_seq21_1_VE1000.json,http://54.235.29.9/FacialAge/BNav_EC2/DepthDuration/MX_fS_VE_MTurk/MX_fS_HTML.html#23,23,1912,966,1920,1080,1-8-2024,18-44-43,50,VR_target_stimuli/s28_1x_3.2_362_BC.png,1000,1x,3.2,5.0,2637,999,meters,jsons/MX_seq21_1_VE1000.json,241429,477908,26,Woman
50,431967,final-intermixed-textured,v2,jsons/MX_seq21_1_VE1000.json,http://54.235.29.9/FacialAge/BNav_EC2/DepthDuration/MX_fS_VE_MTurk/MX_fS_HTML.html#23,23,1912,966,1920,1080,1-8-2024,18-44-43,51,VR_target_stimuli/s48_1.3x_2.55_255.png,1000,1.3x,2.55,3.0,2675,1000,meters,jsons/MX_seq21_1_VE1000.json,241429,477908,26,Woman
51,431967,final-intermixed-textured,v2,jsons/MX_seq21_1_VE1000.json,http://54.235.29.9/FacialAge/BNav_EC2/DepthDuration/MX_fS_VE_MTurk/MX_fS_HTML.html#23,23,1912,966,1920,1080,1-8-2024,18-44-43,52,VR_target_stimuli/s19_0.75x_1.21_257.png,1000,0.75x,1.21,2.0,2630,989,meters,jsons/MX_seq21_1_VE1000.json,241429,477908,26,Woman
52,431967,final-intermixed-textured,v2,jsons/MX_seq21_1_VE1000.json,http://54.235.29.9/FacialAge/BNav_EC2/DepthDuration/MX_fS_VE_MTurk/MX_fS_HTML.html#23,23,1912,966,1920,1080,1-8-2024,18-44-43,53,catch_stimuli/c5.png,1000,,,0.0,2608,1009,meters,jsons/MX_seq21_1_VE1000.json,241429,477908,26,Woman
53,431967,final-intermixed-textured,v2,jsons/MX_seq21_1_VE1000.json,http://54.235.29.9/FacialAge/BNav_EC2/DepthDuration/MX_fS_VE_MTurk/MX_fS_HTML.html#23,23,1912,966,1920,1080,1-8-2024,18-44-43,54,VR_target_stimuli/s21_1x_4.22_379.png,1000,1x,4.22,8.0,3097,992,meters,jsons/MX_seq21_1_VE1000.json,241429,477908,26,Woman
54,431967,final-intermixed-textured,v2,jsons/MX_seq21_1_VE1000.json,http://54.235.29.9/FacialAge/BNav_EC2/DepthDuration/MX_fS_VE_MTurk/MX_fS_HTML.html#23,23,1912,966,1920,1080,1-8-2024,18-44-43,55,VR_target_stimuli/s8_0.75x_3.1_325_BC.png,1000,0.75x,3.1,5.0,2674,990,meters,jsons/MX_seq21_1_VE1000.json,241429,477908,26,Woman
55,431967,final-intermixed-textured,v2,jsons/MX_seq21_1_VE1000.json,http://54.235.29.9/FacialAge/BNav_EC2/DepthDuration/MX_fS_VE_MTurk/MX_fS_HTML.html#23,23,1912,966,1920,1080,1-8-2024,18-44-43,56,VR_target_stimuli/s27_1.3x_1.76_250_BC.png,1000,1.3x,1.76,4.0,2718,1009,meters,jsons/MX_seq21_1_VE1000.json,241429,477908,26,Woman
56,431967,final-intermixed-textured,v2,jsons/MX_seq21_1_VE1000.json,http://54.235.29.9/FacialAge/BNav_EC2/DepthDuration/MX_fS_VE_MTurk/MX_fS_HTML.html#23,23,1912,966,1920,1080,1-8-2024,18-44-43,57,VR_target_stimuli/s15_1x_4.2_390.png,1000,1x,4.2,8.0,3265,1010,meters,jsons/MX_seq21_1_VE1000.json,241429,477908,26,Woman
57,431967,final-intermixed-textured,v2,jsons/MX_seq21_1_VE1000.json,http://54.235.29.9/FacialAge/BNav_EC2/DepthDuration/MX_fS_VE_MTurk/MX_fS_HTML.html#23,23,1912,966,1920,1080,1-8-2024,18-44-43,58,VR_target_stimuli/s4_1x_1.4_313_BC.png,1000,1x,1.4,2.0,3019,994,meters,jsons/MX_seq21_1_VE1000.json,241429,477908,26,Woman
58,431967,final-intermixed-textured,v2,jsons/MX_seq21_1_VE1000.json,http://54.235.29.9/FacialAge/BNav_EC2/DepthDuration/MX_fS_VE_MTurk/MX_fS_HTML.html#23,23,1912,966,1920,1080,1-8-2024,18-44-43,59,VR_target_stimuli/s35_0.75x_2_323.png,1000,0.75x,2.0,3.0,2941,1004,meters,jsons/MX_seq21_1_VE1000.json,241429,477908,26,Woman
59,431967,final-intermixed-textured,v2,jsons/MX_seq21_1_VE1000.json,http://54.235.29.9/FacialAge/BNav_EC2/DepthDuration/MX_fS_VE_MTurk/MX_fS_HTML.html#23,23,1912,966,1920,1080,1-8-2024,18-44-43,60,VR_target_stimuli/s49_1.3x_4.67_354.png,1000,1.3x,4.67,5.0,2810,994,meters,jsons/MX_seq21_1_VE1000.json,241429,477908,26,Woman
