,subjID,experimentName,versionName,sequenceName,url,selected_row,windowWidth,windowHeight,screenWidth,screenHeight,startDate,startTime,trial,stimulus,duration,scale,actual_depth,depth_estimate,trial_RT,log_sceneDuration,unitSelection,seq_filepath,experimentTime,totalTime,age,gender
0,431922,final-intermixed-textured,v2,jsons/MX_seq22_1_VE1000.json,http://54.235.29.9/FacialAge/BNav_EC2/DepthDuration/MX_fS_VE_MTurk/MX_fS_HTML.html#42,42,1920,934,1920,1080,1-8-2024,13-32-47,1,VR_target_stimuli/s20_1.3x_4.99_412.png,1000,1.3x,4.99,6,8810,1003,meters,jsons/MX_seq22_1_VE1000.json,310865,493148,52,Man
1,431922,final-intermixed-textured,v2,jsons/MX_seq22_1_VE1000.json,http://54.235.29.9/FacialAge/BNav_EC2/DepthDuration/MX_fS_VE_MTurk/MX_fS_HTML.html#42,42,1920,934,1920,1080,1-8-2024,13-32-47,2,VR_target_stimuli/s31_0.75x_4.96_329_BC.png,1000,0.75x,4.96,5,6072,999,meters,jsons/MX_seq22_1_VE1000.json,310865,493148,52,Man
2,431922,final-intermixed-textured,v2,jsons/MX_seq22_1_VE1000.json,http://54.235.29.9/FacialAge/BNav_EC2/DepthDuration/MX_fS_VE_MTurk/MX_fS_HTML.html#42,42,1920,934,1920,1080,1-8-2024,13-32-47,3,VR_target_stimuli/s33_1x_3.1_366.png,1000,1x,3.1,6,4887,1000,meters,jsons/MX_seq22_1_VE1000.json,310865,493148,52,Man
3,431922,final-intermixed-textured,v2,jsons/MX_seq22_1_VE1000.json,http://54.235.29.9/FacialAge/BNav_EC2/DepthDuration/MX_fS_VE_MTurk/MX_fS_HTML.html#42,42,1920,934,1920,1080,1-8-2024,13-32-47,4,VR_target_stimuli/s52_0.75x_3.2_270.png,1000,0.75x,3.2,6,5154,999,meters,jsons/MX_seq22_1_VE1000.json,310865,493148,52,Man
4,431922,final-intermixed-textured,v2,jsons/MX_seq22_1_VE1000.json,http://54.235.29.9/FacialAge/BNav_EC2/DepthDuration/MX_fS_VE_MTurk/MX_fS_HTML.html#42,42,1920,934,1920,1080,1-8-2024,13-32-47,5,VR_target_stimuli/s32_1.3x_1.5_224_BC.png,1000,1.3x,1.5,4,5239,1000,meters,jsons/MX_seq22_1_VE1000.json,310865,493148,52,Man
5,431922,final-intermixed-textured,v2,jsons/MX_seq22_1_VE1000.json,http://54.235.29.9/FacialAge/BNav_EC2/DepthDuration/MX_fS_VE_MTurk/MX_fS_HTML.html#42,42,1920,934,1920,1080,1-8-2024,13-32-47,6,VR_target_stimuli/s18_1x_2.25_353_BC.png,1000,1x,2.25,3,4304,1001,meters,jsons/MX_seq22_1_VE1000.json,310865,493148,52,Man
6,431922,final-intermixed-textured,v2,jsons/MX_seq22_1_VE1000.json,http://54.235.29.9/FacialAge/BNav_EC2/DepthDuration/MX_fS_VE_MTurk/MX_fS_HTML.html#42,42,1920,934,1920,1080,1-8-2024,13-32-47,7,catch_stimuli/c0.png,1000,,,0,5088,1004,meters,jsons/MX_seq22_1_VE1000.json,310865,493148,52,Man
7,431922,final-intermixed-textured,v2,jsons/MX_seq22_1_VE1000.json,http://54.235.29.9/FacialAge/BNav_EC2/DepthDuration/MX_fS_VE_MTurk/MX_fS_HTML.html#42,42,1920,934,1920,1080,1-8-2024,13-32-47,8,VR_target_stimuli/s39_1x_1_207_BC.png,1000,1x,1.0,2,4786,999,meters,jsons/MX_seq22_1_VE1000.json,310865,493148,52,Man
8,431922,final-intermixed-textured,v2,jsons/MX_seq22_1_VE1000.json,http://54.235.29.9/FacialAge/BNav_EC2/DepthDuration/MX_fS_VE_MTurk/MX_fS_HTML.html#42,42,1920,934,1920,1080,1-8-2024,13-32-47,9,VR_target_stimuli/s51_0.75x_3.64_460.png,1000,0.75x,3.64,3,5505,1000,meters,jsons/MX_seq22_1_VE1000.json,310865,493148,52,Man
9,431922,final-intermixed-textured,v2,jsons/MX_seq22_1_VE1000.json,http://54.235.29.9/FacialAge/BNav_EC2/DepthDuration/MX_fS_VE_MTurk/MX_fS_HTML.html#42,42,1920,934,1920,1080,1-8-2024,13-32-47,10,VR_target_stimuli/s43_1.3x_2.2_363.png,1000,1.3x,2.2,4,6088,1000,meters,jsons/MX_seq22_1_VE1000.json,310865,493148,52,Man
10,431922,final-intermixed-textured,v2,jsons/MX_seq22_1_VE1000.json,http://54.235.29.9/FacialAge/BNav_EC2/DepthDuration/MX_fS_VE_MTurk/MX_fS_HTML.html#42,42,1920,934,1920,1080,1-8-2024,13-32-47,11,VR_target_stimuli/s24_0.75x_3.3_344_BC.png,1000,0.75x,3.3,6,4841,1004,meters,jsons/MX_seq22_1_VE1000.json,310865,493148,52,Man
11,431922,final-intermixed-textured,v2,jsons/MX_seq22_1_VE1000.json,http://54.235.29.9/FacialAge/BNav_EC2/DepthDuration/MX_fS_VE_MTurk/MX_fS_HTML.html#42,42,1920,934,1920,1080,1-8-2024,13-32-47,12,VR_target_stimuli/s10_1x_2.7_324.png,1000,1x,2.7,5,6274,1001,meters,jsons/MX_seq22_1_VE1000.json,310865,493148,52,Man
12,431922,final-intermixed-textured,v2,jsons/MX_seq22_1_VE1000.json,http://54.235.29.9/FacialAge/BNav_EC2/DepthDuration/MX_fS_VE_MTurk/MX_fS_HTML.html#42,42,1920,934,1920,1080,1-8-2024,13-32-47,13,VR_target_stimuli/s36_1.3x_4.1_442_BC.png,1000,1.3x,4.1,7,4220,1002,meters,jsons/MX_seq22_1_VE1000.json,310865,493148,52,Man
13,431922,final-intermixed-textured,v2,jsons/MX_seq22_1_VE1000.json,http://54.235.29.9/FacialAge/BNav_EC2/DepthDuration/MX_fS_VE_MTurk/MX_fS_HTML.html#42,42,1920,934,1920,1080,1-8-2024,13-32-47,14,VR_target_stimuli/s40_1x_1.2_319_BC.png,1000,1x,1.2,2,5738,1000,meters,jsons/MX_seq22_1_VE1000.json,310865,493148,52,Man
14,431922,final-intermixed-textured,v2,jsons/MX_seq22_1_VE1000.json,http://54.235.29.9/FacialAge/BNav_EC2/DepthDuration/MX_fS_VE_MTurk/MX_fS_HTML.html#42,42,1920,934,1920,1080,1-8-2024,13-32-47,15,VR_target_stimuli/s41_0.75x_2.1_281.png,1000,0.75x,2.1,4,3538,1000,meters,jsons/MX_seq22_1_VE1000.json,310865,493148,52,Man
15,431922,final-intermixed-textured,v2,jsons/MX_seq22_1_VE1000.json,http://54.235.29.9/FacialAge/BNav_EC2/DepthDuration/MX_fS_VE_MTurk/MX_fS_HTML.html#42,42,1920,934,1920,1080,1-8-2024,13-32-47,16,VR_target_stimuli/s45_1.3x_3.5_377.png,1000,1.3x,3.5,4,3734,1001,meters,jsons/MX_seq22_1_VE1000.json,310865,493148,52,Man
16,431922,final-intermixed-textured,v2,jsons/MX_seq22_1_VE1000.json,http://54.235.29.9/FacialAge/BNav_EC2/DepthDuration/MX_fS_VE_MTurk/MX_fS_HTML.html#42,42,1920,934,1920,1080,1-8-2024,13-32-47,17,catch_stimuli/c1.png,1000,,,0,4638,1002,meters,jsons/MX_seq22_1_VE1000.json,310865,493148,52,Man
17,431922,final-intermixed-textured,v2,jsons/MX_seq22_1_VE1000.json,http://54.235.29.9/FacialAge/BNav_EC2/DepthDuration/MX_fS_VE_MTurk/MX_fS_HTML.html#42,42,1920,934,1920,1080,1-8-2024,13-32-47,18,VR_target_stimuli/s23_1.3x_3.65_354_BC.png,1000,1.3x,3.65,5,6039,1002,meters,jsons/MX_seq22_1_VE1000.json,310865,493148,52,Man
18,431922,final-intermixed-textured,v2,jsons/MX_seq22_1_VE1000.json,http://54.235.29.9/FacialAge/BNav_EC2/DepthDuration/MX_fS_VE_MTurk/MX_fS_HTML.html#42,42,1920,934,1920,1080,1-8-2024,13-32-47,19,VR_target_stimuli/s26_1x_4_433.png,1000,1x,4.0,5,4571,1003,meters,jsons/MX_seq22_1_VE1000.json,310865,493148,52,Man
19,431922,final-intermixed-textured,v2,jsons/MX_seq22_1_VE1000.json,http://54.235.29.9/FacialAge/BNav_EC2/DepthDuration/MX_fS_VE_MTurk/MX_fS_HTML.html#42,42,1920,934,1920,1080,1-8-2024,13-32-47,20,VR_target_stimuli/s12_0.75x_3.1_364_BC.png,1000,0.75x,3.1,5,3434,1003,meters,jsons/MX_seq22_1_VE1000.json,310865,493148,52,Man
20,431922,final-intermixed-textured,v2,jsons/MX_seq22_1_VE1000.json,http://54.235.29.9/FacialAge/BNav_EC2/DepthDuration/MX_fS_VE_MTurk/MX_fS_HTML.html#42,42,1920,934,1920,1080,1-8-2024,13-32-47,21,VR_target_stimuli/s30_1x_2.3_334.png,1000,1x,2.3,4,3533,1000,meters,jsons/MX_seq22_1_VE1000.json,310865,493148,52,Man
21,431922,final-intermixed-textured,v2,jsons/MX_seq22_1_VE1000.json,http://54.235.29.9/FacialAge/BNav_EC2/DepthDuration/MX_fS_VE_MTurk/MX_fS_HTML.html#42,42,1920,934,1920,1080,1-8-2024,13-32-47,22,VR_target_stimuli/s16_1.3x_1_223_BC.png,1000,1.3x,1.0,3,4002,1002,meters,jsons/MX_seq22_1_VE1000.json,310865,493148,52,Man
22,431922,final-intermixed-textured,v2,jsons/MX_seq22_1_VE1000.json,http://54.235.29.9/FacialAge/BNav_EC2/DepthDuration/MX_fS_VE_MTurk/MX_fS_HTML.html#42,42,1920,934,1920,1080,1-8-2024,13-32-47,23,VR_target_stimuli/s17_0.75x_1.8_285_BC.png,1000,0.75x,1.8,3,3467,997,meters,jsons/MX_seq22_1_VE1000.json,310865,493148,52,Man
23,431922,final-intermixed-textured,v2,jsons/MX_seq22_1_VE1000.json,http://54.235.29.9/FacialAge/BNav_EC2/DepthDuration/MX_fS_VE_MTurk/MX_fS_HTML.html#42,42,1920,934,1920,1080,1-8-2024,13-32-47,24,VR_target_stimuli/s5_1.3x_4_393.png,1000,1.3x,4.0,5,4035,1004,meters,jsons/MX_seq22_1_VE1000.json,310865,493148,52,Man
24,431922,final-intermixed-textured,v2,jsons/MX_seq22_1_VE1000.json,http://54.235.29.9/FacialAge/BNav_EC2/DepthDuration/MX_fS_VE_MTurk/MX_fS_HTML.html#42,42,1920,934,1920,1080,1-8-2024,13-32-47,25,VR_target_stimuli/s37_1x_3.3_563_BC.png,1000,1x,3.3,7,5619,996,meters,jsons/MX_seq22_1_VE1000.json,310865,493148,52,Man
25,431922,final-intermixed-textured,v2,jsons/MX_seq22_1_VE1000.json,http://54.235.29.9/FacialAge/BNav_EC2/DepthDuration/MX_fS_VE_MTurk/MX_fS_HTML.html#42,42,1920,934,1920,1080,1-8-2024,13-32-47,26,catch_stimuli/c2.png,1000,,,0,4237,1002,meters,jsons/MX_seq22_1_VE1000.json,310865,493148,52,Man
26,431922,final-intermixed-textured,v2,jsons/MX_seq22_1_VE1000.json,http://54.235.29.9/FacialAge/BNav_EC2/DepthDuration/MX_fS_VE_MTurk/MX_fS_HTML.html#42,42,1920,934,1920,1080,1-8-2024,13-32-47,27,VR_target_stimuli/s46_0.75x_2.42_343.png,1000,0.75x,2.42,5,4254,1002,meters,jsons/MX_seq22_1_VE1000.json,310865,493148,52,Man
27,431922,final-intermixed-textured,v2,jsons/MX_seq22_1_VE1000.json,http://54.235.29.9/FacialAge/BNav_EC2/DepthDuration/MX_fS_VE_MTurk/MX_fS_HTML.html#42,42,1920,934,1920,1080,1-8-2024,13-32-47,28,VR_target_stimuli/s22_0.75x_4.29_348_BC.png,1000,0.75x,4.29,6,6203,1002,meters,jsons/MX_seq22_1_VE1000.json,310865,493148,52,Man
28,431922,final-intermixed-textured,v2,jsons/MX_seq22_1_VE1000.json,http://54.235.29.9/FacialAge/BNav_EC2/DepthDuration/MX_fS_VE_MTurk/MX_fS_HTML.html#42,42,1920,934,1920,1080,1-8-2024,13-32-47,29,VR_target_stimuli/s42_1.3x_3.2_305.png,1000,1.3x,3.2,7,3700,1000,meters,jsons/MX_seq22_1_VE1000.json,310865,493148,52,Man
29,431922,final-intermixed-textured,v2,jsons/MX_seq22_1_VE1000.json,http://54.235.29.9/FacialAge/BNav_EC2/DepthDuration/MX_fS_VE_MTurk/MX_fS_HTML.html#42,42,1920,934,1920,1080,1-8-2024,13-32-47,30,VR_target_stimuli/s25_1x_1.4_290_BC.png,1000,1x,1.4,3,5956,1001,meters,jsons/MX_seq22_1_VE1000.json,310865,493148,52,Man
30,431922,final-intermixed-textured,v2,jsons/MX_seq22_1_VE1000.json,http://54.235.29.9/FacialAge/BNav_EC2/DepthDuration/MX_fS_VE_MTurk/MX_fS_HTML.html#42,42,1920,934,1920,1080,1-8-2024,13-32-47,31,VR_target_stimuli/s50_0.75x_4.53_517.png,1000,0.75x,4.53,5,4721,1001,meters,jsons/MX_seq22_1_VE1000.json,310865,493148,52,Man
31,431922,final-intermixed-textured,v2,jsons/MX_seq22_1_VE1000.json,http://54.235.29.9/FacialAge/BNav_EC2/DepthDuration/MX_fS_VE_MTurk/MX_fS_HTML.html#42,42,1920,934,1920,1080,1-8-2024,13-32-47,32,VR_target_stimuli/s53_1x_1.6_387.png,1000,1x,1.6,3,4271,1000,meters,jsons/MX_seq22_1_VE1000.json,310865,493148,52,Man
32,431922,final-intermixed-textured,v2,jsons/MX_seq22_1_VE1000.json,http://54.235.29.9/FacialAge/BNav_EC2/DepthDuration/MX_fS_VE_MTurk/MX_fS_HTML.html#42,42,1920,934,1920,1080,1-8-2024,13-32-47,33,VR_target_stimuli/s38_1.3x_3.55_358_BC.png,1000,1.3x,3.55,6,5102,1004,meters,jsons/MX_seq22_1_VE1000.json,310865,493148,52,Man
33,431922,final-intermixed-textured,v2,jsons/MX_seq22_1_VE1000.json,http://54.235.29.9/FacialAge/BNav_EC2/DepthDuration/MX_fS_VE_MTurk/MX_fS_HTML.html#42,42,1920,934,1920,1080,1-8-2024,13-32-47,34,catch_stimuli/c3.png,1000,,,0,3955,1000,meters,jsons/MX_seq22_1_VE1000.json,310865,493148,52,Man
34,431922,final-intermixed-textured,v2,jsons/MX_seq22_1_VE1000.json,http://54.235.29.9/FacialAge/BNav_EC2/DepthDuration/MX_fS_VE_MTurk/MX_fS_HTML.html#42,42,1920,934,1920,1080,1-8-2024,13-32-47,35,VR_target_stimuli/s9_1x_1.2_263.png,1000,1x,1.2,3,4187,999,meters,jsons/MX_seq22_1_VE1000.json,310865,493148,52,Man
35,431922,final-intermixed-textured,v2,jsons/MX_seq22_1_VE1000.json,http://54.235.29.9/FacialAge/BNav_EC2/DepthDuration/MX_fS_VE_MTurk/MX_fS_HTML.html#42,42,1920,934,1920,1080,1-8-2024,13-32-47,36,VR_target_stimuli/s44_0.75x_4.4_314.png,1000,0.75x,4.4,7,3886,1003,meters,jsons/MX_seq22_1_VE1000.json,310865,493148,52,Man
36,431922,final-intermixed-textured,v2,jsons/MX_seq22_1_VE1000.json,http://54.235.29.9/FacialAge/BNav_EC2/DepthDuration/MX_fS_VE_MTurk/MX_fS_HTML.html#42,42,1920,934,1920,1080,1-8-2024,13-32-47,37,VR_target_stimuli/s3_1.3x_5_390_BC.png,1000,1.3x,5.0,7,3604,1001,meters,jsons/MX_seq22_1_VE1000.json,310865,493148,52,Man
37,431922,final-intermixed-textured,v2,jsons/MX_seq22_1_VE1000.json,http://54.235.29.9/FacialAge/BNav_EC2/DepthDuration/MX_fS_VE_MTurk/MX_fS_HTML.html#42,42,1920,934,1920,1080,1-8-2024,13-32-47,38,VR_target_stimuli/s1_1.3x_1.7_261.png,1000,1.3x,1.7,3,5804,1001,meters,jsons/MX_seq22_1_VE1000.json,310865,493148,52,Man
38,431922,final-intermixed-textured,v2,jsons/MX_seq22_1_VE1000.json,http://54.235.29.9/FacialAge/BNav_EC2/DepthDuration/MX_fS_VE_MTurk/MX_fS_HTML.html#42,42,1920,934,1920,1080,1-8-2024,13-32-47,39,VR_target_stimuli/s11_1x_5_361_BC.png,1000,1x,5.0,6,3918,1003,meters,jsons/MX_seq22_1_VE1000.json,310865,493148,52,Man
39,431922,final-intermixed-textured,v2,jsons/MX_seq22_1_VE1000.json,http://54.235.29.9/FacialAge/BNav_EC2/DepthDuration/MX_fS_VE_MTurk/MX_fS_HTML.html#42,42,1920,934,1920,1080,1-8-2024,13-32-47,40,VR_target_stimuli/s2_0.75x_2.7_384_BC.png,1000,0.75x,2.7,4,3803,1001,meters,jsons/MX_seq22_1_VE1000.json,310865,493148,52,Man
40,431922,final-intermixed-textured,v2,jsons/MX_seq22_1_VE1000.json,http://54.235.29.9/FacialAge/BNav_EC2/DepthDuration/MX_fS_VE_MTurk/MX_fS_HTML.html#42,42,1920,934,1920,1080,1-8-2024,13-32-47,41,VR_target_stimuli/s6_1x_2.1_293_BC.png,1000,1x,2.1,4,4622,1005,meters,jsons/MX_seq22_1_VE1000.json,310865,493148,52,Man
41,431922,final-intermixed-textured,v2,jsons/MX_seq22_1_VE1000.json,http://54.235.29.9/FacialAge/BNav_EC2/DepthDuration/MX_fS_VE_MTurk/MX_fS_HTML.html#42,42,1920,934,1920,1080,1-8-2024,13-32-47,42,VR_target_stimuli/s0_1.3x_2.6_356_BC.png,1000,1.3x,2.6,5,3870,1003,meters,jsons/MX_seq22_1_VE1000.json,310865,493148,52,Man
42,431922,final-intermixed-textured,v2,jsons/MX_seq22_1_VE1000.json,http://54.235.29.9/FacialAge/BNav_EC2/DepthDuration/MX_fS_VE_MTurk/MX_fS_HTML.html#42,42,1920,934,1920,1080,1-8-2024,13-32-47,43,VR_target_stimuli/s34_0.75x_2.8_269_BC.png,1000,0.75x,2.8,4,3787,1001,meters,jsons/MX_seq22_1_VE1000.json,310865,493148,52,Man
43,431922,final-intermixed-textured,v2,jsons/MX_seq22_1_VE1000.json,http://54.235.29.9/FacialAge/BNav_EC2/DepthDuration/MX_fS_VE_MTurk/MX_fS_HTML.html#42,42,1920,934,1920,1080,1-8-2024,13-32-47,44,VR_target_stimuli/s13_1.3x_2.4_313.png,1000,1.3x,2.4,4,3968,1000,meters,jsons/MX_seq22_1_VE1000.json,310865,493148,52,Man
44,431922,final-intermixed-textured,v2,jsons/MX_seq22_1_VE1000.json,http://54.235.29.9/FacialAge/BNav_EC2/DepthDuration/MX_fS_VE_MTurk/MX_fS_HTML.html#42,42,1920,934,1920,1080,1-8-2024,13-32-47,45,catch_stimuli/c4.png,1000,,,0,4652,1000,meters,jsons/MX_seq22_1_VE1000.json,310865,493148,52,Man
45,431922,final-intermixed-textured,v2,jsons/MX_seq22_1_VE1000.json,http://54.235.29.9/FacialAge/BNav_EC2/DepthDuration/MX_fS_VE_MTurk/MX_fS_HTML.html#42,42,1920,934,1920,1080,1-8-2024,13-32-47,46,VR_target_stimuli/s14_1x_ 3.83_357.png,1000,1x,3.83,5,4137,1003,meters,jsons/MX_seq22_1_VE1000.json,310865,493148,52,Man
46,431922,final-intermixed-textured,v2,jsons/MX_seq22_1_VE1000.json,http://54.235.29.9/FacialAge/BNav_EC2/DepthDuration/MX_fS_VE_MTurk/MX_fS_HTML.html#42,42,1920,934,1920,1080,1-8-2024,13-32-47,47,VR_target_stimuli/s47_0.75x_3.45_366.png,1000,0.75x,3.45,5,3640,1002,meters,jsons/MX_seq22_1_VE1000.json,310865,493148,52,Man
47,431922,final-intermixed-textured,v2,jsons/MX_seq22_1_VE1000.json,http://54.235.29.9/FacialAge/BNav_EC2/DepthDuration/MX_fS_VE_MTurk/MX_fS_HTML.html#42,42,1920,934,1920,1080,1-8-2024,13-32-47,48,VR_target_stimuli/s29_0.75x_1.3_246_BC.png,1000,0.75x,1.3,4,3371,1006,meters,jsons/MX_seq22_1_VE1000.json,310865,493148,52,Man
48,431922,final-intermixed-textured,v2,jsons/MX_seq22_1_VE1000.json,http://54.235.29.9/FacialAge/BNav_EC2/DepthDuration/MX_fS_VE_MTurk/MX_fS_HTML.html#42,42,1920,934,1920,1080,1-8-2024,13-32-47,49,VR_target_stimuli/s28_1.3x_3.2_365.png,1000,1.3x,3.2,6,3923,1000,meters,jsons/MX_seq22_1_VE1000.json,310865,493148,52,Man
49,431922,final-intermixed-textured,v2,jsons/MX_seq22_1_VE1000.json,http://54.235.29.9/FacialAge/BNav_EC2/DepthDuration/MX_fS_VE_MTurk/MX_fS_HTML.html#42,42,1920,934,1920,1080,1-8-2024,13-32-47,50,VR_target_stimuli/s48_1x_2.55_256.png,1000,1x,2.55,4,5741,1002,meters,jsons/MX_seq22_1_VE1000.json,310865,493148,52,Man
50,431922,final-intermixed-textured,v2,jsons/MX_seq22_1_VE1000.json,http://54.235.29.9/FacialAge/BNav_EC2/DepthDuration/MX_fS_VE_MTurk/MX_fS_HTML.html#42,42,1920,934,1920,1080,1-8-2024,13-32-47,51,VR_target_stimuli/s19_1.3x_1.21_270_BC.png,1000,1.3x,1.21,4,7823,999,meters,jsons/MX_seq22_1_VE1000.json,310865,493148,52,Man
51,431922,final-intermixed-textured,v2,jsons/MX_seq22_1_VE1000.json,http://54.235.29.9/FacialAge/BNav_EC2/DepthDuration/MX_fS_VE_MTurk/MX_fS_HTML.html#42,42,1920,934,1920,1080,1-8-2024,13-32-47,52,VR_target_stimuli/s21_0.75x_4.22_374.png,1000,0.75x,4.22,7,4638,1001,meters,jsons/MX_seq22_1_VE1000.json,310865,493148,52,Man
52,431922,final-intermixed-textured,v2,jsons/MX_seq22_1_VE1000.json,http://54.235.29.9/FacialAge/BNav_EC2/DepthDuration/MX_fS_VE_MTurk/MX_fS_HTML.html#42,42,1920,934,1920,1080,1-8-2024,13-32-47,53,catch_stimuli/c5.png,1000,,,0,3938,1005,meters,jsons/MX_seq22_1_VE1000.json,310865,493148,52,Man
53,431922,final-intermixed-textured,v2,jsons/MX_seq22_1_VE1000.json,http://54.235.29.9/FacialAge/BNav_EC2/DepthDuration/MX_fS_VE_MTurk/MX_fS_HTML.html#42,42,1920,934,1920,1080,1-8-2024,13-32-47,54,VR_target_stimuli/s8_1x_3.1_332_BC.png,1000,1x,3.1,5,4119,1005,meters,jsons/MX_seq22_1_VE1000.json,310865,493148,52,Man
54,431922,final-intermixed-textured,v2,jsons/MX_seq22_1_VE1000.json,http://54.235.29.9/FacialAge/BNav_EC2/DepthDuration/MX_fS_VE_MTurk/MX_fS_HTML.html#42,42,1920,934,1920,1080,1-8-2024,13-32-47,55,VR_target_stimuli/s27_0.75x_1.76_243.png,1000,0.75x,1.76,4,4019,1000,meters,jsons/MX_seq22_1_VE1000.json,310865,493148,52,Man
55,431922,final-intermixed-textured,v2,jsons/MX_seq22_1_VE1000.json,http://54.235.29.9/FacialAge/BNav_EC2/DepthDuration/MX_fS_VE_MTurk/MX_fS_HTML.html#42,42,1920,934,1920,1080,1-8-2024,13-32-47,56,VR_target_stimuli/s15_1.3x_4.2_389.png,1000,1.3x,4.2,6,6588,1001,meters,jsons/MX_seq22_1_VE1000.json,310865,493148,52,Man
56,431922,final-intermixed-textured,v2,jsons/MX_seq22_1_VE1000.json,http://54.235.29.9/FacialAge/BNav_EC2/DepthDuration/MX_fS_VE_MTurk/MX_fS_HTML.html#42,42,1920,934,1920,1080,1-8-2024,13-32-47,57,VR_target_stimuli/s4_1x_1.4_313.png,1000,1x,1.4,4,5153,1005,meters,jsons/MX_seq22_1_VE1000.json,310865,493148,52,Man
57,431922,final-intermixed-textured,v2,jsons/MX_seq22_1_VE1000.json,http://54.235.29.9/FacialAge/BNav_EC2/DepthDuration/MX_fS_VE_MTurk/MX_fS_HTML.html#42,42,1920,934,1920,1080,1-8-2024,13-32-47,58,VR_target_stimuli/s35_1x_2_331_BC.png,1000,1x,2.0,5,3315,1000,meters,jsons/MX_seq22_1_VE1000.json,310865,493148,52,Man
58,431922,final-intermixed-textured,v2,jsons/MX_seq22_1_VE1000.json,http://54.235.29.9/FacialAge/BNav_EC2/DepthDuration/MX_fS_VE_MTurk/MX_fS_HTML.html#42,42,1920,934,1920,1080,1-8-2024,13-32-47,59,VR_target_stimuli/s49_0.75x_4.67_328_BC.png,1000,0.75x,4.67,8,3853,1000,meters,jsons/MX_seq22_1_VE1000.json,310865,493148,52,Man
59,431922,final-intermixed-textured,v2,jsons/MX_seq22_1_VE1000.json,http://54.235.29.9/FacialAge/BNav_EC2/DepthDuration/MX_fS_VE_MTurk/MX_fS_HTML.html#42,42,1920,934,1920,1080,1-8-2024,13-32-47,60,VR_target_stimuli/s7_1.3x_1.5_256_BC.png,1000,1.3x,1.5,3,4354,1000,meters,jsons/MX_seq22_1_VE1000.json,310865,493148,52,Man
