,subjID,experimentName,versionName,sequenceName,url,selected_row,windowWidth,windowHeight,screenWidth,screenHeight,startDate,startTime,trial,stimulus,duration,scale,actual_depth,depth_estimate,trial_RT,log_sceneDuration,unitSelection,seq_filepath,experimentTime,totalTime,age,gender
0,442954,final-intermixed-textured,v2,jsons/MX_seq41_2_VE1000.json,http://54.235.29.9/FacialAge/BNav_EC2/DepthDuration/MX_fS_VE_MTurk/MX_fS_HTML.html#86,86,1536,703,1536,864,1-8-2024,11-37-23,1,VR_target_stimuli/s16_1x_1_219.png,1000,1x,1.0,1.0,3827,995,meters,jsons/MX_seq41_2_VE1000.json,243779,396766,23,Woman
1,442954,final-intermixed-textured,v2,jsons/MX_seq41_2_VE1000.json,http://54.235.29.9/FacialAge/BNav_EC2/DepthDuration/MX_fS_VE_MTurk/MX_fS_HTML.html#86,86,1536,703,1536,864,1-8-2024,11-37-23,2,VR_target_stimuli/s17_1.3x_1.8_300.png,1000,1.3x,1.8,3.0,4111,995,meters,jsons/MX_seq41_2_VE1000.json,243779,396766,23,Woman
2,442954,final-intermixed-textured,v2,jsons/MX_seq41_2_VE1000.json,http://54.235.29.9/FacialAge/BNav_EC2/DepthDuration/MX_fS_VE_MTurk/MX_fS_HTML.html#86,86,1536,703,1536,864,1-8-2024,11-37-23,3,VR_target_stimuli/s5_0.75x_4_375_BC.png,1000,0.75x,4.0,5.5,5655,995,meters,jsons/MX_seq41_2_VE1000.json,243779,396766,23,Woman
3,442954,final-intermixed-textured,v2,jsons/MX_seq41_2_VE1000.json,http://54.235.29.9/FacialAge/BNav_EC2/DepthDuration/MX_fS_VE_MTurk/MX_fS_HTML.html#86,86,1536,703,1536,864,1-8-2024,11-37-23,4,VR_target_stimuli/s37_1.3x_3.3_555_BC.png,1000,1.3x,3.3,4.0,4737,997,meters,jsons/MX_seq41_2_VE1000.json,243779,396766,23,Woman
4,442954,final-intermixed-textured,v2,jsons/MX_seq41_2_VE1000.json,http://54.235.29.9/FacialAge/BNav_EC2/DepthDuration/MX_fS_VE_MTurk/MX_fS_HTML.html#86,86,1536,703,1536,864,1-8-2024,11-37-23,5,VR_target_stimuli/s46_1x_2.42_348_BC.png,1000,1x,2.42,7.0,4659,999,meters,jsons/MX_seq41_2_VE1000.json,243779,396766,23,Woman
5,442954,final-intermixed-textured,v2,jsons/MX_seq41_2_VE1000.json,http://54.235.29.9/FacialAge/BNav_EC2/DepthDuration/MX_fS_VE_MTurk/MX_fS_HTML.html#86,86,1536,703,1536,864,1-8-2024,11-37-23,6,VR_target_stimuli/s22_0.75x_4.29_348.png,1000,0.75x,4.29,10.0,4507,995,meters,jsons/MX_seq41_2_VE1000.json,243779,396766,23,Woman
6,442954,final-intermixed-textured,v2,jsons/MX_seq41_2_VE1000.json,http://54.235.29.9/FacialAge/BNav_EC2/DepthDuration/MX_fS_VE_MTurk/MX_fS_HTML.html#86,86,1536,703,1536,864,1-8-2024,11-37-23,7,catch_stimuli/c0.png,1000,,,0.0,4810,1005,meters,jsons/MX_seq41_2_VE1000.json,243779,396766,23,Woman
7,442954,final-intermixed-textured,v2,jsons/MX_seq41_2_VE1000.json,http://54.235.29.9/FacialAge/BNav_EC2/DepthDuration/MX_fS_VE_MTurk/MX_fS_HTML.html#86,86,1536,703,1536,864,1-8-2024,11-37-23,8,VR_target_stimuli/s42_0.75x_3.2_301.png,1000,0.75x,3.2,8.0,3637,998,meters,jsons/MX_seq41_2_VE1000.json,243779,396766,23,Woman
8,442954,final-intermixed-textured,v2,jsons/MX_seq41_2_VE1000.json,http://54.235.29.9/FacialAge/BNav_EC2/DepthDuration/MX_fS_VE_MTurk/MX_fS_HTML.html#86,86,1536,703,1536,864,1-8-2024,11-37-23,9,VR_target_stimuli/s25_1.3x_1.4_299_BC.png,1000,1.3x,1.4,2.5,6795,993,meters,jsons/MX_seq41_2_VE1000.json,243779,396766,23,Woman
9,442954,final-intermixed-textured,v2,jsons/MX_seq41_2_VE1000.json,http://54.235.29.9/FacialAge/BNav_EC2/DepthDuration/MX_fS_VE_MTurk/MX_fS_HTML.html#86,86,1536,703,1536,864,1-8-2024,11-37-23,10,VR_target_stimuli/s50_1x_4.53_518.png,1000,1x,4.53,5.0,4264,1012,meters,jsons/MX_seq41_2_VE1000.json,243779,396766,23,Woman
10,442954,final-intermixed-textured,v2,jsons/MX_seq41_2_VE1000.json,http://54.235.29.9/FacialAge/BNav_EC2/DepthDuration/MX_fS_VE_MTurk/MX_fS_HTML.html#86,86,1536,703,1536,864,1-8-2024,11-37-23,11,VR_target_stimuli/s53_1.3x_1.6_355.png,1000,1.3x,1.6,1.5,4582,988,meters,jsons/MX_seq41_2_VE1000.json,243779,396766,23,Woman
11,442954,final-intermixed-textured,v2,jsons/MX_seq41_2_VE1000.json,http://54.235.29.9/FacialAge/BNav_EC2/DepthDuration/MX_fS_VE_MTurk/MX_fS_HTML.html#86,86,1536,703,1536,864,1-8-2024,11-37-23,12,VR_target_stimuli/s38_0.75x_3.55_346_BC.png,1000,0.75x,3.55,7.0,3862,991,meters,jsons/MX_seq41_2_VE1000.json,243779,396766,23,Woman
12,442954,final-intermixed-textured,v2,jsons/MX_seq41_2_VE1000.json,http://54.235.29.9/FacialAge/BNav_EC2/DepthDuration/MX_fS_VE_MTurk/MX_fS_HTML.html#86,86,1536,703,1536,864,1-8-2024,11-37-23,13,VR_target_stimuli/s9_1x_1.2_263_BC.png,1000,1x,1.2,3.0,3339,997,meters,jsons/MX_seq41_2_VE1000.json,243779,396766,23,Woman
13,442954,final-intermixed-textured,v2,jsons/MX_seq41_2_VE1000.json,http://54.235.29.9/FacialAge/BNav_EC2/DepthDuration/MX_fS_VE_MTurk/MX_fS_HTML.html#86,86,1536,703,1536,864,1-8-2024,11-37-23,14,VR_target_stimuli/s44_0.75x_4.4_314_BC.png,1000,0.75x,4.4,10.0,3921,995,meters,jsons/MX_seq41_2_VE1000.json,243779,396766,23,Woman
14,442954,final-intermixed-textured,v2,jsons/MX_seq41_2_VE1000.json,http://54.235.29.9/FacialAge/BNav_EC2/DepthDuration/MX_fS_VE_MTurk/MX_fS_HTML.html#86,86,1536,703,1536,864,1-8-2024,11-37-23,15,VR_target_stimuli/s3_1.3x_5_390.png,1000,1.3x,5.0,8.0,3332,1005,meters,jsons/MX_seq41_2_VE1000.json,243779,396766,23,Woman
15,442954,final-intermixed-textured,v2,jsons/MX_seq41_2_VE1000.json,http://54.235.29.9/FacialAge/BNav_EC2/DepthDuration/MX_fS_VE_MTurk/MX_fS_HTML.html#86,86,1536,703,1536,864,1-8-2024,11-37-23,16,VR_target_stimuli/s1_1x_1.7_262.png,1000,1x,1.7,3.0,3480,995,meters,jsons/MX_seq41_2_VE1000.json,243779,396766,23,Woman
16,442954,final-intermixed-textured,v2,jsons/MX_seq41_2_VE1000.json,http://54.235.29.9/FacialAge/BNav_EC2/DepthDuration/MX_fS_VE_MTurk/MX_fS_HTML.html#86,86,1536,703,1536,864,1-8-2024,11-37-23,17,catch_stimuli/c1.png,1000,,,0.0,4552,1004,meters,jsons/MX_seq41_2_VE1000.json,243779,396766,23,Woman
17,442954,final-intermixed-textured,v2,jsons/MX_seq41_2_VE1000.json,http://54.235.29.9/FacialAge/BNav_EC2/DepthDuration/MX_fS_VE_MTurk/MX_fS_HTML.html#86,86,1536,703,1536,864,1-8-2024,11-37-23,18,VR_target_stimuli/s11_1x_5_361_BC.png,1000,1x,5.0,6.5,4423,997,meters,jsons/MX_seq41_2_VE1000.json,243779,396766,23,Woman
18,442954,final-intermixed-textured,v2,jsons/MX_seq41_2_VE1000.json,http://54.235.29.9/FacialAge/BNav_EC2/DepthDuration/MX_fS_VE_MTurk/MX_fS_HTML.html#86,86,1536,703,1536,864,1-8-2024,11-37-23,19,VR_target_stimuli/s2_0.75x_2.7_384.png,1000,0.75x,2.7,4.0,3827,1001,meters,jsons/MX_seq41_2_VE1000.json,243779,396766,23,Woman
19,442954,final-intermixed-textured,v2,jsons/MX_seq41_2_VE1000.json,http://54.235.29.9/FacialAge/BNav_EC2/DepthDuration/MX_fS_VE_MTurk/MX_fS_HTML.html#86,86,1536,703,1536,864,1-8-2024,11-37-23,20,VR_target_stimuli/s6_1.3x_2.1_298_BC.png,1000,1.3x,2.1,4.0,3629,997,meters,jsons/MX_seq41_2_VE1000.json,243779,396766,23,Woman
20,442954,final-intermixed-textured,v2,jsons/MX_seq41_2_VE1000.json,http://54.235.29.9/FacialAge/BNav_EC2/DepthDuration/MX_fS_VE_MTurk/MX_fS_HTML.html#86,86,1536,703,1536,864,1-8-2024,11-37-23,21,VR_target_stimuli/s0_0.75x_2.6_345_BC.png,1000,0.75x,2.6,4.0,2904,1001,meters,jsons/MX_seq41_2_VE1000.json,243779,396766,23,Woman
21,442954,final-intermixed-textured,v2,jsons/MX_seq41_2_VE1000.json,http://54.235.29.9/FacialAge/BNav_EC2/DepthDuration/MX_fS_VE_MTurk/MX_fS_HTML.html#86,86,1536,703,1536,864,1-8-2024,11-37-23,22,VR_target_stimuli/s34_1x_2.8_283_BC.png,1000,1x,2.8,4.0,3282,995,meters,jsons/MX_seq41_2_VE1000.json,243779,396766,23,Woman
22,442954,final-intermixed-textured,v2,jsons/MX_seq41_2_VE1000.json,http://54.235.29.9/FacialAge/BNav_EC2/DepthDuration/MX_fS_VE_MTurk/MX_fS_HTML.html#86,86,1536,703,1536,864,1-8-2024,11-37-23,23,VR_target_stimuli/s13_1.3x_2.4_313_BC.png,1000,1.3x,2.4,3.0,3073,995,meters,jsons/MX_seq41_2_VE1000.json,243779,396766,23,Woman
23,442954,final-intermixed-textured,v2,jsons/MX_seq41_2_VE1000.json,http://54.235.29.9/FacialAge/BNav_EC2/DepthDuration/MX_fS_VE_MTurk/MX_fS_HTML.html#86,86,1536,703,1536,864,1-8-2024,11-37-23,24,VR_target_stimuli/s14_1x_ 3.83_357.png,1000,1x,3.83,6.0,2883,996,meters,jsons/MX_seq41_2_VE1000.json,243779,396766,23,Woman
24,442954,final-intermixed-textured,v2,jsons/MX_seq41_2_VE1000.json,http://54.235.29.9/FacialAge/BNav_EC2/DepthDuration/MX_fS_VE_MTurk/MX_fS_HTML.html#86,86,1536,703,1536,864,1-8-2024,11-37-23,25,VR_target_stimuli/s47_0.75x_3.45_366.png,1000,0.75x,3.45,6.0,2795,998,meters,jsons/MX_seq41_2_VE1000.json,243779,396766,23,Woman
25,442954,final-intermixed-textured,v2,jsons/MX_seq41_2_VE1000.json,http://54.235.29.9/FacialAge/BNav_EC2/DepthDuration/MX_fS_VE_MTurk/MX_fS_HTML.html#86,86,1536,703,1536,864,1-8-2024,11-37-23,26,catch_stimuli/c2.png,1000,,,0.0,2818,994,meters,jsons/MX_seq41_2_VE1000.json,243779,396766,23,Woman
26,442954,final-intermixed-textured,v2,jsons/MX_seq41_2_VE1000.json,http://54.235.29.9/FacialAge/BNav_EC2/DepthDuration/MX_fS_VE_MTurk/MX_fS_HTML.html#86,86,1536,703,1536,864,1-8-2024,11-37-23,27,VR_target_stimuli/s29_1.3x_1.3_253.png,1000,1.3x,1.3,2.0,3137,1001,meters,jsons/MX_seq41_2_VE1000.json,243779,396766,23,Woman
27,442954,final-intermixed-textured,v2,jsons/MX_seq41_2_VE1000.json,http://54.235.29.9/FacialAge/BNav_EC2/DepthDuration/MX_fS_VE_MTurk/MX_fS_HTML.html#86,86,1536,703,1536,864,1-8-2024,11-37-23,28,VR_target_stimuli/s28_1.3x_3.2_365_BC.png,1000,1.3x,3.2,3.0,2860,1000,meters,jsons/MX_seq41_2_VE1000.json,243779,396766,23,Woman
28,442954,final-intermixed-textured,v2,jsons/MX_seq41_2_VE1000.json,http://54.235.29.9/FacialAge/BNav_EC2/DepthDuration/MX_fS_VE_MTurk/MX_fS_HTML.html#86,86,1536,703,1536,864,1-8-2024,11-37-23,29,VR_target_stimuli/s48_1x_2.55_256_BC.png,1000,1x,2.55,3.0,2743,1002,meters,jsons/MX_seq41_2_VE1000.json,243779,396766,23,Woman
29,442954,final-intermixed-textured,v2,jsons/MX_seq41_2_VE1000.json,http://54.235.29.9/FacialAge/BNav_EC2/DepthDuration/MX_fS_VE_MTurk/MX_fS_HTML.html#86,86,1536,703,1536,864,1-8-2024,11-37-23,30,VR_target_stimuli/s19_0.75x_1.21_257_BC.png,1000,0.75x,1.21,1.0,2627,991,meters,jsons/MX_seq41_2_VE1000.json,243779,396766,23,Woman
30,442954,final-intermixed-textured,v2,jsons/MX_seq41_2_VE1000.json,http://54.235.29.9/FacialAge/BNav_EC2/DepthDuration/MX_fS_VE_MTurk/MX_fS_HTML.html#86,86,1536,703,1536,864,1-8-2024,11-37-23,31,VR_target_stimuli/s21_1.3x_4.22_384.png,1000,1.3x,4.22,9.0,4792,1014,meters,jsons/MX_seq41_2_VE1000.json,243779,396766,23,Woman
31,442954,final-intermixed-textured,v2,jsons/MX_seq41_2_VE1000.json,http://54.235.29.9/FacialAge/BNav_EC2/DepthDuration/MX_fS_VE_MTurk/MX_fS_HTML.html#86,86,1536,703,1536,864,1-8-2024,11-37-23,32,VR_target_stimuli/s8_0.75x_3.1_325.png,1000,0.75x,3.1,6.0,3528,994,meters,jsons/MX_seq41_2_VE1000.json,243779,396766,23,Woman
32,442954,final-intermixed-textured,v2,jsons/MX_seq41_2_VE1000.json,http://54.235.29.9/FacialAge/BNav_EC2/DepthDuration/MX_fS_VE_MTurk/MX_fS_HTML.html#86,86,1536,703,1536,864,1-8-2024,11-37-23,33,VR_target_stimuli/s27_1x_1.76_248.png,1000,1x,1.76,3.0,3215,995,meters,jsons/MX_seq41_2_VE1000.json,243779,396766,23,Woman
33,442954,final-intermixed-textured,v2,jsons/MX_seq41_2_VE1000.json,http://54.235.29.9/FacialAge/BNav_EC2/DepthDuration/MX_fS_VE_MTurk/MX_fS_HTML.html#86,86,1536,703,1536,864,1-8-2024,11-37-23,34,catch_stimuli/c3.png,1000,,,0.0,3451,998,meters,jsons/MX_seq41_2_VE1000.json,243779,396766,23,Woman
34,442954,final-intermixed-textured,v2,jsons/MX_seq41_2_VE1000.json,http://54.235.29.9/FacialAge/BNav_EC2/DepthDuration/MX_fS_VE_MTurk/MX_fS_HTML.html#86,86,1536,703,1536,864,1-8-2024,11-37-23,35,VR_target_stimuli/s15_0.75x_4.2_388_BC.png,1000,0.75x,4.2,7.0,3533,1001,meters,jsons/MX_seq41_2_VE1000.json,243779,396766,23,Woman
35,442954,final-intermixed-textured,v2,jsons/MX_seq41_2_VE1000.json,http://54.235.29.9/FacialAge/BNav_EC2/DepthDuration/MX_fS_VE_MTurk/MX_fS_HTML.html#86,86,1536,703,1536,864,1-8-2024,11-37-23,36,VR_target_stimuli/s4_1.3x_1.4_328.png,1000,1.3x,1.4,2.0,4195,1005,meters,jsons/MX_seq41_2_VE1000.json,243779,396766,23,Woman
36,442954,final-intermixed-textured,v2,jsons/MX_seq41_2_VE1000.json,http://54.235.29.9/FacialAge/BNav_EC2/DepthDuration/MX_fS_VE_MTurk/MX_fS_HTML.html#86,86,1536,703,1536,864,1-8-2024,11-37-23,37,VR_target_stimuli/s35_1x_2_331.png,1000,1x,2.0,4.0,3242,989,meters,jsons/MX_seq41_2_VE1000.json,243779,396766,23,Woman
37,442954,final-intermixed-textured,v2,jsons/MX_seq41_2_VE1000.json,http://54.235.29.9/FacialAge/BNav_EC2/DepthDuration/MX_fS_VE_MTurk/MX_fS_HTML.html#86,86,1536,703,1536,864,1-8-2024,11-37-23,38,VR_target_stimuli/s49_1x_4.67_341_BC.png,1000,1x,4.67,7.0,2875,993,meters,jsons/MX_seq41_2_VE1000.json,243779,396766,23,Woman
38,442954,final-intermixed-textured,v2,jsons/MX_seq41_2_VE1000.json,http://54.235.29.9/FacialAge/BNav_EC2/DepthDuration/MX_fS_VE_MTurk/MX_fS_HTML.html#86,86,1536,703,1536,864,1-8-2024,11-37-23,39,VR_target_stimuli/s7_0.75x_1.5_253.png,1000,0.75x,1.5,2.0,2724,994,meters,jsons/MX_seq41_2_VE1000.json,243779,396766,23,Woman
39,442954,final-intermixed-textured,v2,jsons/MX_seq41_2_VE1000.json,http://54.235.29.9/FacialAge/BNav_EC2/DepthDuration/MX_fS_VE_MTurk/MX_fS_HTML.html#86,86,1536,703,1536,864,1-8-2024,11-37-23,40,VR_target_stimuli/s20_1.3x_4.99_412_BC.png,1000,1.3x,4.99,9.0,3980,1000,meters,jsons/MX_seq41_2_VE1000.json,243779,396766,23,Woman
40,442954,final-intermixed-textured,v2,jsons/MX_seq41_2_VE1000.json,http://54.235.29.9/FacialAge/BNav_EC2/DepthDuration/MX_fS_VE_MTurk/MX_fS_HTML.html#86,86,1536,703,1536,864,1-8-2024,11-37-23,41,VR_target_stimuli/s31_0.75x_4.96_329.png,1000,0.75x,4.96,7.0,3304,998,meters,jsons/MX_seq41_2_VE1000.json,243779,396766,23,Woman
41,442954,final-intermixed-textured,v2,jsons/MX_seq41_2_VE1000.json,http://54.235.29.9/FacialAge/BNav_EC2/DepthDuration/MX_fS_VE_MTurk/MX_fS_HTML.html#86,86,1536,703,1536,864,1-8-2024,11-37-23,42,VR_target_stimuli/s33_1x_3.1_366.png,1000,1x,3.1,7.0,3292,1003,meters,jsons/MX_seq41_2_VE1000.json,243779,396766,23,Woman
42,442954,final-intermixed-textured,v2,jsons/MX_seq41_2_VE1000.json,http://54.235.29.9/FacialAge/BNav_EC2/DepthDuration/MX_fS_VE_MTurk/MX_fS_HTML.html#86,86,1536,703,1536,864,1-8-2024,11-37-23,43,VR_target_stimuli/s52_1.3x_3.2_280.png,1000,1.3x,3.2,5.0,4358,1000,meters,jsons/MX_seq41_2_VE1000.json,243779,396766,23,Woman
43,442954,final-intermixed-textured,v2,jsons/MX_seq41_2_VE1000.json,http://54.235.29.9/FacialAge/BNav_EC2/DepthDuration/MX_fS_VE_MTurk/MX_fS_HTML.html#86,86,1536,703,1536,864,1-8-2024,11-37-23,44,VR_target_stimuli/s32_1x_1.5_218_BC.png,1000,1x,1.5,5.0,3699,1003,meters,jsons/MX_seq41_2_VE1000.json,243779,396766,23,Woman
44,442954,final-intermixed-textured,v2,jsons/MX_seq41_2_VE1000.json,http://54.235.29.9/FacialAge/BNav_EC2/DepthDuration/MX_fS_VE_MTurk/MX_fS_HTML.html#86,86,1536,703,1536,864,1-8-2024,11-37-23,45,catch_stimuli/c4.png,1000,,,0.0,4319,997,meters,jsons/MX_seq41_2_VE1000.json,243779,396766,23,Woman
45,442954,final-intermixed-textured,v2,jsons/MX_seq41_2_VE1000.json,http://54.235.29.9/FacialAge/BNav_EC2/DepthDuration/MX_fS_VE_MTurk/MX_fS_HTML.html#86,86,1536,703,1536,864,1-8-2024,11-37-23,46,VR_target_stimuli/s18_0.75x_2.25_341_BC.png,1000,0.75x,2.25,3.0,2836,1012,meters,jsons/MX_seq41_2_VE1000.json,243779,396766,23,Woman
46,442954,final-intermixed-textured,v2,jsons/MX_seq41_2_VE1000.json,http://54.235.29.9/FacialAge/BNav_EC2/DepthDuration/MX_fS_VE_MTurk/MX_fS_HTML.html#86,86,1536,703,1536,864,1-8-2024,11-37-23,47,VR_target_stimuli/s39_1.3x_1_208_BC.png,1000,1.3x,1.0,1.0,3795,996,meters,jsons/MX_seq41_2_VE1000.json,243779,396766,23,Woman
47,442954,final-intermixed-textured,v2,jsons/MX_seq41_2_VE1000.json,http://54.235.29.9/FacialAge/BNav_EC2/DepthDuration/MX_fS_VE_MTurk/MX_fS_HTML.html#86,86,1536,703,1536,864,1-8-2024,11-37-23,48,VR_target_stimuli/s51_1.3x_3.64_479_BC.png,1000,1.3x,3.64,4.0,3165,1013,meters,jsons/MX_seq41_2_VE1000.json,243779,396766,23,Woman
48,442954,final-intermixed-textured,v2,jsons/MX_seq41_2_VE1000.json,http://54.235.29.9/FacialAge/BNav_EC2/DepthDuration/MX_fS_VE_MTurk/MX_fS_HTML.html#86,86,1536,703,1536,864,1-8-2024,11-37-23,49,VR_target_stimuli/s43_1x_2.2_354_BC.png,1000,1x,2.2,4.0,2592,997,meters,jsons/MX_seq41_2_VE1000.json,243779,396766,23,Woman
49,442954,final-intermixed-textured,v2,jsons/MX_seq41_2_VE1000.json,http://54.235.29.9/FacialAge/BNav_EC2/DepthDuration/MX_fS_VE_MTurk/MX_fS_HTML.html#86,86,1536,703,1536,864,1-8-2024,11-37-23,50,VR_target_stimuli/s24_0.75x_3.3_344.png,1000,0.75x,3.3,4.0,2660,1008,meters,jsons/MX_seq41_2_VE1000.json,243779,396766,23,Woman
50,442954,final-intermixed-textured,v2,jsons/MX_seq41_2_VE1000.json,http://54.235.29.9/FacialAge/BNav_EC2/DepthDuration/MX_fS_VE_MTurk/MX_fS_HTML.html#86,86,1536,703,1536,864,1-8-2024,11-37-23,51,VR_target_stimuli/s10_1x_2.7_324.png,1000,1x,2.7,4.0,3515,1000,meters,jsons/MX_seq41_2_VE1000.json,243779,396766,23,Woman
51,442954,final-intermixed-textured,v2,jsons/MX_seq41_2_VE1000.json,http://54.235.29.9/FacialAge/BNav_EC2/DepthDuration/MX_fS_VE_MTurk/MX_fS_HTML.html#86,86,1536,703,1536,864,1-8-2024,11-37-23,52,VR_target_stimuli/s36_1.3x_4.1_442.png,1000,1.3x,4.1,3.0,2462,995,meters,jsons/MX_seq41_2_VE1000.json,243779,396766,23,Woman
52,442954,final-intermixed-textured,v2,jsons/MX_seq41_2_VE1000.json,http://54.235.29.9/FacialAge/BNav_EC2/DepthDuration/MX_fS_VE_MTurk/MX_fS_HTML.html#86,86,1536,703,1536,864,1-8-2024,11-37-23,53,catch_stimuli/c5.png,1000,,,0.0,3307,1009,meters,jsons/MX_seq41_2_VE1000.json,243779,396766,23,Woman
53,442954,final-intermixed-textured,v2,jsons/MX_seq41_2_VE1000.json,http://54.235.29.9/FacialAge/BNav_EC2/DepthDuration/MX_fS_VE_MTurk/MX_fS_HTML.html#86,86,1536,703,1536,864,1-8-2024,11-37-23,54,VR_target_stimuli/s40_0.75x_1.2_308_BC.png,1000,0.75x,1.2,3.0,2924,1004,meters,jsons/MX_seq41_2_VE1000.json,243779,396766,23,Woman
54,442954,final-intermixed-textured,v2,jsons/MX_seq41_2_VE1000.json,http://54.235.29.9/FacialAge/BNav_EC2/DepthDuration/MX_fS_VE_MTurk/MX_fS_HTML.html#86,86,1536,703,1536,864,1-8-2024,11-37-23,55,VR_target_stimuli/s41_1.3x_2.1_294_BC.png,1000,1.3x,2.1,3.0,3019,987,meters,jsons/MX_seq41_2_VE1000.json,243779,396766,23,Woman
55,442954,final-intermixed-textured,v2,jsons/MX_seq41_2_VE1000.json,http://54.235.29.9/FacialAge/BNav_EC2/DepthDuration/MX_fS_VE_MTurk/MX_fS_HTML.html#86,86,1536,703,1536,864,1-8-2024,11-37-23,56,VR_target_stimuli/s45_1x_3.5_368.png,1000,1x,3.5,4.0,2629,999,meters,jsons/MX_seq41_2_VE1000.json,243779,396766,23,Woman
56,442954,final-intermixed-textured,v2,jsons/MX_seq41_2_VE1000.json,http://54.235.29.9/FacialAge/BNav_EC2/DepthDuration/MX_fS_VE_MTurk/MX_fS_HTML.html#86,86,1536,703,1536,864,1-8-2024,11-37-23,57,VR_target_stimuli/s23_0.75x_3.65_351_BC.png,1000,0.75x,3.65,5.0,2707,1001,meters,jsons/MX_seq41_2_VE1000.json,243779,396766,23,Woman
57,442954,final-intermixed-textured,v2,jsons/MX_seq41_2_VE1000.json,http://54.235.29.9/FacialAge/BNav_EC2/DepthDuration/MX_fS_VE_MTurk/MX_fS_HTML.html#86,86,1536,703,1536,864,1-8-2024,11-37-23,58,VR_target_stimuli/s26_0.75x_4_430.png,1000,0.75x,4.0,4.0,2762,986,meters,jsons/MX_seq41_2_VE1000.json,243779,396766,23,Woman
58,442954,final-intermixed-textured,v2,jsons/MX_seq41_2_VE1000.json,http://54.235.29.9/FacialAge/BNav_EC2/DepthDuration/MX_fS_VE_MTurk/MX_fS_HTML.html#86,86,1536,703,1536,864,1-8-2024,11-37-23,59,VR_target_stimuli/s12_1.3x_3.1_375.png,1000,1.3x,3.1,3.0,2506,997,meters,jsons/MX_seq41_2_VE1000.json,243779,396766,23,Woman
59,442954,final-intermixed-textured,v2,jsons/MX_seq41_2_VE1000.json,http://54.235.29.9/FacialAge/BNav_EC2/DepthDuration/MX_fS_VE_MTurk/MX_fS_HTML.html#86,86,1536,703,1536,864,1-8-2024,11-37-23,60,VR_target_stimuli/s30_1x_2.3_334_BC.png,1000,1x,2.3,3.0,2796,1006,meters,jsons/MX_seq41_2_VE1000.json,243779,396766,23,Woman
