,subjID,experimentName,versionName,sequenceName,url,selected_row,windowWidth,windowHeight,screenWidth,screenHeight,startDate,startTime,trial,stimulus,duration,scale,actual_depth,depth_estimate,trial_RT,log_sceneDuration,unitSelection,seq_filepath,experimentTime,totalTime,age,gender
0,442980,final-intermixed-textured,v2,jsons/MX_seq52_0_VE1000.json,http://54.235.29.9/FacialAge/BNav_EC2/DepthDuration/MX_fS_VE_MTurk/MX_fS_HTML.html#176,176,1879,939,1920,1080,1-8-2024,13-55-36,1,VR_target_stimuli/s9_0.75x_1.2_260.png,1000,0.75x,1.2,2,5343,998,meters,jsons/MX_seq52_0_VE1000.json,207543,385138,24,Man
1,442980,final-intermixed-textured,v2,jsons/MX_seq52_0_VE1000.json,http://54.235.29.9/FacialAge/BNav_EC2/DepthDuration/MX_fS_VE_MTurk/MX_fS_HTML.html#176,176,1879,939,1920,1080,1-8-2024,13-55-36,2,VR_target_stimuli/s44_1x_4.4_317_BC.png,1000,1x,4.4,5,5369,997,meters,jsons/MX_seq52_0_VE1000.json,207543,385138,24,Man
2,442980,final-intermixed-textured,v2,jsons/MX_seq52_0_VE1000.json,http://54.235.29.9/FacialAge/BNav_EC2/DepthDuration/MX_fS_VE_MTurk/MX_fS_HTML.html#176,176,1879,939,1920,1080,1-8-2024,13-55-36,3,VR_target_stimuli/s3_1.3x_5_390.png,1000,1.3x,5.0,4,3447,995,meters,jsons/MX_seq52_0_VE1000.json,207543,385138,24,Man
3,442980,final-intermixed-textured,v2,jsons/MX_seq52_0_VE1000.json,http://54.235.29.9/FacialAge/BNav_EC2/DepthDuration/MX_fS_VE_MTurk/MX_fS_HTML.html#176,176,1879,939,1920,1080,1-8-2024,13-55-36,4,VR_target_stimuli/s1_1x_1.7_262.png,1000,1x,1.7,3,4939,994,meters,jsons/MX_seq52_0_VE1000.json,207543,385138,24,Man
4,442980,final-intermixed-textured,v2,jsons/MX_seq52_0_VE1000.json,http://54.235.29.9/FacialAge/BNav_EC2/DepthDuration/MX_fS_VE_MTurk/MX_fS_HTML.html#176,176,1879,939,1920,1080,1-8-2024,13-55-36,5,VR_target_stimuli/s11_0.75x_5_359_BC.png,1000,0.75x,5.0,5,2838,996,meters,jsons/MX_seq52_0_VE1000.json,207543,385138,24,Man
5,442980,final-intermixed-textured,v2,jsons/MX_seq52_0_VE1000.json,http://54.235.29.9/FacialAge/BNav_EC2/DepthDuration/MX_fS_VE_MTurk/MX_fS_HTML.html#176,176,1879,939,1920,1080,1-8-2024,13-55-36,6,VR_target_stimuli/s2_1.3x_2.7_397_BC.png,1000,1.3x,2.7,3,3171,992,meters,jsons/MX_seq52_0_VE1000.json,207543,385138,24,Man
6,442980,final-intermixed-textured,v2,jsons/MX_seq52_0_VE1000.json,http://54.235.29.9/FacialAge/BNav_EC2/DepthDuration/MX_fS_VE_MTurk/MX_fS_HTML.html#176,176,1879,939,1920,1080,1-8-2024,13-55-36,7,catch_stimuli/c0.png,1000,,,0,2661,1007,meters,jsons/MX_seq52_0_VE1000.json,207543,385138,24,Man
7,442980,final-intermixed-textured,v2,jsons/MX_seq52_0_VE1000.json,http://54.235.29.9/FacialAge/BNav_EC2/DepthDuration/MX_fS_VE_MTurk/MX_fS_HTML.html#176,176,1879,939,1920,1080,1-8-2024,13-55-36,8,VR_target_stimuli/s6_1.3x_2.1_298.png,1000,1.3x,2.1,3,2685,998,meters,jsons/MX_seq52_0_VE1000.json,207543,385138,24,Man
8,442980,final-intermixed-textured,v2,jsons/MX_seq52_0_VE1000.json,http://54.235.29.9/FacialAge/BNav_EC2/DepthDuration/MX_fS_VE_MTurk/MX_fS_HTML.html#176,176,1879,939,1920,1080,1-8-2024,13-55-36,9,VR_target_stimuli/s0_1x_2.6_351_BC.png,1000,1x,2.6,4,3036,1001,meters,jsons/MX_seq52_0_VE1000.json,207543,385138,24,Man
9,442980,final-intermixed-textured,v2,jsons/MX_seq52_0_VE1000.json,http://54.235.29.9/FacialAge/BNav_EC2/DepthDuration/MX_fS_VE_MTurk/MX_fS_HTML.html#176,176,1879,939,1920,1080,1-8-2024,13-55-36,10,VR_target_stimuli/s34_0.75x_2.8_269.png,1000,0.75x,2.8,3,2708,998,meters,jsons/MX_seq52_0_VE1000.json,207543,385138,24,Man
10,442980,final-intermixed-textured,v2,jsons/MX_seq52_0_VE1000.json,http://54.235.29.9/FacialAge/BNav_EC2/DepthDuration/MX_fS_VE_MTurk/MX_fS_HTML.html#176,176,1879,939,1920,1080,1-8-2024,13-55-36,11,VR_target_stimuli/s13_1x_2.4_310.png,1000,1x,2.4,3,3057,1010,meters,jsons/MX_seq52_0_VE1000.json,207543,385138,24,Man
11,442980,final-intermixed-textured,v2,jsons/MX_seq52_0_VE1000.json,http://54.235.29.9/FacialAge/BNav_EC2/DepthDuration/MX_fS_VE_MTurk/MX_fS_HTML.html#176,176,1879,939,1920,1080,1-8-2024,13-55-36,12,VR_target_stimuli/s14_1.3x_3.83_359_BC.png,1000,1.3x,3.83,3,2653,998,meters,jsons/MX_seq52_0_VE1000.json,207543,385138,24,Man
12,442980,final-intermixed-textured,v2,jsons/MX_seq52_0_VE1000.json,http://54.235.29.9/FacialAge/BNav_EC2/DepthDuration/MX_fS_VE_MTurk/MX_fS_HTML.html#176,176,1879,939,1920,1080,1-8-2024,13-55-36,13,VR_target_stimuli/s47_0.75x_3.45_366_BC.png,1000,0.75x,3.45,4,4268,997,meters,jsons/MX_seq52_0_VE1000.json,207543,385138,24,Man
13,442980,final-intermixed-textured,v2,jsons/MX_seq52_0_VE1000.json,http://54.235.29.9/FacialAge/BNav_EC2/DepthDuration/MX_fS_VE_MTurk/MX_fS_HTML.html#176,176,1879,939,1920,1080,1-8-2024,13-55-36,14,VR_target_stimuli/s29_1.3x_1.3_253.png,1000,1.3x,1.3,3,2717,996,meters,jsons/MX_seq52_0_VE1000.json,207543,385138,24,Man
14,442980,final-intermixed-textured,v2,jsons/MX_seq52_0_VE1000.json,http://54.235.29.9/FacialAge/BNav_EC2/DepthDuration/MX_fS_VE_MTurk/MX_fS_HTML.html#176,176,1879,939,1920,1080,1-8-2024,13-55-36,15,VR_target_stimuli/s28_1x_3.2_362.png,1000,1x,3.2,4,2792,998,meters,jsons/MX_seq52_0_VE1000.json,207543,385138,24,Man
15,442980,final-intermixed-textured,v2,jsons/MX_seq52_0_VE1000.json,http://54.235.29.9/FacialAge/BNav_EC2/DepthDuration/MX_fS_VE_MTurk/MX_fS_HTML.html#176,176,1879,939,1920,1080,1-8-2024,13-55-36,16,VR_target_stimuli/s48_0.75x_2.55_243.png,1000,0.75x,2.55,5,2734,995,meters,jsons/MX_seq52_0_VE1000.json,207543,385138,24,Man
16,442980,final-intermixed-textured,v2,jsons/MX_seq52_0_VE1000.json,http://54.235.29.9/FacialAge/BNav_EC2/DepthDuration/MX_fS_VE_MTurk/MX_fS_HTML.html#176,176,1879,939,1920,1080,1-8-2024,13-55-36,17,catch_stimuli/c1.png,1000,,,0,2560,998,meters,jsons/MX_seq52_0_VE1000.json,207543,385138,24,Man
17,442980,final-intermixed-textured,v2,jsons/MX_seq52_0_VE1000.json,http://54.235.29.9/FacialAge/BNav_EC2/DepthDuration/MX_fS_VE_MTurk/MX_fS_HTML.html#176,176,1879,939,1920,1080,1-8-2024,13-55-36,18,VR_target_stimuli/s19_0.75x_1.21_257_BC.png,1000,0.75x,1.21,4,3318,994,meters,jsons/MX_seq52_0_VE1000.json,207543,385138,24,Man
18,442980,final-intermixed-textured,v2,jsons/MX_seq52_0_VE1000.json,http://54.235.29.9/FacialAge/BNav_EC2/DepthDuration/MX_fS_VE_MTurk/MX_fS_HTML.html#176,176,1879,939,1920,1080,1-8-2024,13-55-36,19,VR_target_stimuli/s21_1.3x_4.22_384_BC.png,1000,1.3x,4.22,6,2723,995,meters,jsons/MX_seq52_0_VE1000.json,207543,385138,24,Man
19,442980,final-intermixed-textured,v2,jsons/MX_seq52_0_VE1000.json,http://54.235.29.9/FacialAge/BNav_EC2/DepthDuration/MX_fS_VE_MTurk/MX_fS_HTML.html#176,176,1879,939,1920,1080,1-8-2024,13-55-36,20,VR_target_stimuli/s8_1x_3.1_332_BC.png,1000,1x,3.1,4,2493,994,meters,jsons/MX_seq52_0_VE1000.json,207543,385138,24,Man
20,442980,final-intermixed-textured,v2,jsons/MX_seq52_0_VE1000.json,http://54.235.29.9/FacialAge/BNav_EC2/DepthDuration/MX_fS_VE_MTurk/MX_fS_HTML.html#176,176,1879,939,1920,1080,1-8-2024,13-55-36,21,VR_target_stimuli/s27_1.3x_1.76_250_BC.png,1000,1.3x,1.76,3,2428,1003,meters,jsons/MX_seq52_0_VE1000.json,207543,385138,24,Man
21,442980,final-intermixed-textured,v2,jsons/MX_seq52_0_VE1000.json,http://54.235.29.9/FacialAge/BNav_EC2/DepthDuration/MX_fS_VE_MTurk/MX_fS_HTML.html#176,176,1879,939,1920,1080,1-8-2024,13-55-36,22,VR_target_stimuli/s15_0.75x_4.2_388_BC.png,1000,0.75x,4.2,5,2630,1009,meters,jsons/MX_seq52_0_VE1000.json,207543,385138,24,Man
22,442980,final-intermixed-textured,v2,jsons/MX_seq52_0_VE1000.json,http://54.235.29.9/FacialAge/BNav_EC2/DepthDuration/MX_fS_VE_MTurk/MX_fS_HTML.html#176,176,1879,939,1920,1080,1-8-2024,13-55-36,23,VR_target_stimuli/s4_1x_1.4_313.png,1000,1x,1.4,3,2718,999,meters,jsons/MX_seq52_0_VE1000.json,207543,385138,24,Man
23,442980,final-intermixed-textured,v2,jsons/MX_seq52_0_VE1000.json,http://54.235.29.9/FacialAge/BNav_EC2/DepthDuration/MX_fS_VE_MTurk/MX_fS_HTML.html#176,176,1879,939,1920,1080,1-8-2024,13-55-36,24,VR_target_stimuli/s35_0.75x_2_323.png,1000,0.75x,2.0,3,2829,995,meters,jsons/MX_seq52_0_VE1000.json,207543,385138,24,Man
24,442980,final-intermixed-textured,v2,jsons/MX_seq52_0_VE1000.json,http://54.235.29.9/FacialAge/BNav_EC2/DepthDuration/MX_fS_VE_MTurk/MX_fS_HTML.html#176,176,1879,939,1920,1080,1-8-2024,13-55-36,25,VR_target_stimuli/s49_1.3x_4.67_354.png,1000,1.3x,4.67,5,2579,1010,meters,jsons/MX_seq52_0_VE1000.json,207543,385138,24,Man
25,442980,final-intermixed-textured,v2,jsons/MX_seq52_0_VE1000.json,http://54.235.29.9/FacialAge/BNav_EC2/DepthDuration/MX_fS_VE_MTurk/MX_fS_HTML.html#176,176,1879,939,1920,1080,1-8-2024,13-55-36,26,catch_stimuli/c2.png,1000,,,0,2489,1010,meters,jsons/MX_seq52_0_VE1000.json,207543,385138,24,Man
26,442980,final-intermixed-textured,v2,jsons/MX_seq52_0_VE1000.json,http://54.235.29.9/FacialAge/BNav_EC2/DepthDuration/MX_fS_VE_MTurk/MX_fS_HTML.html#176,176,1879,939,1920,1080,1-8-2024,13-55-36,27,VR_target_stimuli/s7_1x_1.5_255_BC.png,1000,1x,1.5,3,3074,1009,meters,jsons/MX_seq52_0_VE1000.json,207543,385138,24,Man
27,442980,final-intermixed-textured,v2,jsons/MX_seq52_0_VE1000.json,http://54.235.29.9/FacialAge/BNav_EC2/DepthDuration/MX_fS_VE_MTurk/MX_fS_HTML.html#176,176,1879,939,1920,1080,1-8-2024,13-55-36,28,VR_target_stimuli/s20_1x_4.99_398_BC.png,1000,1x,4.99,5,3508,995,meters,jsons/MX_seq52_0_VE1000.json,207543,385138,24,Man
28,442980,final-intermixed-textured,v2,jsons/MX_seq52_0_VE1000.json,http://54.235.29.9/FacialAge/BNav_EC2/DepthDuration/MX_fS_VE_MTurk/MX_fS_HTML.html#176,176,1879,939,1920,1080,1-8-2024,13-55-36,29,VR_target_stimuli/s31_0.75x_4.96_329_BC.png,1000,0.75x,4.96,5,2478,995,meters,jsons/MX_seq52_0_VE1000.json,207543,385138,24,Man
29,442980,final-intermixed-textured,v2,jsons/MX_seq52_0_VE1000.json,http://54.235.29.9/FacialAge/BNav_EC2/DepthDuration/MX_fS_VE_MTurk/MX_fS_HTML.html#176,176,1879,939,1920,1080,1-8-2024,13-55-36,30,VR_target_stimuli/s33_1.3x_3.1_378.png,1000,1.3x,3.1,5,2566,990,meters,jsons/MX_seq52_0_VE1000.json,207543,385138,24,Man
30,442980,final-intermixed-textured,v2,jsons/MX_seq52_0_VE1000.json,http://54.235.29.9/FacialAge/BNav_EC2/DepthDuration/MX_fS_VE_MTurk/MX_fS_HTML.html#176,176,1879,939,1920,1080,1-8-2024,13-55-36,31,VR_target_stimuli/s52_1x_3.2_275.png,1000,1x,3.2,6,3382,997,meters,jsons/MX_seq52_0_VE1000.json,207543,385138,24,Man
31,442980,final-intermixed-textured,v2,jsons/MX_seq52_0_VE1000.json,http://54.235.29.9/FacialAge/BNav_EC2/DepthDuration/MX_fS_VE_MTurk/MX_fS_HTML.html#176,176,1879,939,1920,1080,1-8-2024,13-55-36,32,VR_target_stimuli/s32_1.3x_1.5_224_BC.png,1000,1.3x,1.5,4,3284,997,meters,jsons/MX_seq52_0_VE1000.json,207543,385138,24,Man
32,442980,final-intermixed-textured,v2,jsons/MX_seq52_0_VE1000.json,http://54.235.29.9/FacialAge/BNav_EC2/DepthDuration/MX_fS_VE_MTurk/MX_fS_HTML.html#176,176,1879,939,1920,1080,1-8-2024,13-55-36,33,VR_target_stimuli/s18_0.75x_2.25_341.png,1000,0.75x,2.25,3,2506,1001,meters,jsons/MX_seq52_0_VE1000.json,207543,385138,24,Man
33,442980,final-intermixed-textured,v2,jsons/MX_seq52_0_VE1000.json,http://54.235.29.9/FacialAge/BNav_EC2/DepthDuration/MX_fS_VE_MTurk/MX_fS_HTML.html#176,176,1879,939,1920,1080,1-8-2024,13-55-36,34,catch_stimuli/c3.png,1000,,,0,2979,998,meters,jsons/MX_seq52_0_VE1000.json,207543,385138,24,Man
34,442980,final-intermixed-textured,v2,jsons/MX_seq52_0_VE1000.json,http://54.235.29.9/FacialAge/BNav_EC2/DepthDuration/MX_fS_VE_MTurk/MX_fS_HTML.html#176,176,1879,939,1920,1080,1-8-2024,13-55-36,35,VR_target_stimuli/s39_1.3x_1_208.png,1000,1.3x,1.0,2,3117,998,meters,jsons/MX_seq52_0_VE1000.json,207543,385138,24,Man
35,442980,final-intermixed-textured,v2,jsons/MX_seq52_0_VE1000.json,http://54.235.29.9/FacialAge/BNav_EC2/DepthDuration/MX_fS_VE_MTurk/MX_fS_HTML.html#176,176,1879,939,1920,1080,1-8-2024,13-55-36,36,VR_target_stimuli/s51_1x_3.64_461_BC.png,1000,1x,3.64,3,2676,998,meters,jsons/MX_seq52_0_VE1000.json,207543,385138,24,Man
36,442980,final-intermixed-textured,v2,jsons/MX_seq52_0_VE1000.json,http://54.235.29.9/FacialAge/BNav_EC2/DepthDuration/MX_fS_VE_MTurk/MX_fS_HTML.html#176,176,1879,939,1920,1080,1-8-2024,13-55-36,37,VR_target_stimuli/s43_0.75x_2.2_348.png,1000,0.75x,2.2,4,2518,1010,meters,jsons/MX_seq52_0_VE1000.json,207543,385138,24,Man
37,442980,final-intermixed-textured,v2,jsons/MX_seq52_0_VE1000.json,http://54.235.29.9/FacialAge/BNav_EC2/DepthDuration/MX_fS_VE_MTurk/MX_fS_HTML.html#176,176,1879,939,1920,1080,1-8-2024,13-55-36,38,VR_target_stimuli/s24_0.75x_3.3_344_BC.png,1000,0.75x,3.3,5,2604,1015,meters,jsons/MX_seq52_0_VE1000.json,207543,385138,24,Man
38,442980,final-intermixed-textured,v2,jsons/MX_seq52_0_VE1000.json,http://54.235.29.9/FacialAge/BNav_EC2/DepthDuration/MX_fS_VE_MTurk/MX_fS_HTML.html#176,176,1879,939,1920,1080,1-8-2024,13-55-36,39,VR_target_stimuli/s10_1.3x_2.7_325_BC.png,1000,1.3x,2.7,4,2407,995,meters,jsons/MX_seq52_0_VE1000.json,207543,385138,24,Man
39,442980,final-intermixed-textured,v2,jsons/MX_seq52_0_VE1000.json,http://54.235.29.9/FacialAge/BNav_EC2/DepthDuration/MX_fS_VE_MTurk/MX_fS_HTML.html#176,176,1879,939,1920,1080,1-8-2024,13-55-36,40,VR_target_stimuli/s36_1x_4.1_423.png,1000,1x,4.1,5,2700,1011,meters,jsons/MX_seq52_0_VE1000.json,207543,385138,24,Man
40,442980,final-intermixed-textured,v2,jsons/MX_seq52_0_VE1000.json,http://54.235.29.9/FacialAge/BNav_EC2/DepthDuration/MX_fS_VE_MTurk/MX_fS_HTML.html#176,176,1879,939,1920,1080,1-8-2024,13-55-36,41,VR_target_stimuli/s40_1.3x_1.2_332.png,1000,1.3x,1.2,2,4839,998,meters,jsons/MX_seq52_0_VE1000.json,207543,385138,24,Man
41,442980,final-intermixed-textured,v2,jsons/MX_seq52_0_VE1000.json,http://54.235.29.9/FacialAge/BNav_EC2/DepthDuration/MX_fS_VE_MTurk/MX_fS_HTML.html#176,176,1879,939,1920,1080,1-8-2024,13-55-36,42,VR_target_stimuli/s41_0.75x_2.1_281.png,1000,0.75x,2.1,4,3476,1001,meters,jsons/MX_seq52_0_VE1000.json,207543,385138,24,Man
42,442980,final-intermixed-textured,v2,jsons/MX_seq52_0_VE1000.json,http://54.235.29.9/FacialAge/BNav_EC2/DepthDuration/MX_fS_VE_MTurk/MX_fS_HTML.html#176,176,1879,939,1920,1080,1-8-2024,13-55-36,43,VR_target_stimuli/s45_1x_3.5_368_BC.png,1000,1x,3.5,4,2437,999,meters,jsons/MX_seq52_0_VE1000.json,207543,385138,24,Man
43,442980,final-intermixed-textured,v2,jsons/MX_seq52_0_VE1000.json,http://54.235.29.9/FacialAge/BNav_EC2/DepthDuration/MX_fS_VE_MTurk/MX_fS_HTML.html#176,176,1879,939,1920,1080,1-8-2024,13-55-36,44,VR_target_stimuli/s23_0.75x_3.65_351_BC.png,1000,0.75x,3.65,5,2507,1010,meters,jsons/MX_seq52_0_VE1000.json,207543,385138,24,Man
44,442980,final-intermixed-textured,v2,jsons/MX_seq52_0_VE1000.json,http://54.235.29.9/FacialAge/BNav_EC2/DepthDuration/MX_fS_VE_MTurk/MX_fS_HTML.html#176,176,1879,939,1920,1080,1-8-2024,13-55-36,45,catch_stimuli/c4.png,1000,,,0,2485,995,meters,jsons/MX_seq52_0_VE1000.json,207543,385138,24,Man
45,442980,final-intermixed-textured,v2,jsons/MX_seq52_0_VE1000.json,http://54.235.29.9/FacialAge/BNav_EC2/DepthDuration/MX_fS_VE_MTurk/MX_fS_HTML.html#176,176,1879,939,1920,1080,1-8-2024,13-55-36,46,VR_target_stimuli/s26_1.3x_4_441_BC.png,1000,1.3x,4.0,3,3216,1010,meters,jsons/MX_seq52_0_VE1000.json,207543,385138,24,Man
46,442980,final-intermixed-textured,v2,jsons/MX_seq52_0_VE1000.json,http://54.235.29.9/FacialAge/BNav_EC2/DepthDuration/MX_fS_VE_MTurk/MX_fS_HTML.html#176,176,1879,939,1920,1080,1-8-2024,13-55-36,47,VR_target_stimuli/s12_1x_3.1_372.png,1000,1x,3.1,4,2512,1010,meters,jsons/MX_seq52_0_VE1000.json,207543,385138,24,Man
47,442980,final-intermixed-textured,v2,jsons/MX_seq52_0_VE1000.json,http://54.235.29.9/FacialAge/BNav_EC2/DepthDuration/MX_fS_VE_MTurk/MX_fS_HTML.html#176,176,1879,939,1920,1080,1-8-2024,13-55-36,48,VR_target_stimuli/s30_1x_2.3_334.png,1000,1x,2.3,4,2475,998,meters,jsons/MX_seq52_0_VE1000.json,207543,385138,24,Man
48,442980,final-intermixed-textured,v2,jsons/MX_seq52_0_VE1000.json,http://54.235.29.9/FacialAge/BNav_EC2/DepthDuration/MX_fS_VE_MTurk/MX_fS_HTML.html#176,176,1879,939,1920,1080,1-8-2024,13-55-36,49,VR_target_stimuli/s16_0.75x_1_217.png,1000,0.75x,1.0,2,3081,1005,meters,jsons/MX_seq52_0_VE1000.json,207543,385138,24,Man
49,442980,final-intermixed-textured,v2,jsons/MX_seq52_0_VE1000.json,http://54.235.29.9/FacialAge/BNav_EC2/DepthDuration/MX_fS_VE_MTurk/MX_fS_HTML.html#176,176,1879,939,1920,1080,1-8-2024,13-55-36,50,VR_target_stimuli/s17_1.3x_1.8_300.png,1000,1.3x,1.8,3,2489,993,meters,jsons/MX_seq52_0_VE1000.json,207543,385138,24,Man
50,442980,final-intermixed-textured,v2,jsons/MX_seq52_0_VE1000.json,http://54.235.29.9/FacialAge/BNav_EC2/DepthDuration/MX_fS_VE_MTurk/MX_fS_HTML.html#176,176,1879,939,1920,1080,1-8-2024,13-55-36,51,VR_target_stimuli/s5_0.75x_4_375_BC.png,1000,0.75x,4.0,4,2680,998,meters,jsons/MX_seq52_0_VE1000.json,207543,385138,24,Man
51,442980,final-intermixed-textured,v2,jsons/MX_seq52_0_VE1000.json,http://54.235.29.9/FacialAge/BNav_EC2/DepthDuration/MX_fS_VE_MTurk/MX_fS_HTML.html#176,176,1879,939,1920,1080,1-8-2024,13-55-36,52,VR_target_stimuli/s37_1x_3.3_563_BC.png,1000,1x,3.3,4,2563,995,meters,jsons/MX_seq52_0_VE1000.json,207543,385138,24,Man
52,442980,final-intermixed-textured,v2,jsons/MX_seq52_0_VE1000.json,http://54.235.29.9/FacialAge/BNav_EC2/DepthDuration/MX_fS_VE_MTurk/MX_fS_HTML.html#176,176,1879,939,1920,1080,1-8-2024,13-55-36,53,catch_stimuli/c5.png,1000,,,0,2243,998,meters,jsons/MX_seq52_0_VE1000.json,207543,385138,24,Man
53,442980,final-intermixed-textured,v2,jsons/MX_seq52_0_VE1000.json,http://54.235.29.9/FacialAge/BNav_EC2/DepthDuration/MX_fS_VE_MTurk/MX_fS_HTML.html#176,176,1879,939,1920,1080,1-8-2024,13-55-36,54,VR_target_stimuli/s46_1.3x_2.42_354_BC.png,1000,1.3x,2.42,5,2875,1014,meters,jsons/MX_seq52_0_VE1000.json,207543,385138,24,Man
54,442980,final-intermixed-textured,v2,jsons/MX_seq52_0_VE1000.json,http://54.235.29.9/FacialAge/BNav_EC2/DepthDuration/MX_fS_VE_MTurk/MX_fS_HTML.html#176,176,1879,939,1920,1080,1-8-2024,13-55-36,55,VR_target_stimuli/s22_1x_4.29_354.png,1000,1x,4.29,6,2440,998,meters,jsons/MX_seq52_0_VE1000.json,207543,385138,24,Man
55,442980,final-intermixed-textured,v2,jsons/MX_seq52_0_VE1000.json,http://54.235.29.9/FacialAge/BNav_EC2/DepthDuration/MX_fS_VE_MTurk/MX_fS_HTML.html#176,176,1879,939,1920,1080,1-8-2024,13-55-36,56,VR_target_stimuli/s42_0.75x_3.2_301_BC.png,1000,0.75x,3.2,6,2485,998,meters,jsons/MX_seq52_0_VE1000.json,207543,385138,24,Man
56,442980,final-intermixed-textured,v2,jsons/MX_seq52_0_VE1000.json,http://54.235.29.9/FacialAge/BNav_EC2/DepthDuration/MX_fS_VE_MTurk/MX_fS_HTML.html#176,176,1879,939,1920,1080,1-8-2024,13-55-36,57,VR_target_stimuli/s25_1.3x_1.4_299_BC.png,1000,1.3x,1.4,3,3154,997,meters,jsons/MX_seq52_0_VE1000.json,207543,385138,24,Man
57,442980,final-intermixed-textured,v2,jsons/MX_seq52_0_VE1000.json,http://54.235.29.9/FacialAge/BNav_EC2/DepthDuration/MX_fS_VE_MTurk/MX_fS_HTML.html#176,176,1879,939,1920,1080,1-8-2024,13-55-36,58,VR_target_stimuli/s50_1.3x_4.53_518.png,1000,1.3x,4.53,4,2912,997,meters,jsons/MX_seq52_0_VE1000.json,207543,385138,24,Man
58,442980,final-intermixed-textured,v2,jsons/MX_seq52_0_VE1000.json,http://54.235.29.9/FacialAge/BNav_EC2/DepthDuration/MX_fS_VE_MTurk/MX_fS_HTML.html#176,176,1879,939,1920,1080,1-8-2024,13-55-36,59,VR_target_stimuli/s53_1x_1.6_387_BC.png,1000,1x,1.6,4,2384,998,meters,jsons/MX_seq52_0_VE1000.json,207543,385138,24,Man
59,442980,final-intermixed-textured,v2,jsons/MX_seq52_0_VE1000.json,http://54.235.29.9/FacialAge/BNav_EC2/DepthDuration/MX_fS_VE_MTurk/MX_fS_HTML.html#176,176,1879,939,1920,1080,1-8-2024,13-55-36,60,VR_target_stimuli/s38_0.75x_3.55_346.png,1000,0.75x,3.55,5,2866,1014,meters,jsons/MX_seq52_0_VE1000.json,207543,385138,24,Man
