,subjID,experimentName,versionName,sequenceName,url,selected_row,windowWidth,windowHeight,screenWidth,screenHeight,startDate,startTime,trial,stimulus,duration,scale,actual_depth,depth_estimate,trial_RT,log_sceneDuration,unitSelection,seq_filepath,experimentTime,totalTime,age,gender
0,457036,final-intermixed-textured,v2,jsons/MX_seq29_0_VE1000_flipped.json,http://54.235.29.9/FacialAge/BNav_EC2/DepthDuration/MX_fS_VE_MTurk/MX_fS_HTML.html#273,273,980,1708,412,846,1-8-2024,16-49-56,1,VR_target_stimuli/s51_0.75x_3.64_460.png,1000,0.75x,3.64,0,6016,998,meters,jsons/MX_seq29_0_VE1000_flipped.json,311910,493661,24,Woman
1,457036,final-intermixed-textured,v2,jsons/MX_seq29_0_VE1000_flipped.json,http://54.235.29.9/FacialAge/BNav_EC2/DepthDuration/MX_fS_VE_MTurk/MX_fS_HTML.html#273,273,980,1708,412,846,1-8-2024,16-49-56,2,VR_target_stimuli/s43_1x_2.2_354_BC.png,1000,1x,2.2,5,5396,1000,meters,jsons/MX_seq29_0_VE1000_flipped.json,311910,493661,24,Woman
2,457036,final-intermixed-textured,v2,jsons/MX_seq29_0_VE1000_flipped.json,http://54.235.29.9/FacialAge/BNav_EC2/DepthDuration/MX_fS_VE_MTurk/MX_fS_HTML.html#273,273,980,1708,412,846,1-8-2024,16-49-56,3,VR_target_stimuli/s24_1.3x_3.3_352.png,1000,1.3x,3.3,5,5720,1000,meters,jsons/MX_seq29_0_VE1000_flipped.json,311910,493661,24,Woman
3,457036,final-intermixed-textured,v2,jsons/MX_seq29_0_VE1000_flipped.json,http://54.235.29.9/FacialAge/BNav_EC2/DepthDuration/MX_fS_VE_MTurk/MX_fS_HTML.html#273,273,980,1708,412,846,1-8-2024,16-49-56,4,VR_target_stimuli/s10_1x_2.7_324.png,1000,1x,2.7,5,5017,998,meters,jsons/MX_seq29_0_VE1000_flipped.json,311910,493661,24,Woman
4,457036,final-intermixed-textured,v2,jsons/MX_seq29_0_VE1000_flipped.json,http://54.235.29.9/FacialAge/BNav_EC2/DepthDuration/MX_fS_VE_MTurk/MX_fS_HTML.html#273,273,980,1708,412,846,1-8-2024,16-49-56,5,VR_target_stimuli/s36_0.75x_4.1_407_BC.png,1000,0.75x,4.1,6,4885,999,meters,jsons/MX_seq29_0_VE1000_flipped.json,311910,493661,24,Woman
5,457036,final-intermixed-textured,v2,jsons/MX_seq29_0_VE1000_flipped.json,http://54.235.29.9/FacialAge/BNav_EC2/DepthDuration/MX_fS_VE_MTurk/MX_fS_HTML.html#273,273,980,1708,412,846,1-8-2024,16-49-56,6,VR_target_stimuli/s40_1.3x_1.2_332_BC.png,1000,1.3x,1.2,2,4469,997,meters,jsons/MX_seq29_0_VE1000_flipped.json,311910,493661,24,Woman
6,457036,final-intermixed-textured,v2,jsons/MX_seq29_0_VE1000_flipped.json,http://54.235.29.9/FacialAge/BNav_EC2/DepthDuration/MX_fS_VE_MTurk/MX_fS_HTML.html#273,273,980,1708,412,846,1-8-2024,16-49-56,7,catch_stimuli/c0_BC.png,1000,,,0,4743,999,meters,jsons/MX_seq29_0_VE1000_flipped.json,311910,493661,24,Woman
7,457036,final-intermixed-textured,v2,jsons/MX_seq29_0_VE1000_flipped.json,http://54.235.29.9/FacialAge/BNav_EC2/DepthDuration/MX_fS_VE_MTurk/MX_fS_HTML.html#273,273,980,1708,412,846,1-8-2024,16-49-56,8,VR_target_stimuli/s41_1.3x_2.1_294_BC.png,1000,1.3x,2.1,5,4568,1000,meters,jsons/MX_seq29_0_VE1000_flipped.json,311910,493661,24,Woman
8,457036,final-intermixed-textured,v2,jsons/MX_seq29_0_VE1000_flipped.json,http://54.235.29.9/FacialAge/BNav_EC2/DepthDuration/MX_fS_VE_MTurk/MX_fS_HTML.html#273,273,980,1708,412,846,1-8-2024,16-49-56,9,VR_target_stimuli/s45_1x_3.5_368_BC.png,1000,1x,3.5,6,4410,999,meters,jsons/MX_seq29_0_VE1000_flipped.json,311910,493661,24,Woman
9,457036,final-intermixed-textured,v2,jsons/MX_seq29_0_VE1000_flipped.json,http://54.235.29.9/FacialAge/BNav_EC2/DepthDuration/MX_fS_VE_MTurk/MX_fS_HTML.html#273,273,980,1708,412,846,1-8-2024,16-49-56,10,VR_target_stimuli/s23_0.75x_3.65_351.png,1000,0.75x,3.65,4,4571,999,meters,jsons/MX_seq29_0_VE1000_flipped.json,311910,493661,24,Woman
10,457036,final-intermixed-textured,v2,jsons/MX_seq29_0_VE1000_flipped.json,http://54.235.29.9/FacialAge/BNav_EC2/DepthDuration/MX_fS_VE_MTurk/MX_fS_HTML.html#273,273,980,1708,412,846,1-8-2024,16-49-56,11,VR_target_stimuli/s26_1x_4_433.png,1000,1x,4.0,2,4388,999,meters,jsons/MX_seq29_0_VE1000_flipped.json,311910,493661,24,Woman
11,457036,final-intermixed-textured,v2,jsons/MX_seq29_0_VE1000_flipped.json,http://54.235.29.9/FacialAge/BNav_EC2/DepthDuration/MX_fS_VE_MTurk/MX_fS_HTML.html#273,273,980,1708,412,846,1-8-2024,16-49-56,12,VR_target_stimuli/s12_1.3x_3.1_375.png,1000,1.3x,3.1,2,4793,999,meters,jsons/MX_seq29_0_VE1000_flipped.json,311910,493661,24,Woman
12,457036,final-intermixed-textured,v2,jsons/MX_seq29_0_VE1000_flipped.json,http://54.235.29.9/FacialAge/BNav_EC2/DepthDuration/MX_fS_VE_MTurk/MX_fS_HTML.html#273,273,980,1708,412,846,1-8-2024,16-49-56,13,VR_target_stimuli/s30_0.75x_2.3_332_BC.png,1000,0.75x,2.3,2,4523,999,meters,jsons/MX_seq29_0_VE1000_flipped.json,311910,493661,24,Woman
13,457036,final-intermixed-textured,v2,jsons/MX_seq29_0_VE1000_flipped.json,http://54.235.29.9/FacialAge/BNav_EC2/DepthDuration/MX_fS_VE_MTurk/MX_fS_HTML.html#273,273,980,1708,412,846,1-8-2024,16-49-56,14,VR_target_stimuli/s16_1.3x_1_223.png,1000,1.3x,1.0,1,4611,999,meters,jsons/MX_seq29_0_VE1000_flipped.json,311910,493661,24,Woman
14,457036,final-intermixed-textured,v2,jsons/MX_seq29_0_VE1000_flipped.json,http://54.235.29.9/FacialAge/BNav_EC2/DepthDuration/MX_fS_VE_MTurk/MX_fS_HTML.html#273,273,980,1708,412,846,1-8-2024,16-49-56,15,VR_target_stimuli/s17_1x_1.8_291_BC.png,1000,1x,1.8,1,4553,999,meters,jsons/MX_seq29_0_VE1000_flipped.json,311910,493661,24,Woman
15,457036,final-intermixed-textured,v2,jsons/MX_seq29_0_VE1000_flipped.json,http://54.235.29.9/FacialAge/BNav_EC2/DepthDuration/MX_fS_VE_MTurk/MX_fS_HTML.html#273,273,980,1708,412,846,1-8-2024,16-49-56,16,VR_target_stimuli/s5_0.75x_4_375.png,1000,0.75x,4.0,6,4520,999,meters,jsons/MX_seq29_0_VE1000_flipped.json,311910,493661,24,Woman
16,457036,final-intermixed-textured,v2,jsons/MX_seq29_0_VE1000_flipped.json,http://54.235.29.9/FacialAge/BNav_EC2/DepthDuration/MX_fS_VE_MTurk/MX_fS_HTML.html#273,273,980,1708,412,846,1-8-2024,16-49-56,17,catch_stimuli/c1_BC.png,1000,,,0,4383,998,meters,jsons/MX_seq29_0_VE1000_flipped.json,311910,493661,24,Woman
17,457036,final-intermixed-textured,v2,jsons/MX_seq29_0_VE1000_flipped.json,http://54.235.29.9/FacialAge/BNav_EC2/DepthDuration/MX_fS_VE_MTurk/MX_fS_HTML.html#273,273,980,1708,412,846,1-8-2024,16-49-56,18,VR_target_stimuli/s37_0.75x_3.3_567_BC.png,1000,0.75x,3.3,6,4345,998,meters,jsons/MX_seq29_0_VE1000_flipped.json,311910,493661,24,Woman
18,457036,final-intermixed-textured,v2,jsons/MX_seq29_0_VE1000_flipped.json,http://54.235.29.9/FacialAge/BNav_EC2/DepthDuration/MX_fS_VE_MTurk/MX_fS_HTML.html#273,273,980,1708,412,846,1-8-2024,16-49-56,19,VR_target_stimuli/s46_1.3x_2.42_354_BC.png,1000,1.3x,2.42,5,4267,998,meters,jsons/MX_seq29_0_VE1000_flipped.json,311910,493661,24,Woman
19,457036,final-intermixed-textured,v2,jsons/MX_seq29_0_VE1000_flipped.json,http://54.235.29.9/FacialAge/BNav_EC2/DepthDuration/MX_fS_VE_MTurk/MX_fS_HTML.html#273,273,980,1708,412,846,1-8-2024,16-49-56,20,VR_target_stimuli/s22_1x_4.29_354.png,1000,1x,4.29,5,5211,1000,meters,jsons/MX_seq29_0_VE1000_flipped.json,311910,493661,24,Woman
20,457036,final-intermixed-textured,v2,jsons/MX_seq29_0_VE1000_flipped.json,http://54.235.29.9/FacialAge/BNav_EC2/DepthDuration/MX_fS_VE_MTurk/MX_fS_HTML.html#273,273,980,1708,412,846,1-8-2024,16-49-56,21,VR_target_stimuli/s42_1.3x_3.2_305.png,1000,1.3x,3.2,6,4222,1000,meters,jsons/MX_seq29_0_VE1000_flipped.json,311910,493661,24,Woman
21,457036,final-intermixed-textured,v2,jsons/MX_seq29_0_VE1000_flipped.json,http://54.235.29.9/FacialAge/BNav_EC2/DepthDuration/MX_fS_VE_MTurk/MX_fS_HTML.html#273,273,980,1708,412,846,1-8-2024,16-49-56,22,VR_target_stimuli/s25_0.75x_1.4_281.png,1000,0.75x,1.4,3,4334,999,meters,jsons/MX_seq29_0_VE1000_flipped.json,311910,493661,24,Woman
22,457036,final-intermixed-textured,v2,jsons/MX_seq29_0_VE1000_flipped.json,http://54.235.29.9/FacialAge/BNav_EC2/DepthDuration/MX_fS_VE_MTurk/MX_fS_HTML.html#273,273,980,1708,412,846,1-8-2024,16-49-56,23,VR_target_stimuli/s50_1x_4.53_518_BC.png,1000,1x,4.53,0,4416,998,meters,jsons/MX_seq29_0_VE1000_flipped.json,311910,493661,24,Woman
23,457036,final-intermixed-textured,v2,jsons/MX_seq29_0_VE1000_flipped.json,http://54.235.29.9/FacialAge/BNav_EC2/DepthDuration/MX_fS_VE_MTurk/MX_fS_HTML.html#273,273,980,1708,412,846,1-8-2024,16-49-56,24,VR_target_stimuli/s53_0.75x_1.6_403_BC.png,1000,0.75x,1.6,3,4359,999,meters,jsons/MX_seq29_0_VE1000_flipped.json,311910,493661,24,Woman
24,457036,final-intermixed-textured,v2,jsons/MX_seq29_0_VE1000_flipped.json,http://54.235.29.9/FacialAge/BNav_EC2/DepthDuration/MX_fS_VE_MTurk/MX_fS_HTML.html#273,273,980,1708,412,846,1-8-2024,16-49-56,25,VR_target_stimuli/s38_1.3x_3.55_358_BC.png,1000,1.3x,3.55,5,4588,999,meters,jsons/MX_seq29_0_VE1000_flipped.json,311910,493661,24,Woman
25,457036,final-intermixed-textured,v2,jsons/MX_seq29_0_VE1000_flipped.json,http://54.235.29.9/FacialAge/BNav_EC2/DepthDuration/MX_fS_VE_MTurk/MX_fS_HTML.html#273,273,980,1708,412,846,1-8-2024,16-49-56,26,catch_stimuli/c2_BC.png,1000,,,0,4673,999,meters,jsons/MX_seq29_0_VE1000_flipped.json,311910,493661,24,Woman
26,457036,final-intermixed-textured,v2,jsons/MX_seq29_0_VE1000_flipped.json,http://54.235.29.9/FacialAge/BNav_EC2/DepthDuration/MX_fS_VE_MTurk/MX_fS_HTML.html#273,273,980,1708,412,846,1-8-2024,16-49-56,27,VR_target_stimuli/s9_1x_1.2_263.png,1000,1x,1.2,2,5370,999,meters,jsons/MX_seq29_0_VE1000_flipped.json,311910,493661,24,Woman
27,457036,final-intermixed-textured,v2,jsons/MX_seq29_0_VE1000_flipped.json,http://54.235.29.9/FacialAge/BNav_EC2/DepthDuration/MX_fS_VE_MTurk/MX_fS_HTML.html#273,273,980,1708,412,846,1-8-2024,16-49-56,28,VR_target_stimuli/s44_1x_4.4_317_BC.png,1000,1x,4.4,5,4513,1000,meters,jsons/MX_seq29_0_VE1000_flipped.json,311910,493661,24,Woman
28,457036,final-intermixed-textured,v2,jsons/MX_seq29_0_VE1000_flipped.json,http://54.235.29.9/FacialAge/BNav_EC2/DepthDuration/MX_fS_VE_MTurk/MX_fS_HTML.html#273,273,980,1708,412,846,1-8-2024,16-49-56,29,VR_target_stimuli/s3_0.75x_5_381_BC.png,1000,0.75x,5.0,8,4276,999,meters,jsons/MX_seq29_0_VE1000_flipped.json,311910,493661,24,Woman
29,457036,final-intermixed-textured,v2,jsons/MX_seq29_0_VE1000_flipped.json,http://54.235.29.9/FacialAge/BNav_EC2/DepthDuration/MX_fS_VE_MTurk/MX_fS_HTML.html#273,273,980,1708,412,846,1-8-2024,16-49-56,30,VR_target_stimuli/s1_1.3x_1.7_261.png,1000,1.3x,1.7,2,4417,1000,meters,jsons/MX_seq29_0_VE1000_flipped.json,311910,493661,24,Woman
30,457036,final-intermixed-textured,v2,jsons/MX_seq29_0_VE1000_flipped.json,http://54.235.29.9/FacialAge/BNav_EC2/DepthDuration/MX_fS_VE_MTurk/MX_fS_HTML.html#273,273,980,1708,412,846,1-8-2024,16-49-56,31,VR_target_stimuli/s11_1x_5_361.png,1000,1x,5.0,8,4184,999,meters,jsons/MX_seq29_0_VE1000_flipped.json,311910,493661,24,Woman
31,457036,final-intermixed-textured,v2,jsons/MX_seq29_0_VE1000_flipped.json,http://54.235.29.9/FacialAge/BNav_EC2/DepthDuration/MX_fS_VE_MTurk/MX_fS_HTML.html#273,273,980,1708,412,846,1-8-2024,16-49-56,32,VR_target_stimuli/s2_1.3x_2.7_397_BC.png,1000,1.3x,2.7,4,4596,999,meters,jsons/MX_seq29_0_VE1000_flipped.json,311910,493661,24,Woman
32,457036,final-intermixed-textured,v2,jsons/MX_seq29_0_VE1000_flipped.json,http://54.235.29.9/FacialAge/BNav_EC2/DepthDuration/MX_fS_VE_MTurk/MX_fS_HTML.html#273,273,980,1708,412,846,1-8-2024,16-49-56,33,VR_target_stimuli/s6_0.75x_2.1_290.png,1000,0.75x,2.1,2,4281,998,meters,jsons/MX_seq29_0_VE1000_flipped.json,311910,493661,24,Woman
33,457036,final-intermixed-textured,v2,jsons/MX_seq29_0_VE1000_flipped.json,http://54.235.29.9/FacialAge/BNav_EC2/DepthDuration/MX_fS_VE_MTurk/MX_fS_HTML.html#273,273,980,1708,412,846,1-8-2024,16-49-56,34,catch_stimuli/c3_BC.png,1000,,,0,6265,998,meters,jsons/MX_seq29_0_VE1000_flipped.json,311910,493661,24,Woman
34,457036,final-intermixed-textured,v2,jsons/MX_seq29_0_VE1000_flipped.json,http://54.235.29.9/FacialAge/BNav_EC2/DepthDuration/MX_fS_VE_MTurk/MX_fS_HTML.html#273,273,980,1708,412,846,1-8-2024,16-49-56,35,VR_target_stimuli/s0_1.3x_2.6_356_BC.png,1000,1.3x,2.6,2,4177,999,meters,jsons/MX_seq29_0_VE1000_flipped.json,311910,493661,24,Woman
35,457036,final-intermixed-textured,v2,jsons/MX_seq29_0_VE1000_flipped.json,http://54.235.29.9/FacialAge/BNav_EC2/DepthDuration/MX_fS_VE_MTurk/MX_fS_HTML.html#273,273,980,1708,412,846,1-8-2024,16-49-56,36,VR_target_stimuli/s34_1x_2.8_283.png,1000,1x,2.8,7,4564,999,meters,jsons/MX_seq29_0_VE1000_flipped.json,311910,493661,24,Woman
36,457036,final-intermixed-textured,v2,jsons/MX_seq29_0_VE1000_flipped.json,http://54.235.29.9/FacialAge/BNav_EC2/DepthDuration/MX_fS_VE_MTurk/MX_fS_HTML.html#273,273,980,1708,412,846,1-8-2024,16-49-56,37,VR_target_stimuli/s13_0.75x_2.4_308_BC.png,1000,0.75x,2.4,0,4424,997,meters,jsons/MX_seq29_0_VE1000_flipped.json,311910,493661,24,Woman
37,457036,final-intermixed-textured,v2,jsons/MX_seq29_0_VE1000_flipped.json,http://54.235.29.9/FacialAge/BNav_EC2/DepthDuration/MX_fS_VE_MTurk/MX_fS_HTML.html#273,273,980,1708,412,846,1-8-2024,16-49-56,38,VR_target_stimuli/s14_0.75x_3.83_355.png,1000,0.75x,3.83,7,4543,997,meters,jsons/MX_seq29_0_VE1000_flipped.json,311910,493661,24,Woman
38,457036,final-intermixed-textured,v2,jsons/MX_seq29_0_VE1000_flipped.json,http://54.235.29.9/FacialAge/BNav_EC2/DepthDuration/MX_fS_VE_MTurk/MX_fS_HTML.html#273,273,980,1708,412,846,1-8-2024,16-49-56,39,VR_target_stimuli/s47_1.3x_3.45_373.png,1000,1.3x,3.45,0,4674,999,meters,jsons/MX_seq29_0_VE1000_flipped.json,311910,493661,24,Woman
39,457036,final-intermixed-textured,v2,jsons/MX_seq29_0_VE1000_flipped.json,http://54.235.29.9/FacialAge/BNav_EC2/DepthDuration/MX_fS_VE_MTurk/MX_fS_HTML.html#273,273,980,1708,412,846,1-8-2024,16-49-56,40,VR_target_stimuli/s29_1x_1.3_250_BC.png,1000,1x,1.3,3,4319,999,meters,jsons/MX_seq29_0_VE1000_flipped.json,311910,493661,24,Woman
40,457036,final-intermixed-textured,v2,jsons/MX_seq29_0_VE1000_flipped.json,http://54.235.29.9/FacialAge/BNav_EC2/DepthDuration/MX_fS_VE_MTurk/MX_fS_HTML.html#273,273,980,1708,412,846,1-8-2024,16-49-56,41,VR_target_stimuli/s28_1.3x_3.2_365_BC.png,1000,1.3x,3.2,5,4177,998,meters,jsons/MX_seq29_0_VE1000_flipped.json,311910,493661,24,Woman
41,457036,final-intermixed-textured,v2,jsons/MX_seq29_0_VE1000_flipped.json,http://54.235.29.9/FacialAge/BNav_EC2/DepthDuration/MX_fS_VE_MTurk/MX_fS_HTML.html#273,273,980,1708,412,846,1-8-2024,16-49-56,42,VR_target_stimuli/s48_0.75x_2.55_243_BC.png,1000,0.75x,2.55,2,4063,998,meters,jsons/MX_seq29_0_VE1000_flipped.json,311910,493661,24,Woman
42,457036,final-intermixed-textured,v2,jsons/MX_seq29_0_VE1000_flipped.json,http://54.235.29.9/FacialAge/BNav_EC2/DepthDuration/MX_fS_VE_MTurk/MX_fS_HTML.html#273,273,980,1708,412,846,1-8-2024,16-49-56,43,VR_target_stimuli/s19_1x_1.21_263_BC.png,1000,1x,1.21,1,4443,999,meters,jsons/MX_seq29_0_VE1000_flipped.json,311910,493661,24,Woman
43,457036,final-intermixed-textured,v2,jsons/MX_seq29_0_VE1000_flipped.json,http://54.235.29.9/FacialAge/BNav_EC2/DepthDuration/MX_fS_VE_MTurk/MX_fS_HTML.html#273,273,980,1708,412,846,1-8-2024,16-49-56,44,VR_target_stimuli/s21_0.75x_4.22_374.png,1000,0.75x,4.22,0,5493,1000,meters,jsons/MX_seq29_0_VE1000_flipped.json,311910,493661,24,Woman
44,457036,final-intermixed-textured,v2,jsons/MX_seq29_0_VE1000_flipped.json,http://54.235.29.9/FacialAge/BNav_EC2/DepthDuration/MX_fS_VE_MTurk/MX_fS_HTML.html#273,273,980,1708,412,846,1-8-2024,16-49-56,45,catch_stimuli/c4_BC.png,1000,,,0,4463,999,meters,jsons/MX_seq29_0_VE1000_flipped.json,311910,493661,24,Woman
45,457036,final-intermixed-textured,v2,jsons/MX_seq29_0_VE1000_flipped.json,http://54.235.29.9/FacialAge/BNav_EC2/DepthDuration/MX_fS_VE_MTurk/MX_fS_HTML.html#273,273,980,1708,412,846,1-8-2024,16-49-56,46,VR_target_stimuli/s8_1.3x_3.1_345.png,1000,1.3x,3.1,4,4359,1000,meters,jsons/MX_seq29_0_VE1000_flipped.json,311910,493661,24,Woman
46,457036,final-intermixed-textured,v2,jsons/MX_seq29_0_VE1000_flipped.json,http://54.235.29.9/FacialAge/BNav_EC2/DepthDuration/MX_fS_VE_MTurk/MX_fS_HTML.html#273,273,980,1708,412,846,1-8-2024,16-49-56,47,VR_target_stimuli/s27_1x_1.76_248.png,1000,1x,1.76,5,4414,999,meters,jsons/MX_seq29_0_VE1000_flipped.json,311910,493661,24,Woman
47,457036,final-intermixed-textured,v2,jsons/MX_seq29_0_VE1000_flipped.json,http://54.235.29.9/FacialAge/BNav_EC2/DepthDuration/MX_fS_VE_MTurk/MX_fS_HTML.html#273,273,980,1708,412,846,1-8-2024,16-49-56,48,VR_target_stimuli/s15_1x_4.2_390.png,1000,1x,4.2,8,4519,999,meters,jsons/MX_seq29_0_VE1000_flipped.json,311910,493661,24,Woman
48,457036,final-intermixed-textured,v2,jsons/MX_seq29_0_VE1000_flipped.json,http://54.235.29.9/FacialAge/BNav_EC2/DepthDuration/MX_fS_VE_MTurk/MX_fS_HTML.html#273,273,980,1708,412,846,1-8-2024,16-49-56,49,VR_target_stimuli/s4_0.75x_1.4_301.png,1000,0.75x,1.4,0,4681,998,meters,jsons/MX_seq29_0_VE1000_flipped.json,311910,493661,24,Woman
49,457036,final-intermixed-textured,v2,jsons/MX_seq29_0_VE1000_flipped.json,http://54.235.29.9/FacialAge/BNav_EC2/DepthDuration/MX_fS_VE_MTurk/MX_fS_HTML.html#273,273,980,1708,412,846,1-8-2024,16-49-56,50,VR_target_stimuli/s35_1.3x_2_338.png,1000,1.3x,2.0,4,4465,1000,meters,jsons/MX_seq29_0_VE1000_flipped.json,311910,493661,24,Woman
50,457036,final-intermixed-textured,v2,jsons/MX_seq29_0_VE1000_flipped.json,http://54.235.29.9/FacialAge/BNav_EC2/DepthDuration/MX_fS_VE_MTurk/MX_fS_HTML.html#273,273,980,1708,412,846,1-8-2024,16-49-56,51,VR_target_stimuli/s49_0.75x_4.67_328_BC.png,1000,0.75x,4.67,4,7234,998,meters,jsons/MX_seq29_0_VE1000_flipped.json,311910,493661,24,Woman
51,457036,final-intermixed-textured,v2,jsons/MX_seq29_0_VE1000_flipped.json,http://54.235.29.9/FacialAge/BNav_EC2/DepthDuration/MX_fS_VE_MTurk/MX_fS_HTML.html#273,273,980,1708,412,846,1-8-2024,16-49-56,52,VR_target_stimuli/s7_1x_1.5_255_BC.png,1000,1x,1.5,2,4440,998,meters,jsons/MX_seq29_0_VE1000_flipped.json,311910,493661,24,Woman
52,457036,final-intermixed-textured,v2,jsons/MX_seq29_0_VE1000_flipped.json,http://54.235.29.9/FacialAge/BNav_EC2/DepthDuration/MX_fS_VE_MTurk/MX_fS_HTML.html#273,273,980,1708,412,846,1-8-2024,16-49-56,53,catch_stimuli/c5_BC.png,1000,,,0,4468,1000,meters,jsons/MX_seq29_0_VE1000_flipped.json,311910,493661,24,Woman
53,457036,final-intermixed-textured,v2,jsons/MX_seq29_0_VE1000_flipped.json,http://54.235.29.9/FacialAge/BNav_EC2/DepthDuration/MX_fS_VE_MTurk/MX_fS_HTML.html#273,273,980,1708,412,846,1-8-2024,16-49-56,54,VR_target_stimuli/s20_1.3x_4.99_412_BC.png,1000,1.3x,4.99,8,4246,997,meters,jsons/MX_seq29_0_VE1000_flipped.json,311910,493661,24,Woman
54,457036,final-intermixed-textured,v2,jsons/MX_seq29_0_VE1000_flipped.json,http://54.235.29.9/FacialAge/BNav_EC2/DepthDuration/MX_fS_VE_MTurk/MX_fS_HTML.html#273,273,980,1708,412,846,1-8-2024,16-49-56,55,VR_target_stimuli/s31_1x_4.96_333_BC.png,1000,1x,4.96,7,5753,998,meters,jsons/MX_seq29_0_VE1000_flipped.json,311910,493661,24,Woman
55,457036,final-intermixed-textured,v2,jsons/MX_seq29_0_VE1000_flipped.json,http://54.235.29.9/FacialAge/BNav_EC2/DepthDuration/MX_fS_VE_MTurk/MX_fS_HTML.html#273,273,980,1708,412,846,1-8-2024,16-49-56,56,VR_target_stimuli/s33_0.75x_3.1_361.png,1000,0.75x,3.1,6,4564,1000,meters,jsons/MX_seq29_0_VE1000_flipped.json,311910,493661,24,Woman
56,457036,final-intermixed-textured,v2,jsons/MX_seq29_0_VE1000_flipped.json,http://54.235.29.9/FacialAge/BNav_EC2/DepthDuration/MX_fS_VE_MTurk/MX_fS_HTML.html#273,273,980,1708,412,846,1-8-2024,16-49-56,57,VR_target_stimuli/s52_1.3x_3.2_280.png,1000,1.3x,3.2,0,4956,997,meters,jsons/MX_seq29_0_VE1000_flipped.json,311910,493661,24,Woman
57,457036,final-intermixed-textured,v2,jsons/MX_seq29_0_VE1000_flipped.json,http://54.235.29.9/FacialAge/BNav_EC2/DepthDuration/MX_fS_VE_MTurk/MX_fS_HTML.html#273,273,980,1708,412,846,1-8-2024,16-49-56,58,VR_target_stimuli/s32_1.3x_1.5_224_BC.png,1000,1.3x,1.5,1,5158,997,meters,jsons/MX_seq29_0_VE1000_flipped.json,311910,493661,24,Woman
58,457036,final-intermixed-textured,v2,jsons/MX_seq29_0_VE1000_flipped.json,http://54.235.29.9/FacialAge/BNav_EC2/DepthDuration/MX_fS_VE_MTurk/MX_fS_HTML.html#273,273,980,1708,412,846,1-8-2024,16-49-56,59,VR_target_stimuli/s18_1x_2.25_353.png,1000,1x,2.25,2,4445,996,meters,jsons/MX_seq29_0_VE1000_flipped.json,311910,493661,24,Woman
59,457036,final-intermixed-textured,v2,jsons/MX_seq29_0_VE1000_flipped.json,http://54.235.29.9/FacialAge/BNav_EC2/DepthDuration/MX_fS_VE_MTurk/MX_fS_HTML.html#273,273,980,1708,412,846,1-8-2024,16-49-56,60,VR_target_stimuli/s39_0.75x_1_205_BC.png,1000,0.75x,1.0,1,4814,996,meters,jsons/MX_seq29_0_VE1000_flipped.json,311910,493661,24,Woman
