,subjID,experimentName,versionName,sequenceName,url,selected_row,windowWidth,windowHeight,screenWidth,screenHeight,startDate,startTime,trial,stimulus,duration,scale,actual_depth,depth_estimate,trial_RT,log_sceneDuration,unitSelection,seq_filepath,experimentTime,totalTime,age,gender
0,463729,final-intermixed-textured,v2,jsons/MX_seq31_0_VE1000.json,http://54.235.29.9/FacialAge/BNav_EC2/DepthDuration/MX_fS_VE_MTurk/MX_fS_HTML.html#183,183,1536,864,1536,864,1-8-2024,14-0-4,1,VR_target_stimuli/s24_0.75x_3.3_344.png,1000,0.75x,3.3,6.0,3328,1007,meters,jsons/MX_seq31_0_VE1000.json,314201,476802,32,Man
1,463729,final-intermixed-textured,v2,jsons/MX_seq31_0_VE1000.json,http://54.235.29.9/FacialAge/BNav_EC2/DepthDuration/MX_fS_VE_MTurk/MX_fS_HTML.html#183,183,1536,864,1536,864,1-8-2024,14-0-4,2,VR_target_stimuli/s10_1x_2.7_324.png,1000,1x,2.7,4.0,5135,990,meters,jsons/MX_seq31_0_VE1000.json,314201,476802,32,Man
2,463729,final-intermixed-textured,v2,jsons/MX_seq31_0_VE1000.json,http://54.235.29.9/FacialAge/BNav_EC2/DepthDuration/MX_fS_VE_MTurk/MX_fS_HTML.html#183,183,1536,864,1536,864,1-8-2024,14-0-4,3,VR_target_stimuli/s36_1.3x_4.1_442_BC.png,1000,1.3x,4.1,5.0,4271,990,meters,jsons/MX_seq31_0_VE1000.json,314201,476802,32,Man
3,463729,final-intermixed-textured,v2,jsons/MX_seq31_0_VE1000.json,http://54.235.29.9/FacialAge/BNav_EC2/DepthDuration/MX_fS_VE_MTurk/MX_fS_HTML.html#183,183,1536,864,1536,864,1-8-2024,14-0-4,4,VR_target_stimuli/s40_1x_1.2_319_BC.png,1000,1x,1.2,2.0,3544,1005,meters,jsons/MX_seq31_0_VE1000.json,314201,476802,32,Man
4,463729,final-intermixed-textured,v2,jsons/MX_seq31_0_VE1000.json,http://54.235.29.9/FacialAge/BNav_EC2/DepthDuration/MX_fS_VE_MTurk/MX_fS_HTML.html#183,183,1536,864,1536,864,1-8-2024,14-0-4,5,VR_target_stimuli/s41_0.75x_2.1_281_BC.png,1000,0.75x,2.1,3.0,4052,1005,meters,jsons/MX_seq31_0_VE1000.json,314201,476802,32,Man
5,463729,final-intermixed-textured,v2,jsons/MX_seq31_0_VE1000.json,http://54.235.29.9/FacialAge/BNav_EC2/DepthDuration/MX_fS_VE_MTurk/MX_fS_HTML.html#183,183,1536,864,1536,864,1-8-2024,14-0-4,6,VR_target_stimuli/s45_1.3x_3.5_377.png,1000,1.3x,3.5,3.0,3956,999,meters,jsons/MX_seq31_0_VE1000.json,314201,476802,32,Man
6,463729,final-intermixed-textured,v2,jsons/MX_seq31_0_VE1000.json,http://54.235.29.9/FacialAge/BNav_EC2/DepthDuration/MX_fS_VE_MTurk/MX_fS_HTML.html#183,183,1536,864,1536,864,1-8-2024,14-0-4,7,catch_stimuli/c0.png,1000,,,0.0,2950,1002,meters,jsons/MX_seq31_0_VE1000.json,314201,476802,32,Man
7,463729,final-intermixed-textured,v2,jsons/MX_seq31_0_VE1000.json,http://54.235.29.9/FacialAge/BNav_EC2/DepthDuration/MX_fS_VE_MTurk/MX_fS_HTML.html#183,183,1536,864,1536,864,1-8-2024,14-0-4,8,VR_target_stimuli/s23_1.3x_3.65_354_BC.png,1000,1.3x,3.65,2.5,6756,1002,meters,jsons/MX_seq31_0_VE1000.json,314201,476802,32,Man
8,463729,final-intermixed-textured,v2,jsons/MX_seq31_0_VE1000.json,http://54.235.29.9/FacialAge/BNav_EC2/DepthDuration/MX_fS_VE_MTurk/MX_fS_HTML.html#183,183,1536,864,1536,864,1-8-2024,14-0-4,9,VR_target_stimuli/s26_1x_4_433.png,1000,1x,4.0,3.0,3160,1003,meters,jsons/MX_seq31_0_VE1000.json,314201,476802,32,Man
9,463729,final-intermixed-textured,v2,jsons/MX_seq31_0_VE1000.json,http://54.235.29.9/FacialAge/BNav_EC2/DepthDuration/MX_fS_VE_MTurk/MX_fS_HTML.html#183,183,1536,864,1536,864,1-8-2024,14-0-4,10,VR_target_stimuli/s12_0.75x_3.1_364.png,1000,0.75x,3.1,4.0,3769,988,meters,jsons/MX_seq31_0_VE1000.json,314201,476802,32,Man
10,463729,final-intermixed-textured,v2,jsons/MX_seq31_0_VE1000.json,http://54.235.29.9/FacialAge/BNav_EC2/DepthDuration/MX_fS_VE_MTurk/MX_fS_HTML.html#183,183,1536,864,1536,864,1-8-2024,14-0-4,11,VR_target_stimuli/s30_1x_2.3_334_BC.png,1000,1x,2.3,3.0,3073,1006,meters,jsons/MX_seq31_0_VE1000.json,314201,476802,32,Man
11,463729,final-intermixed-textured,v2,jsons/MX_seq31_0_VE1000.json,http://54.235.29.9/FacialAge/BNav_EC2/DepthDuration/MX_fS_VE_MTurk/MX_fS_HTML.html#183,183,1536,864,1536,864,1-8-2024,14-0-4,12,VR_target_stimuli/s16_1.3x_1_223.png,1000,1.3x,1.0,1.5,4690,1000,meters,jsons/MX_seq31_0_VE1000.json,314201,476802,32,Man
12,463729,final-intermixed-textured,v2,jsons/MX_seq31_0_VE1000.json,http://54.235.29.9/FacialAge/BNav_EC2/DepthDuration/MX_fS_VE_MTurk/MX_fS_HTML.html#183,183,1536,864,1536,864,1-8-2024,14-0-4,13,VR_target_stimuli/s17_0.75x_1.8_285_BC.png,1000,0.75x,1.8,2.5,4687,994,meters,jsons/MX_seq31_0_VE1000.json,314201,476802,32,Man
13,463729,final-intermixed-textured,v2,jsons/MX_seq31_0_VE1000.json,http://54.235.29.9/FacialAge/BNav_EC2/DepthDuration/MX_fS_VE_MTurk/MX_fS_HTML.html#183,183,1536,864,1536,864,1-8-2024,14-0-4,14,VR_target_stimuli/s5_1.3x_4_393.png,1000,1.3x,4.0,5.0,3020,992,meters,jsons/MX_seq31_0_VE1000.json,314201,476802,32,Man
14,463729,final-intermixed-textured,v2,jsons/MX_seq31_0_VE1000.json,http://54.235.29.9/FacialAge/BNav_EC2/DepthDuration/MX_fS_VE_MTurk/MX_fS_HTML.html#183,183,1536,864,1536,864,1-8-2024,14-0-4,15,VR_target_stimuli/s37_1x_3.3_563_BC.png,1000,1x,3.3,2.5,5142,999,meters,jsons/MX_seq31_0_VE1000.json,314201,476802,32,Man
15,463729,final-intermixed-textured,v2,jsons/MX_seq31_0_VE1000.json,http://54.235.29.9/FacialAge/BNav_EC2/DepthDuration/MX_fS_VE_MTurk/MX_fS_HTML.html#183,183,1536,864,1536,864,1-8-2024,14-0-4,16,VR_target_stimuli/s46_0.75x_2.42_343.png,1000,0.75x,2.42,3.0,6688,987,meters,jsons/MX_seq31_0_VE1000.json,314201,476802,32,Man
16,463729,final-intermixed-textured,v2,jsons/MX_seq31_0_VE1000.json,http://54.235.29.9/FacialAge/BNav_EC2/DepthDuration/MX_fS_VE_MTurk/MX_fS_HTML.html#183,183,1536,864,1536,864,1-8-2024,14-0-4,17,catch_stimuli/c1.png,1000,,,0.0,4185,995,meters,jsons/MX_seq31_0_VE1000.json,314201,476802,32,Man
17,463729,final-intermixed-textured,v2,jsons/MX_seq31_0_VE1000.json,http://54.235.29.9/FacialAge/BNav_EC2/DepthDuration/MX_fS_VE_MTurk/MX_fS_HTML.html#183,183,1536,864,1536,864,1-8-2024,14-0-4,18,VR_target_stimuli/s22_0.75x_4.29_348_BC.png,1000,0.75x,4.29,3.0,4578,993,meters,jsons/MX_seq31_0_VE1000.json,314201,476802,32,Man
18,463729,final-intermixed-textured,v2,jsons/MX_seq31_0_VE1000.json,http://54.235.29.9/FacialAge/BNav_EC2/DepthDuration/MX_fS_VE_MTurk/MX_fS_HTML.html#183,183,1536,864,1536,864,1-8-2024,14-0-4,19,VR_target_stimuli/s42_1.3x_3.2_305_BC.png,1000,1.3x,3.2,3.5,5193,1008,meters,jsons/MX_seq31_0_VE1000.json,314201,476802,32,Man
19,463729,final-intermixed-textured,v2,jsons/MX_seq31_0_VE1000.json,http://54.235.29.9/FacialAge/BNav_EC2/DepthDuration/MX_fS_VE_MTurk/MX_fS_HTML.html#183,183,1536,864,1536,864,1-8-2024,14-0-4,20,VR_target_stimuli/s25_1x_1.4_290.png,1000,1x,1.4,1.0,4018,1003,meters,jsons/MX_seq31_0_VE1000.json,314201,476802,32,Man
20,463729,final-intermixed-textured,v2,jsons/MX_seq31_0_VE1000.json,http://54.235.29.9/FacialAge/BNav_EC2/DepthDuration/MX_fS_VE_MTurk/MX_fS_HTML.html#183,183,1536,864,1536,864,1-8-2024,14-0-4,21,VR_target_stimuli/s50_1.3x_4.53_518_BC.png,1000,1.3x,4.53,2.0,3476,994,meters,jsons/MX_seq31_0_VE1000.json,314201,476802,32,Man
21,463729,final-intermixed-textured,v2,jsons/MX_seq31_0_VE1000.json,http://54.235.29.9/FacialAge/BNav_EC2/DepthDuration/MX_fS_VE_MTurk/MX_fS_HTML.html#183,183,1536,864,1536,864,1-8-2024,14-0-4,22,VR_target_stimuli/s53_0.75x_1.6_403_BC.png,1000,0.75x,1.6,1.5,9096,994,meters,jsons/MX_seq31_0_VE1000.json,314201,476802,32,Man
22,463729,final-intermixed-textured,v2,jsons/MX_seq31_0_VE1000.json,http://54.235.29.9/FacialAge/BNav_EC2/DepthDuration/MX_fS_VE_MTurk/MX_fS_HTML.html#183,183,1536,864,1536,864,1-8-2024,14-0-4,23,VR_target_stimuli/s38_1x_3.55_353_BC.png,1000,1x,3.55,5.0,5697,995,meters,jsons/MX_seq31_0_VE1000.json,314201,476802,32,Man
23,463729,final-intermixed-textured,v2,jsons/MX_seq31_0_VE1000.json,http://54.235.29.9/FacialAge/BNav_EC2/DepthDuration/MX_fS_VE_MTurk/MX_fS_HTML.html#183,183,1536,864,1536,864,1-8-2024,14-0-4,24,VR_target_stimuli/s9_0.75x_1.2_260.png,1000,0.75x,1.2,1.5,9055,1006,meters,jsons/MX_seq31_0_VE1000.json,314201,476802,32,Man
24,463729,final-intermixed-textured,v2,jsons/MX_seq31_0_VE1000.json,http://54.235.29.9/FacialAge/BNav_EC2/DepthDuration/MX_fS_VE_MTurk/MX_fS_HTML.html#183,183,1536,864,1536,864,1-8-2024,14-0-4,25,VR_target_stimuli/s44_1.3x_4.4_325.png,1000,1.3x,4.4,6.0,3233,1006,meters,jsons/MX_seq31_0_VE1000.json,314201,476802,32,Man
25,463729,final-intermixed-textured,v2,jsons/MX_seq31_0_VE1000.json,http://54.235.29.9/FacialAge/BNav_EC2/DepthDuration/MX_fS_VE_MTurk/MX_fS_HTML.html#183,183,1536,864,1536,864,1-8-2024,14-0-4,26,catch_stimuli/c2.png,1000,,,0.0,5800,992,meters,jsons/MX_seq31_0_VE1000.json,314201,476802,32,Man
26,463729,final-intermixed-textured,v2,jsons/MX_seq31_0_VE1000.json,http://54.235.29.9/FacialAge/BNav_EC2/DepthDuration/MX_fS_VE_MTurk/MX_fS_HTML.html#183,183,1536,864,1536,864,1-8-2024,14-0-4,27,VR_target_stimuli/s3_1x_5_385.png,1000,1x,5.0,6.0,3704,1008,meters,jsons/MX_seq31_0_VE1000.json,314201,476802,32,Man
27,463729,final-intermixed-textured,v2,jsons/MX_seq31_0_VE1000.json,http://54.235.29.9/FacialAge/BNav_EC2/DepthDuration/MX_fS_VE_MTurk/MX_fS_HTML.html#183,183,1536,864,1536,864,1-8-2024,14-0-4,28,VR_target_stimuli/s1_1x_1.7_262_BC.png,1000,1x,1.7,3.5,5370,1000,meters,jsons/MX_seq31_0_VE1000.json,314201,476802,32,Man
28,463729,final-intermixed-textured,v2,jsons/MX_seq31_0_VE1000.json,http://54.235.29.9/FacialAge/BNav_EC2/DepthDuration/MX_fS_VE_MTurk/MX_fS_HTML.html#183,183,1536,864,1536,864,1-8-2024,14-0-4,29,VR_target_stimuli/s11_0.75x_5_359_BC.png,1000,0.75x,5.0,7.0,4188,992,meters,jsons/MX_seq31_0_VE1000.json,314201,476802,32,Man
29,463729,final-intermixed-textured,v2,jsons/MX_seq31_0_VE1000.json,http://54.235.29.9/FacialAge/BNav_EC2/DepthDuration/MX_fS_VE_MTurk/MX_fS_HTML.html#183,183,1536,864,1536,864,1-8-2024,14-0-4,30,VR_target_stimuli/s2_1.3x_2.7_397_BC.png,1000,1.3x,2.7,3.0,4687,997,meters,jsons/MX_seq31_0_VE1000.json,314201,476802,32,Man
30,463729,final-intermixed-textured,v2,jsons/MX_seq31_0_VE1000.json,http://54.235.29.9/FacialAge/BNav_EC2/DepthDuration/MX_fS_VE_MTurk/MX_fS_HTML.html#183,183,1536,864,1536,864,1-8-2024,14-0-4,31,VR_target_stimuli/s6_1x_2.1_293.png,1000,1x,2.1,3.0,4702,1000,meters,jsons/MX_seq31_0_VE1000.json,314201,476802,32,Man
31,463729,final-intermixed-textured,v2,jsons/MX_seq31_0_VE1000.json,http://54.235.29.9/FacialAge/BNav_EC2/DepthDuration/MX_fS_VE_MTurk/MX_fS_HTML.html#183,183,1536,864,1536,864,1-8-2024,14-0-4,32,VR_target_stimuli/s0_1.3x_2.6_356.png,1000,1.3x,2.6,4.0,2849,997,meters,jsons/MX_seq31_0_VE1000.json,314201,476802,32,Man
32,463729,final-intermixed-textured,v2,jsons/MX_seq31_0_VE1000.json,http://54.235.29.9/FacialAge/BNav_EC2/DepthDuration/MX_fS_VE_MTurk/MX_fS_HTML.html#183,183,1536,864,1536,864,1-8-2024,14-0-4,33,VR_target_stimuli/s34_0.75x_2.8_269.png,1000,0.75x,2.8,5.0,7398,1004,meters,jsons/MX_seq31_0_VE1000.json,314201,476802,32,Man
33,463729,final-intermixed-textured,v2,jsons/MX_seq31_0_VE1000.json,http://54.235.29.9/FacialAge/BNav_EC2/DepthDuration/MX_fS_VE_MTurk/MX_fS_HTML.html#183,183,1536,864,1536,864,1-8-2024,14-0-4,34,catch_stimuli/c3.png,1000,,,0.0,3177,1007,meters,jsons/MX_seq31_0_VE1000.json,314201,476802,32,Man
34,463729,final-intermixed-textured,v2,jsons/MX_seq31_0_VE1000.json,http://54.235.29.9/FacialAge/BNav_EC2/DepthDuration/MX_fS_VE_MTurk/MX_fS_HTML.html#183,183,1536,864,1536,864,1-8-2024,14-0-4,35,VR_target_stimuli/s13_1.3x_2.4_313.png,1000,1.3x,2.4,4.0,3847,1000,meters,jsons/MX_seq31_0_VE1000.json,314201,476802,32,Man
35,463729,final-intermixed-textured,v2,jsons/MX_seq31_0_VE1000.json,http://54.235.29.9/FacialAge/BNav_EC2/DepthDuration/MX_fS_VE_MTurk/MX_fS_HTML.html#183,183,1536,864,1536,864,1-8-2024,14-0-4,36,VR_target_stimuli/s14_1x_ 3.83_357_BC.png,1000,1x,3.83,6.0,2670,1000,meters,jsons/MX_seq31_0_VE1000.json,314201,476802,32,Man
36,463729,final-intermixed-textured,v2,jsons/MX_seq31_0_VE1000.json,http://54.235.29.9/FacialAge/BNav_EC2/DepthDuration/MX_fS_VE_MTurk/MX_fS_HTML.html#183,183,1536,864,1536,864,1-8-2024,14-0-4,37,VR_target_stimuli/s47_0.75x_3.45_366_BC.png,1000,0.75x,3.45,7.0,5097,1000,meters,jsons/MX_seq31_0_VE1000.json,314201,476802,32,Man
37,463729,final-intermixed-textured,v2,jsons/MX_seq31_0_VE1000.json,http://54.235.29.9/FacialAge/BNav_EC2/DepthDuration/MX_fS_VE_MTurk/MX_fS_HTML.html#183,183,1536,864,1536,864,1-8-2024,14-0-4,38,VR_target_stimuli/s29_0.75x_1.3_246.png,1000,0.75x,1.3,3.0,7014,993,meters,jsons/MX_seq31_0_VE1000.json,314201,476802,32,Man
38,463729,final-intermixed-textured,v2,jsons/MX_seq31_0_VE1000.json,http://54.235.29.9/FacialAge/BNav_EC2/DepthDuration/MX_fS_VE_MTurk/MX_fS_HTML.html#183,183,1536,864,1536,864,1-8-2024,14-0-4,39,VR_target_stimuli/s28_1.3x_3.2_365_BC.png,1000,1.3x,3.2,4.0,2751,1009,meters,jsons/MX_seq31_0_VE1000.json,314201,476802,32,Man
39,463729,final-intermixed-textured,v2,jsons/MX_seq31_0_VE1000.json,http://54.235.29.9/FacialAge/BNav_EC2/DepthDuration/MX_fS_VE_MTurk/MX_fS_HTML.html#183,183,1536,864,1536,864,1-8-2024,14-0-4,40,VR_target_stimuli/s48_1x_2.55_256.png,1000,1x,2.55,6.0,5882,1004,meters,jsons/MX_seq31_0_VE1000.json,314201,476802,32,Man
40,463729,final-intermixed-textured,v2,jsons/MX_seq31_0_VE1000.json,http://54.235.29.9/FacialAge/BNav_EC2/DepthDuration/MX_fS_VE_MTurk/MX_fS_HTML.html#183,183,1536,864,1536,864,1-8-2024,14-0-4,41,VR_target_stimuli/s19_1.3x_1.21_270.png,1000,1.3x,1.21,2.0,3360,1007,meters,jsons/MX_seq31_0_VE1000.json,314201,476802,32,Man
41,463729,final-intermixed-textured,v2,jsons/MX_seq31_0_VE1000.json,http://54.235.29.9/FacialAge/BNav_EC2/DepthDuration/MX_fS_VE_MTurk/MX_fS_HTML.html#183,183,1536,864,1536,864,1-8-2024,14-0-4,42,VR_target_stimuli/s21_0.75x_4.22_374.png,1000,0.75x,4.22,6.0,4920,1006,meters,jsons/MX_seq31_0_VE1000.json,314201,476802,32,Man
42,463729,final-intermixed-textured,v2,jsons/MX_seq31_0_VE1000.json,http://54.235.29.9/FacialAge/BNav_EC2/DepthDuration/MX_fS_VE_MTurk/MX_fS_HTML.html#183,183,1536,864,1536,864,1-8-2024,14-0-4,43,VR_target_stimuli/s8_1x_3.1_332.png,1000,1x,3.1,4.0,10191,1000,meters,jsons/MX_seq31_0_VE1000.json,314201,476802,32,Man
43,463729,final-intermixed-textured,v2,jsons/MX_seq31_0_VE1000.json,http://54.235.29.9/FacialAge/BNav_EC2/DepthDuration/MX_fS_VE_MTurk/MX_fS_HTML.html#183,183,1536,864,1536,864,1-8-2024,14-0-4,44,VR_target_stimuli/s27_0.75x_1.76_243_BC.png,1000,0.75x,1.76,5.0,4886,997,meters,jsons/MX_seq31_0_VE1000.json,314201,476802,32,Man
44,463729,final-intermixed-textured,v2,jsons/MX_seq31_0_VE1000.json,http://54.235.29.9/FacialAge/BNav_EC2/DepthDuration/MX_fS_VE_MTurk/MX_fS_HTML.html#183,183,1536,864,1536,864,1-8-2024,14-0-4,45,catch_stimuli/c4.png,1000,,,0.0,2236,998,meters,jsons/MX_seq31_0_VE1000.json,314201,476802,32,Man
45,463729,final-intermixed-textured,v2,jsons/MX_seq31_0_VE1000.json,http://54.235.29.9/FacialAge/BNav_EC2/DepthDuration/MX_fS_VE_MTurk/MX_fS_HTML.html#183,183,1536,864,1536,864,1-8-2024,14-0-4,46,VR_target_stimuli/s15_1.3x_4.2_389_BC.png,1000,1.3x,4.2,6.0,3034,1013,meters,jsons/MX_seq31_0_VE1000.json,314201,476802,32,Man
46,463729,final-intermixed-textured,v2,jsons/MX_seq31_0_VE1000.json,http://54.235.29.9/FacialAge/BNav_EC2/DepthDuration/MX_fS_VE_MTurk/MX_fS_HTML.html#183,183,1536,864,1536,864,1-8-2024,14-0-4,47,VR_target_stimuli/s4_1x_1.4_313_BC.png,1000,1x,1.4,1.8,6027,1000,meters,jsons/MX_seq31_0_VE1000.json,314201,476802,32,Man
47,463729,final-intermixed-textured,v2,jsons/MX_seq31_0_VE1000.json,http://54.235.29.9/FacialAge/BNav_EC2/DepthDuration/MX_fS_VE_MTurk/MX_fS_HTML.html#183,183,1536,864,1536,864,1-8-2024,14-0-4,48,VR_target_stimuli/s35_1x_2_331.png,1000,1x,2.0,2.5,4962,997,meters,jsons/MX_seq31_0_VE1000.json,314201,476802,32,Man
48,463729,final-intermixed-textured,v2,jsons/MX_seq31_0_VE1000.json,http://54.235.29.9/FacialAge/BNav_EC2/DepthDuration/MX_fS_VE_MTurk/MX_fS_HTML.html#183,183,1536,864,1536,864,1-8-2024,14-0-4,49,VR_target_stimuli/s49_0.75x_4.67_328_BC.png,1000,0.75x,4.67,7.0,7065,996,meters,jsons/MX_seq31_0_VE1000.json,314201,476802,32,Man
49,463729,final-intermixed-textured,v2,jsons/MX_seq31_0_VE1000.json,http://54.235.29.9/FacialAge/BNav_EC2/DepthDuration/MX_fS_VE_MTurk/MX_fS_HTML.html#183,183,1536,864,1536,864,1-8-2024,14-0-4,50,VR_target_stimuli/s7_1.3x_1.5_256_BC.png,1000,1.3x,1.5,2.0,3374,1004,meters,jsons/MX_seq31_0_VE1000.json,314201,476802,32,Man
50,463729,final-intermixed-textured,v2,jsons/MX_seq31_0_VE1000.json,http://54.235.29.9/FacialAge/BNav_EC2/DepthDuration/MX_fS_VE_MTurk/MX_fS_HTML.html#183,183,1536,864,1536,864,1-8-2024,14-0-4,51,VR_target_stimuli/s20_0.75x_4.99_390.png,1000,0.75x,4.99,7.0,7654,1003,meters,jsons/MX_seq31_0_VE1000.json,314201,476802,32,Man
51,463729,final-intermixed-textured,v2,jsons/MX_seq31_0_VE1000.json,http://54.235.29.9/FacialAge/BNav_EC2/DepthDuration/MX_fS_VE_MTurk/MX_fS_HTML.html#183,183,1536,864,1536,864,1-8-2024,14-0-4,52,VR_target_stimuli/s31_1x_4.96_333_BC.png,1000,1x,4.96,10.0,4725,1012,meters,jsons/MX_seq31_0_VE1000.json,314201,476802,32,Man
52,463729,final-intermixed-textured,v2,jsons/MX_seq31_0_VE1000.json,http://54.235.29.9/FacialAge/BNav_EC2/DepthDuration/MX_fS_VE_MTurk/MX_fS_HTML.html#183,183,1536,864,1536,864,1-8-2024,14-0-4,53,catch_stimuli/c5.png,1000,,,0.0,2323,997,meters,jsons/MX_seq31_0_VE1000.json,314201,476802,32,Man
53,463729,final-intermixed-textured,v2,jsons/MX_seq31_0_VE1000.json,http://54.235.29.9/FacialAge/BNav_EC2/DepthDuration/MX_fS_VE_MTurk/MX_fS_HTML.html#183,183,1536,864,1536,864,1-8-2024,14-0-4,54,VR_target_stimuli/s33_1.3x_3.1_378.png,1000,1.3x,3.1,4.0,3274,1008,meters,jsons/MX_seq31_0_VE1000.json,314201,476802,32,Man
54,463729,final-intermixed-textured,v2,jsons/MX_seq31_0_VE1000.json,http://54.235.29.9/FacialAge/BNav_EC2/DepthDuration/MX_fS_VE_MTurk/MX_fS_HTML.html#183,183,1536,864,1536,864,1-8-2024,14-0-4,55,VR_target_stimuli/s52_1x_3.2_275_BC.png,1000,1x,3.2,2.0,5682,1001,meters,jsons/MX_seq31_0_VE1000.json,314201,476802,32,Man
55,463729,final-intermixed-textured,v2,jsons/MX_seq31_0_VE1000.json,http://54.235.29.9/FacialAge/BNav_EC2/DepthDuration/MX_fS_VE_MTurk/MX_fS_HTML.html#183,183,1536,864,1536,864,1-8-2024,14-0-4,56,VR_target_stimuli/s32_0.75x_1.5_213_BC.png,1000,0.75x,1.5,3.0,5726,994,meters,jsons/MX_seq31_0_VE1000.json,314201,476802,32,Man
56,463729,final-intermixed-textured,v2,jsons/MX_seq31_0_VE1000.json,http://54.235.29.9/FacialAge/BNav_EC2/DepthDuration/MX_fS_VE_MTurk/MX_fS_HTML.html#183,183,1536,864,1536,864,1-8-2024,14-0-4,57,VR_target_stimuli/s18_1.3x_2.25_368_BC.png,1000,1.3x,2.25,4.0,3165,1008,meters,jsons/MX_seq31_0_VE1000.json,314201,476802,32,Man
57,463729,final-intermixed-textured,v2,jsons/MX_seq31_0_VE1000.json,http://54.235.29.9/FacialAge/BNav_EC2/DepthDuration/MX_fS_VE_MTurk/MX_fS_HTML.html#183,183,1536,864,1536,864,1-8-2024,14-0-4,58,VR_target_stimuli/s39_1.3x_1_208.png,1000,1.3x,1.0,1.0,3173,996,meters,jsons/MX_seq31_0_VE1000.json,314201,476802,32,Man
58,463729,final-intermixed-textured,v2,jsons/MX_seq31_0_VE1000.json,http://54.235.29.9/FacialAge/BNav_EC2/DepthDuration/MX_fS_VE_MTurk/MX_fS_HTML.html#183,183,1536,864,1536,864,1-8-2024,14-0-4,59,VR_target_stimuli/s51_1x_3.64_461.png,1000,1x,3.64,3.5,5752,1008,meters,jsons/MX_seq31_0_VE1000.json,314201,476802,32,Man
59,463729,final-intermixed-textured,v2,jsons/MX_seq31_0_VE1000.json,http://54.235.29.9/FacialAge/BNav_EC2/DepthDuration/MX_fS_VE_MTurk/MX_fS_HTML.html#183,183,1536,864,1536,864,1-8-2024,14-0-4,60,VR_target_stimuli/s43_0.75x_2.2_348.png,1000,0.75x,2.2,4.0,6337,1004,meters,jsons/MX_seq31_0_VE1000.json,314201,476802,32,Man
