,subjID,experimentName,versionName,sequenceName,url,selected_row,windowWidth,windowHeight,screenWidth,screenHeight,startDate,startTime,trial,stimulus,duration,scale,actual_depth,depth_estimate,trial_RT,log_sceneDuration,unitSelection,seq_filepath,experimentTime,totalTime,age,gender
0,481105,final-intermixed-textured,v2,jsons/MX_seq53_2_VE1000_flipped.json,http://54.235.29.9/FacialAge/BNav_EC2/DepthDuration/MX_fS_VE_MTurk/MX_fS_HTML.html#303,303,1536,676,1536,864,1-8-2024,16-47-29,1,VR_target_stimuli/s44_1x_4.4_317_BC.png,1000,1x,4.4,5,6631,1007,meters,jsons/MX_seq53_2_VE1000_flipped.json,256000,395710,33,Man
1,481105,final-intermixed-textured,v2,jsons/MX_seq53_2_VE1000_flipped.json,http://54.235.29.9/FacialAge/BNav_EC2/DepthDuration/MX_fS_VE_MTurk/MX_fS_HTML.html#303,303,1536,676,1536,864,1-8-2024,16-47-29,2,VR_target_stimuli/s3_1.3x_5_390_BC.png,1000,1.3x,5.0,6,3769,993,meters,jsons/MX_seq53_2_VE1000_flipped.json,256000,395710,33,Man
2,481105,final-intermixed-textured,v2,jsons/MX_seq53_2_VE1000_flipped.json,http://54.235.29.9/FacialAge/BNav_EC2/DepthDuration/MX_fS_VE_MTurk/MX_fS_HTML.html#303,303,1536,676,1536,864,1-8-2024,16-47-29,3,VR_target_stimuli/s1_0.75x_1.7_265_BC.png,1000,0.75x,1.7,3,3613,992,meters,jsons/MX_seq53_2_VE1000_flipped.json,256000,395710,33,Man
3,481105,final-intermixed-textured,v2,jsons/MX_seq53_2_VE1000_flipped.json,http://54.235.29.9/FacialAge/BNav_EC2/DepthDuration/MX_fS_VE_MTurk/MX_fS_HTML.html#303,303,1536,676,1536,864,1-8-2024,16-47-29,4,VR_target_stimuli/s11_1.3x_5_363.png,1000,1.3x,5.0,6,3762,991,meters,jsons/MX_seq53_2_VE1000_flipped.json,256000,395710,33,Man
4,481105,final-intermixed-textured,v2,jsons/MX_seq53_2_VE1000_flipped.json,http://54.235.29.9/FacialAge/BNav_EC2/DepthDuration/MX_fS_VE_MTurk/MX_fS_HTML.html#303,303,1536,676,1536,864,1-8-2024,16-47-29,5,VR_target_stimuli/s2_1x_2.7_390.png,1000,1x,2.7,2,3708,1039,meters,jsons/MX_seq53_2_VE1000_flipped.json,256000,395710,33,Man
5,481105,final-intermixed-textured,v2,jsons/MX_seq53_2_VE1000_flipped.json,http://54.235.29.9/FacialAge/BNav_EC2/DepthDuration/MX_fS_VE_MTurk/MX_fS_HTML.html#303,303,1536,676,1536,864,1-8-2024,16-47-29,6,VR_target_stimuli/s6_0.75x_2.1_290.png,1000,0.75x,2.1,2,3479,1030,meters,jsons/MX_seq53_2_VE1000_flipped.json,256000,395710,33,Man
6,481105,final-intermixed-textured,v2,jsons/MX_seq53_2_VE1000_flipped.json,http://54.235.29.9/FacialAge/BNav_EC2/DepthDuration/MX_fS_VE_MTurk/MX_fS_HTML.html#303,303,1536,676,1536,864,1-8-2024,16-47-29,7,catch_stimuli/c0_BC.png,1000,,,0,3420,1006,meters,jsons/MX_seq53_2_VE1000_flipped.json,256000,395710,33,Man
7,481105,final-intermixed-textured,v2,jsons/MX_seq53_2_VE1000_flipped.json,http://54.235.29.9/FacialAge/BNav_EC2/DepthDuration/MX_fS_VE_MTurk/MX_fS_HTML.html#303,303,1536,676,1536,864,1-8-2024,16-47-29,8,VR_target_stimuli/s0_0.75x_2.6_345.png,1000,0.75x,2.6,4,3533,1100,meters,jsons/MX_seq53_2_VE1000_flipped.json,256000,395710,33,Man
8,481105,final-intermixed-textured,v2,jsons/MX_seq53_2_VE1000_flipped.json,http://54.235.29.9/FacialAge/BNav_EC2/DepthDuration/MX_fS_VE_MTurk/MX_fS_HTML.html#303,303,1536,676,1536,864,1-8-2024,16-47-29,9,VR_target_stimuli/s34_1.3x_2.8_294_BC.png,1000,1.3x,2.8,4,3904,1087,meters,jsons/MX_seq53_2_VE1000_flipped.json,256000,395710,33,Man
9,481105,final-intermixed-textured,v2,jsons/MX_seq53_2_VE1000_flipped.json,http://54.235.29.9/FacialAge/BNav_EC2/DepthDuration/MX_fS_VE_MTurk/MX_fS_HTML.html#303,303,1536,676,1536,864,1-8-2024,16-47-29,10,VR_target_stimuli/s13_1x_2.4_310.png,1000,1x,2.4,3,3375,1066,meters,jsons/MX_seq53_2_VE1000_flipped.json,256000,395710,33,Man
10,481105,final-intermixed-textured,v2,jsons/MX_seq53_2_VE1000_flipped.json,http://54.235.29.9/FacialAge/BNav_EC2/DepthDuration/MX_fS_VE_MTurk/MX_fS_HTML.html#303,303,1536,676,1536,864,1-8-2024,16-47-29,11,VR_target_stimuli/s14_1.3x_3.83_359.png,1000,1.3x,3.83,5,3471,1002,meters,jsons/MX_seq53_2_VE1000_flipped.json,256000,395710,33,Man
11,481105,final-intermixed-textured,v2,jsons/MX_seq53_2_VE1000_flipped.json,http://54.235.29.9/FacialAge/BNav_EC2/DepthDuration/MX_fS_VE_MTurk/MX_fS_HTML.html#303,303,1536,676,1536,864,1-8-2024,16-47-29,12,VR_target_stimuli/s47_0.75x_3.45_366_BC.png,1000,0.75x,3.45,3,4867,998,meters,jsons/MX_seq53_2_VE1000_flipped.json,256000,395710,33,Man
12,481105,final-intermixed-textured,v2,jsons/MX_seq53_2_VE1000_flipped.json,http://54.235.29.9/FacialAge/BNav_EC2/DepthDuration/MX_fS_VE_MTurk/MX_fS_HTML.html#303,303,1536,676,1536,864,1-8-2024,16-47-29,13,VR_target_stimuli/s29_1x_1.3_250_BC.png,1000,1x,1.3,2,3758,999,meters,jsons/MX_seq53_2_VE1000_flipped.json,256000,395710,33,Man
13,481105,final-intermixed-textured,v2,jsons/MX_seq53_2_VE1000_flipped.json,http://54.235.29.9/FacialAge/BNav_EC2/DepthDuration/MX_fS_VE_MTurk/MX_fS_HTML.html#303,303,1536,676,1536,864,1-8-2024,16-47-29,14,VR_target_stimuli/s28_0.75x_3.2_357.png,1000,0.75x,3.2,3,3567,1004,meters,jsons/MX_seq53_2_VE1000_flipped.json,256000,395710,33,Man
14,481105,final-intermixed-textured,v2,jsons/MX_seq53_2_VE1000_flipped.json,http://54.235.29.9/FacialAge/BNav_EC2/DepthDuration/MX_fS_VE_MTurk/MX_fS_HTML.html#303,303,1536,676,1536,864,1-8-2024,16-47-29,15,VR_target_stimuli/s48_1.3x_2.55_255.png,1000,1.3x,2.55,2,4163,1005,meters,jsons/MX_seq53_2_VE1000_flipped.json,256000,395710,33,Man
15,481105,final-intermixed-textured,v2,jsons/MX_seq53_2_VE1000_flipped.json,http://54.235.29.9/FacialAge/BNav_EC2/DepthDuration/MX_fS_VE_MTurk/MX_fS_HTML.html#303,303,1536,676,1536,864,1-8-2024,16-47-29,16,VR_target_stimuli/s19_1x_1.21_263_BC.png,1000,1x,1.21,1,3456,985,meters,jsons/MX_seq53_2_VE1000_flipped.json,256000,395710,33,Man
16,481105,final-intermixed-textured,v2,jsons/MX_seq53_2_VE1000_flipped.json,http://54.235.29.9/FacialAge/BNav_EC2/DepthDuration/MX_fS_VE_MTurk/MX_fS_HTML.html#303,303,1536,676,1536,864,1-8-2024,16-47-29,17,catch_stimuli/c1_BC.png,1000,,,0,3350,997,meters,jsons/MX_seq53_2_VE1000_flipped.json,256000,395710,33,Man
17,481105,final-intermixed-textured,v2,jsons/MX_seq53_2_VE1000_flipped.json,http://54.235.29.9/FacialAge/BNav_EC2/DepthDuration/MX_fS_VE_MTurk/MX_fS_HTML.html#303,303,1536,676,1536,864,1-8-2024,16-47-29,18,VR_target_stimuli/s21_1x_4.22_379.png,1000,1x,4.22,5,3402,998,meters,jsons/MX_seq53_2_VE1000_flipped.json,256000,395710,33,Man
18,481105,final-intermixed-textured,v2,jsons/MX_seq53_2_VE1000_flipped.json,http://54.235.29.9/FacialAge/BNav_EC2/DepthDuration/MX_fS_VE_MTurk/MX_fS_HTML.html#303,303,1536,676,1536,864,1-8-2024,16-47-29,19,VR_target_stimuli/s8_0.75x_3.1_325_BC.png,1000,0.75x,3.1,3,3440,1038,meters,jsons/MX_seq53_2_VE1000_flipped.json,256000,395710,33,Man
19,481105,final-intermixed-textured,v2,jsons/MX_seq53_2_VE1000_flipped.json,http://54.235.29.9/FacialAge/BNav_EC2/DepthDuration/MX_fS_VE_MTurk/MX_fS_HTML.html#303,303,1536,676,1536,864,1-8-2024,16-47-29,20,VR_target_stimuli/s27_1.3x_1.76_250_BC.png,1000,1.3x,1.76,2,3257,1115,meters,jsons/MX_seq53_2_VE1000_flipped.json,256000,395710,33,Man
20,481105,final-intermixed-textured,v2,jsons/MX_seq53_2_VE1000_flipped.json,http://54.235.29.9/FacialAge/BNav_EC2/DepthDuration/MX_fS_VE_MTurk/MX_fS_HTML.html#303,303,1536,676,1536,864,1-8-2024,16-47-29,21,VR_target_stimuli/s15_0.75x_4.2_388_BC.png,1000,0.75x,4.2,4,4137,1009,meters,jsons/MX_seq53_2_VE1000_flipped.json,256000,395710,33,Man
21,481105,final-intermixed-textured,v2,jsons/MX_seq53_2_VE1000_flipped.json,http://54.235.29.9/FacialAge/BNav_EC2/DepthDuration/MX_fS_VE_MTurk/MX_fS_HTML.html#303,303,1536,676,1536,864,1-8-2024,16-47-29,22,VR_target_stimuli/s4_1x_1.4_313.png,1000,1x,1.4,2,3446,1004,meters,jsons/MX_seq53_2_VE1000_flipped.json,256000,395710,33,Man
22,481105,final-intermixed-textured,v2,jsons/MX_seq53_2_VE1000_flipped.json,http://54.235.29.9/FacialAge/BNav_EC2/DepthDuration/MX_fS_VE_MTurk/MX_fS_HTML.html#303,303,1536,676,1536,864,1-8-2024,16-47-29,23,VR_target_stimuli/s35_1.3x_2_338.png,1000,1.3x,2.0,3,3990,1086,meters,jsons/MX_seq53_2_VE1000_flipped.json,256000,395710,33,Man
23,481105,final-intermixed-textured,v2,jsons/MX_seq53_2_VE1000_flipped.json,http://54.235.29.9/FacialAge/BNav_EC2/DepthDuration/MX_fS_VE_MTurk/MX_fS_HTML.html#303,303,1536,676,1536,864,1-8-2024,16-47-29,24,VR_target_stimuli/s49_1x_4.67_341_BC.png,1000,1x,4.67,5,3314,992,meters,jsons/MX_seq53_2_VE1000_flipped.json,256000,395710,33,Man
24,481105,final-intermixed-textured,v2,jsons/MX_seq53_2_VE1000_flipped.json,http://54.235.29.9/FacialAge/BNav_EC2/DepthDuration/MX_fS_VE_MTurk/MX_fS_HTML.html#303,303,1536,676,1536,864,1-8-2024,16-47-29,25,VR_target_stimuli/s7_0.75x_1.5_253.png,1000,0.75x,1.5,3,3512,1086,meters,jsons/MX_seq53_2_VE1000_flipped.json,256000,395710,33,Man
25,481105,final-intermixed-textured,v2,jsons/MX_seq53_2_VE1000_flipped.json,http://54.235.29.9/FacialAge/BNav_EC2/DepthDuration/MX_fS_VE_MTurk/MX_fS_HTML.html#303,303,1536,676,1536,864,1-8-2024,16-47-29,26,catch_stimuli/c2_BC.png,1000,,,0,3519,1132,meters,jsons/MX_seq53_2_VE1000_flipped.json,256000,395710,33,Man
26,481105,final-intermixed-textured,v2,jsons/MX_seq53_2_VE1000_flipped.json,http://54.235.29.9/FacialAge/BNav_EC2/DepthDuration/MX_fS_VE_MTurk/MX_fS_HTML.html#303,303,1536,676,1536,864,1-8-2024,16-47-29,27,VR_target_stimuli/s20_1.3x_4.99_412_BC.png,1000,1.3x,4.99,6,3755,1117,meters,jsons/MX_seq53_2_VE1000_flipped.json,256000,395710,33,Man
27,481105,final-intermixed-textured,v2,jsons/MX_seq53_2_VE1000_flipped.json,http://54.235.29.9/FacialAge/BNav_EC2/DepthDuration/MX_fS_VE_MTurk/MX_fS_HTML.html#303,303,1536,676,1536,864,1-8-2024,16-47-29,28,VR_target_stimuli/s31_1.3x_4.96_342.png,1000,1.3x,4.96,2,3617,993,meters,jsons/MX_seq53_2_VE1000_flipped.json,256000,395710,33,Man
28,481105,final-intermixed-textured,v2,jsons/MX_seq53_2_VE1000_flipped.json,http://54.235.29.9/FacialAge/BNav_EC2/DepthDuration/MX_fS_VE_MTurk/MX_fS_HTML.html#303,303,1536,676,1536,864,1-8-2024,16-47-29,29,VR_target_stimuli/s33_1x_3.1_366_BC.png,1000,1x,3.1,3,3709,991,meters,jsons/MX_seq53_2_VE1000_flipped.json,256000,395710,33,Man
29,481105,final-intermixed-textured,v2,jsons/MX_seq53_2_VE1000_flipped.json,http://54.235.29.9/FacialAge/BNav_EC2/DepthDuration/MX_fS_VE_MTurk/MX_fS_HTML.html#303,303,1536,676,1536,864,1-8-2024,16-47-29,30,VR_target_stimuli/s52_0.75x_3.2_270.png,1000,0.75x,3.2,3,3500,998,meters,jsons/MX_seq53_2_VE1000_flipped.json,256000,395710,33,Man
30,481105,final-intermixed-textured,v2,jsons/MX_seq53_2_VE1000_flipped.json,http://54.235.29.9/FacialAge/BNav_EC2/DepthDuration/MX_fS_VE_MTurk/MX_fS_HTML.html#303,303,1536,676,1536,864,1-8-2024,16-47-29,31,VR_target_stimuli/s32_1.3x_1.5_224_BC.png,1000,1.3x,1.5,4,3498,1003,meters,jsons/MX_seq53_2_VE1000_flipped.json,256000,395710,33,Man
31,481105,final-intermixed-textured,v2,jsons/MX_seq53_2_VE1000_flipped.json,http://54.235.29.9/FacialAge/BNav_EC2/DepthDuration/MX_fS_VE_MTurk/MX_fS_HTML.html#303,303,1536,676,1536,864,1-8-2024,16-47-29,32,VR_target_stimuli/s18_0.75x_2.25_341_BC.png,1000,0.75x,2.25,4,3811,1003,meters,jsons/MX_seq53_2_VE1000_flipped.json,256000,395710,33,Man
32,481105,final-intermixed-textured,v2,jsons/MX_seq53_2_VE1000_flipped.json,http://54.235.29.9/FacialAge/BNav_EC2/DepthDuration/MX_fS_VE_MTurk/MX_fS_HTML.html#303,303,1536,676,1536,864,1-8-2024,16-47-29,33,VR_target_stimuli/s39_1x_1_207.png,1000,1x,1.0,2,3304,1004,meters,jsons/MX_seq53_2_VE1000_flipped.json,256000,395710,33,Man
33,481105,final-intermixed-textured,v2,jsons/MX_seq53_2_VE1000_flipped.json,http://54.235.29.9/FacialAge/BNav_EC2/DepthDuration/MX_fS_VE_MTurk/MX_fS_HTML.html#303,303,1536,676,1536,864,1-8-2024,16-47-29,34,catch_stimuli/c3_BC.png,1000,,,0,3919,998,meters,jsons/MX_seq53_2_VE1000_flipped.json,256000,395710,33,Man
34,481105,final-intermixed-textured,v2,jsons/MX_seq53_2_VE1000_flipped.json,http://54.235.29.9/FacialAge/BNav_EC2/DepthDuration/MX_fS_VE_MTurk/MX_fS_HTML.html#303,303,1536,676,1536,864,1-8-2024,16-47-29,35,VR_target_stimuli/s51_0.75x_3.64_460.png,1000,0.75x,3.64,2,3728,1001,meters,jsons/MX_seq53_2_VE1000_flipped.json,256000,395710,33,Man
35,481105,final-intermixed-textured,v2,jsons/MX_seq53_2_VE1000_flipped.json,http://54.235.29.9/FacialAge/BNav_EC2/DepthDuration/MX_fS_VE_MTurk/MX_fS_HTML.html#303,303,1536,676,1536,864,1-8-2024,16-47-29,36,VR_target_stimuli/s43_1.3x_2.2_363_BC.png,1000,1.3x,2.2,3,3492,1010,meters,jsons/MX_seq53_2_VE1000_flipped.json,256000,395710,33,Man
36,481105,final-intermixed-textured,v2,jsons/MX_seq53_2_VE1000_flipped.json,http://54.235.29.9/FacialAge/BNav_EC2/DepthDuration/MX_fS_VE_MTurk/MX_fS_HTML.html#303,303,1536,676,1536,864,1-8-2024,16-47-29,37,VR_target_stimuli/s24_1x_3.3_349.png,1000,1x,3.3,4,3521,997,meters,jsons/MX_seq53_2_VE1000_flipped.json,256000,395710,33,Man
37,481105,final-intermixed-textured,v2,jsons/MX_seq53_2_VE1000_flipped.json,http://54.235.29.9/FacialAge/BNav_EC2/DepthDuration/MX_fS_VE_MTurk/MX_fS_HTML.html#303,303,1536,676,1536,864,1-8-2024,16-47-29,38,VR_target_stimuli/s10_1x_2.7_324_BC.png,1000,1x,2.7,3,3479,987,meters,jsons/MX_seq53_2_VE1000_flipped.json,256000,395710,33,Man
38,481105,final-intermixed-textured,v2,jsons/MX_seq53_2_VE1000_flipped.json,http://54.235.29.9/FacialAge/BNav_EC2/DepthDuration/MX_fS_VE_MTurk/MX_fS_HTML.html#303,303,1536,676,1536,864,1-8-2024,16-47-29,39,VR_target_stimuli/s36_0.75x_4.1_407_BC.png,1000,0.75x,4.1,3,3668,1021,meters,jsons/MX_seq53_2_VE1000_flipped.json,256000,395710,33,Man
39,481105,final-intermixed-textured,v2,jsons/MX_seq53_2_VE1000_flipped.json,http://54.235.29.9/FacialAge/BNav_EC2/DepthDuration/MX_fS_VE_MTurk/MX_fS_HTML.html#303,303,1536,676,1536,864,1-8-2024,16-47-29,40,VR_target_stimuli/s40_1.3x_1.2_332.png,1000,1.3x,1.2,1,3857,1016,meters,jsons/MX_seq53_2_VE1000_flipped.json,256000,395710,33,Man
40,481105,final-intermixed-textured,v2,jsons/MX_seq53_2_VE1000_flipped.json,http://54.235.29.9/FacialAge/BNav_EC2/DepthDuration/MX_fS_VE_MTurk/MX_fS_HTML.html#303,303,1536,676,1536,864,1-8-2024,16-47-29,41,VR_target_stimuli/s41_0.75x_2.1_281_BC.png,1000,0.75x,2.1,2,3619,991,meters,jsons/MX_seq53_2_VE1000_flipped.json,256000,395710,33,Man
41,481105,final-intermixed-textured,v2,jsons/MX_seq53_2_VE1000_flipped.json,http://54.235.29.9/FacialAge/BNav_EC2/DepthDuration/MX_fS_VE_MTurk/MX_fS_HTML.html#303,303,1536,676,1536,864,1-8-2024,16-47-29,42,VR_target_stimuli/s45_1x_3.5_368_BC.png,1000,1x,3.5,3,3725,991,meters,jsons/MX_seq53_2_VE1000_flipped.json,256000,395710,33,Man
42,481105,final-intermixed-textured,v2,jsons/MX_seq53_2_VE1000_flipped.json,http://54.235.29.9/FacialAge/BNav_EC2/DepthDuration/MX_fS_VE_MTurk/MX_fS_HTML.html#303,303,1536,676,1536,864,1-8-2024,16-47-29,43,VR_target_stimuli/s23_1.3x_3.65_354.png,1000,1.3x,3.65,3,4415,1087,meters,jsons/MX_seq53_2_VE1000_flipped.json,256000,395710,33,Man
43,481105,final-intermixed-textured,v2,jsons/MX_seq53_2_VE1000_flipped.json,http://54.235.29.9/FacialAge/BNav_EC2/DepthDuration/MX_fS_VE_MTurk/MX_fS_HTML.html#303,303,1536,676,1536,864,1-8-2024,16-47-29,44,VR_target_stimuli/s26_1x_4_433.png,1000,1x,4.0,3,4158,1006,meters,jsons/MX_seq53_2_VE1000_flipped.json,256000,395710,33,Man
44,481105,final-intermixed-textured,v2,jsons/MX_seq53_2_VE1000_flipped.json,http://54.235.29.9/FacialAge/BNav_EC2/DepthDuration/MX_fS_VE_MTurk/MX_fS_HTML.html#303,303,1536,676,1536,864,1-8-2024,16-47-29,45,catch_stimuli/c4_BC.png,1000,,,0,3341,993,meters,jsons/MX_seq53_2_VE1000_flipped.json,256000,395710,33,Man
45,481105,final-intermixed-textured,v2,jsons/MX_seq53_2_VE1000_flipped.json,http://54.235.29.9/FacialAge/BNav_EC2/DepthDuration/MX_fS_VE_MTurk/MX_fS_HTML.html#303,303,1536,676,1536,864,1-8-2024,16-47-29,46,VR_target_stimuli/s12_0.75x_3.1_364.png,1000,0.75x,3.1,4,3407,1000,meters,jsons/MX_seq53_2_VE1000_flipped.json,256000,395710,33,Man
46,481105,final-intermixed-textured,v2,jsons/MX_seq53_2_VE1000_flipped.json,http://54.235.29.9/FacialAge/BNav_EC2/DepthDuration/MX_fS_VE_MTurk/MX_fS_HTML.html#303,303,1536,676,1536,864,1-8-2024,16-47-29,47,VR_target_stimuli/s30_1.3x_2.3_337_BC.png,1000,1.3x,2.3,3,3636,1007,meters,jsons/MX_seq53_2_VE1000_flipped.json,256000,395710,33,Man
47,481105,final-intermixed-textured,v2,jsons/MX_seq53_2_VE1000_flipped.json,http://54.235.29.9/FacialAge/BNav_EC2/DepthDuration/MX_fS_VE_MTurk/MX_fS_HTML.html#303,303,1536,676,1536,864,1-8-2024,16-47-29,48,VR_target_stimuli/s16_1.3x_1_223.png,1000,1.3x,1.0,1,3535,1005,meters,jsons/MX_seq53_2_VE1000_flipped.json,256000,395710,33,Man
48,481105,final-intermixed-textured,v2,jsons/MX_seq53_2_VE1000_flipped.json,http://54.235.29.9/FacialAge/BNav_EC2/DepthDuration/MX_fS_VE_MTurk/MX_fS_HTML.html#303,303,1536,676,1536,864,1-8-2024,16-47-29,49,VR_target_stimuli/s17_1x_1.8_291.png,1000,1x,1.8,2,3733,1007,meters,jsons/MX_seq53_2_VE1000_flipped.json,256000,395710,33,Man
49,481105,final-intermixed-textured,v2,jsons/MX_seq53_2_VE1000_flipped.json,http://54.235.29.9/FacialAge/BNav_EC2/DepthDuration/MX_fS_VE_MTurk/MX_fS_HTML.html#303,303,1536,676,1536,864,1-8-2024,16-47-29,50,VR_target_stimuli/s5_0.75x_4_375_BC.png,1000,0.75x,4.0,3,3578,1005,meters,jsons/MX_seq53_2_VE1000_flipped.json,256000,395710,33,Man
50,481105,final-intermixed-textured,v2,jsons/MX_seq53_2_VE1000_flipped.json,http://54.235.29.9/FacialAge/BNav_EC2/DepthDuration/MX_fS_VE_MTurk/MX_fS_HTML.html#303,303,1536,676,1536,864,1-8-2024,16-47-29,51,VR_target_stimuli/s37_1x_3.3_563_BC.png,1000,1x,3.3,2,3826,1086,meters,jsons/MX_seq53_2_VE1000_flipped.json,256000,395710,33,Man
51,481105,final-intermixed-textured,v2,jsons/MX_seq53_2_VE1000_flipped.json,http://54.235.29.9/FacialAge/BNav_EC2/DepthDuration/MX_fS_VE_MTurk/MX_fS_HTML.html#303,303,1536,676,1536,864,1-8-2024,16-47-29,52,VR_target_stimuli/s46_1.3x_2.42_354_BC.png,1000,1.3x,2.42,3,3228,1012,meters,jsons/MX_seq53_2_VE1000_flipped.json,256000,395710,33,Man
52,481105,final-intermixed-textured,v2,jsons/MX_seq53_2_VE1000_flipped.json,http://54.235.29.9/FacialAge/BNav_EC2/DepthDuration/MX_fS_VE_MTurk/MX_fS_HTML.html#303,303,1536,676,1536,864,1-8-2024,16-47-29,53,catch_stimuli/c5_BC.png,1000,,,0,3831,1066,meters,jsons/MX_seq53_2_VE1000_flipped.json,256000,395710,33,Man
53,481105,final-intermixed-textured,v2,jsons/MX_seq53_2_VE1000_flipped.json,http://54.235.29.9/FacialAge/BNav_EC2/DepthDuration/MX_fS_VE_MTurk/MX_fS_HTML.html#303,303,1536,676,1536,864,1-8-2024,16-47-29,54,VR_target_stimuli/s22_0.75x_4.29_348.png,1000,0.75x,4.29,4,3491,994,meters,jsons/MX_seq53_2_VE1000_flipped.json,256000,395710,33,Man
54,481105,final-intermixed-textured,v2,jsons/MX_seq53_2_VE1000_flipped.json,http://54.235.29.9/FacialAge/BNav_EC2/DepthDuration/MX_fS_VE_MTurk/MX_fS_HTML.html#303,303,1536,676,1536,864,1-8-2024,16-47-29,55,VR_target_stimuli/s42_1.3x_3.2_305.png,1000,1.3x,3.2,4,3670,1027,meters,jsons/MX_seq53_2_VE1000_flipped.json,256000,395710,33,Man
55,481105,final-intermixed-textured,v2,jsons/MX_seq53_2_VE1000_flipped.json,http://54.235.29.9/FacialAge/BNav_EC2/DepthDuration/MX_fS_VE_MTurk/MX_fS_HTML.html#303,303,1536,676,1536,864,1-8-2024,16-47-29,56,VR_target_stimuli/s25_1x_1.4_290.png,1000,1x,1.4,2,3719,953,meters,jsons/MX_seq53_2_VE1000_flipped.json,256000,395710,33,Man
56,481105,final-intermixed-textured,v2,jsons/MX_seq53_2_VE1000_flipped.json,http://54.235.29.9/FacialAge/BNav_EC2/DepthDuration/MX_fS_VE_MTurk/MX_fS_HTML.html#303,303,1536,676,1536,864,1-8-2024,16-47-29,57,VR_target_stimuli/s50_0.75x_4.53_517_BC.png,1000,0.75x,4.53,3,3520,1002,meters,jsons/MX_seq53_2_VE1000_flipped.json,256000,395710,33,Man
57,481105,final-intermixed-textured,v2,jsons/MX_seq53_2_VE1000_flipped.json,http://54.235.29.9/FacialAge/BNav_EC2/DepthDuration/MX_fS_VE_MTurk/MX_fS_HTML.html#303,303,1536,676,1536,864,1-8-2024,16-47-29,58,VR_target_stimuli/s53_0.75x_1.6_403.png,1000,0.75x,1.6,1,3904,1001,meters,jsons/MX_seq53_2_VE1000_flipped.json,256000,395710,33,Man
58,481105,final-intermixed-textured,v2,jsons/MX_seq53_2_VE1000_flipped.json,http://54.235.29.9/FacialAge/BNav_EC2/DepthDuration/MX_fS_VE_MTurk/MX_fS_HTML.html#303,303,1536,676,1536,864,1-8-2024,16-47-29,59,VR_target_stimuli/s38_1.3x_3.55_358_BC.png,1000,1.3x,3.55,3,3467,1011,meters,jsons/MX_seq53_2_VE1000_flipped.json,256000,395710,33,Man
59,481105,final-intermixed-textured,v2,jsons/MX_seq53_2_VE1000_flipped.json,http://54.235.29.9/FacialAge/BNav_EC2/DepthDuration/MX_fS_VE_MTurk/MX_fS_HTML.html#303,303,1536,676,1536,864,1-8-2024,16-47-29,60,VR_target_stimuli/s9_1x_1.2_263_BC.png,1000,1x,1.2,1,6963,1005,meters,jsons/MX_seq53_2_VE1000_flipped.json,256000,395710,33,Man
