,subjID,experimentName,versionName,sequenceName,url,selected_row,windowWidth,windowHeight,screenWidth,screenHeight,startDate,startTime,trial,stimulus,duration,scale,actual_depth,depth_estimate,trial_RT,log_sceneDuration,unitSelection,seq_filepath,experimentTime,totalTime,age,gender
0,482055,final-intermixed-textured,v2,jsons/MX_seq9_2_VE1000.json,http://54.235.29.9/FacialAge/BNav_EC2/DepthDuration/MX_fS_VE_MTurk/MX_fS_HTML.html#192,192,1440,900,1440,900,1-8-2024,14-1-47,1,VR_target_stimuli/s47_1x_3.45_370_BC.png,1000,1x,3.45,2.0,3494,1001,meters,jsons/MX_seq9_2_VE1000.json,259534,407322,25,Woman
1,482055,final-intermixed-textured,v2,jsons/MX_seq9_2_VE1000.json,http://54.235.29.9/FacialAge/BNav_EC2/DepthDuration/MX_fS_VE_MTurk/MX_fS_HTML.html#192,192,1440,900,1440,900,1-8-2024,14-1-47,2,VR_target_stimuli/s29_1.3x_1.3_253_BC.png,1000,1.3x,1.3,1.0,2432,1001,meters,jsons/MX_seq9_2_VE1000.json,259534,407322,25,Woman
2,482055,final-intermixed-textured,v2,jsons/MX_seq9_2_VE1000.json,http://54.235.29.9/FacialAge/BNav_EC2/DepthDuration/MX_fS_VE_MTurk/MX_fS_HTML.html#192,192,1440,900,1440,900,1-8-2024,14-1-47,3,VR_target_stimuli/s28_0.75x_3.2_357_BC.png,1000,0.75x,3.2,2.5,3932,1002,meters,jsons/MX_seq9_2_VE1000.json,259534,407322,25,Woman
3,482055,final-intermixed-textured,v2,jsons/MX_seq9_2_VE1000.json,http://54.235.29.9/FacialAge/BNav_EC2/DepthDuration/MX_fS_VE_MTurk/MX_fS_HTML.html#192,192,1440,900,1440,900,1-8-2024,14-1-47,4,VR_target_stimuli/s48_1.3x_2.55_255.png,1000,1.3x,2.55,1.5,3822,1004,meters,jsons/MX_seq9_2_VE1000.json,259534,407322,25,Woman
4,482055,final-intermixed-textured,v2,jsons/MX_seq9_2_VE1000.json,http://54.235.29.9/FacialAge/BNav_EC2/DepthDuration/MX_fS_VE_MTurk/MX_fS_HTML.html#192,192,1440,900,1440,900,1-8-2024,14-1-47,5,VR_target_stimuli/s19_1x_1.21_263.png,1000,1x,1.21,1.3,3281,1003,meters,jsons/MX_seq9_2_VE1000.json,259534,407322,25,Woman
5,482055,final-intermixed-textured,v2,jsons/MX_seq9_2_VE1000.json,http://54.235.29.9/FacialAge/BNav_EC2/DepthDuration/MX_fS_VE_MTurk/MX_fS_HTML.html#192,192,1440,900,1440,900,1-8-2024,14-1-47,6,VR_target_stimuli/s21_0.75x_4.22_374.png,1000,0.75x,4.22,4.0,6114,1004,meters,jsons/MX_seq9_2_VE1000.json,259534,407322,25,Woman
6,482055,final-intermixed-textured,v2,jsons/MX_seq9_2_VE1000.json,http://54.235.29.9/FacialAge/BNav_EC2/DepthDuration/MX_fS_VE_MTurk/MX_fS_HTML.html#192,192,1440,900,1440,900,1-8-2024,14-1-47,7,catch_stimuli/c0.png,1000,,,0.0,2944,1003,meters,jsons/MX_seq9_2_VE1000.json,259534,407322,25,Woman
7,482055,final-intermixed-textured,v2,jsons/MX_seq9_2_VE1000.json,http://54.235.29.9/FacialAge/BNav_EC2/DepthDuration/MX_fS_VE_MTurk/MX_fS_HTML.html#192,192,1440,900,1440,900,1-8-2024,14-1-47,8,VR_target_stimuli/s8_0.75x_3.1_325.png,1000,0.75x,3.1,3.0,4485,1003,meters,jsons/MX_seq9_2_VE1000.json,259534,407322,25,Woman
8,482055,final-intermixed-textured,v2,jsons/MX_seq9_2_VE1000.json,http://54.235.29.9/FacialAge/BNav_EC2/DepthDuration/MX_fS_VE_MTurk/MX_fS_HTML.html#192,192,1440,900,1440,900,1-8-2024,14-1-47,9,VR_target_stimuli/s27_1.3x_1.76_250.png,1000,1.3x,1.76,2.0,3471,999,meters,jsons/MX_seq9_2_VE1000.json,259534,407322,25,Woman
9,482055,final-intermixed-textured,v2,jsons/MX_seq9_2_VE1000.json,http://54.235.29.9/FacialAge/BNav_EC2/DepthDuration/MX_fS_VE_MTurk/MX_fS_HTML.html#192,192,1440,900,1440,900,1-8-2024,14-1-47,10,VR_target_stimuli/s15_1x_4.2_390_BC.png,1000,1x,4.2,3.4,6473,1003,meters,jsons/MX_seq9_2_VE1000.json,259534,407322,25,Woman
10,482055,final-intermixed-textured,v2,jsons/MX_seq9_2_VE1000.json,http://54.235.29.9/FacialAge/BNav_EC2/DepthDuration/MX_fS_VE_MTurk/MX_fS_HTML.html#192,192,1440,900,1440,900,1-8-2024,14-1-47,11,VR_target_stimuli/s4_1.3x_1.4_328_BC.png,1000,1.3x,1.4,1.0,2847,1000,meters,jsons/MX_seq9_2_VE1000.json,259534,407322,25,Woman
11,482055,final-intermixed-textured,v2,jsons/MX_seq9_2_VE1000.json,http://54.235.29.9/FacialAge/BNav_EC2/DepthDuration/MX_fS_VE_MTurk/MX_fS_HTML.html#192,192,1440,900,1440,900,1-8-2024,14-1-47,12,VR_target_stimuli/s35_0.75x_2_323_BC.png,1000,0.75x,2.0,1.5,4683,1000,meters,jsons/MX_seq9_2_VE1000.json,259534,407322,25,Woman
12,482055,final-intermixed-textured,v2,jsons/MX_seq9_2_VE1000.json,http://54.235.29.9/FacialAge/BNav_EC2/DepthDuration/MX_fS_VE_MTurk/MX_fS_HTML.html#192,192,1440,900,1440,900,1-8-2024,14-1-47,13,VR_target_stimuli/s49_1x_4.67_341.png,1000,1x,4.67,2.3,3413,1003,meters,jsons/MX_seq9_2_VE1000.json,259534,407322,25,Woman
13,482055,final-intermixed-textured,v2,jsons/MX_seq9_2_VE1000.json,http://54.235.29.9/FacialAge/BNav_EC2/DepthDuration/MX_fS_VE_MTurk/MX_fS_HTML.html#192,192,1440,900,1440,900,1-8-2024,14-1-47,14,VR_target_stimuli/s7_0.75x_1.5_253_BC.png,1000,0.75x,1.5,1.0,2574,928,meters,jsons/MX_seq9_2_VE1000.json,259534,407322,25,Woman
14,482055,final-intermixed-textured,v2,jsons/MX_seq9_2_VE1000.json,http://54.235.29.9/FacialAge/BNav_EC2/DepthDuration/MX_fS_VE_MTurk/MX_fS_HTML.html#192,192,1440,900,1440,900,1-8-2024,14-1-47,15,VR_target_stimuli/s20_1.3x_4.99_412_BC.png,1000,1.3x,4.99,3.0,3123,1003,meters,jsons/MX_seq9_2_VE1000.json,259534,407322,25,Woman
15,482055,final-intermixed-textured,v2,jsons/MX_seq9_2_VE1000.json,http://54.235.29.9/FacialAge/BNav_EC2/DepthDuration/MX_fS_VE_MTurk/MX_fS_HTML.html#192,192,1440,900,1440,900,1-8-2024,14-1-47,16,VR_target_stimuli/s31_1x_4.96_333.png,1000,1x,4.96,1.6,4171,1003,meters,jsons/MX_seq9_2_VE1000.json,259534,407322,25,Woman
16,482055,final-intermixed-textured,v2,jsons/MX_seq9_2_VE1000.json,http://54.235.29.9/FacialAge/BNav_EC2/DepthDuration/MX_fS_VE_MTurk/MX_fS_HTML.html#192,192,1440,900,1440,900,1-8-2024,14-1-47,17,catch_stimuli/c1.png,1000,,,0.0,5057,998,meters,jsons/MX_seq9_2_VE1000.json,259534,407322,25,Woman
17,482055,final-intermixed-textured,v2,jsons/MX_seq9_2_VE1000.json,http://54.235.29.9/FacialAge/BNav_EC2/DepthDuration/MX_fS_VE_MTurk/MX_fS_HTML.html#192,192,1440,900,1440,900,1-8-2024,14-1-47,18,VR_target_stimuli/s33_1x_3.1_366_BC.png,1000,1x,3.1,2.0,2640,1000,meters,jsons/MX_seq9_2_VE1000.json,259534,407322,25,Woman
18,482055,final-intermixed-textured,v2,jsons/MX_seq9_2_VE1000.json,http://54.235.29.9/FacialAge/BNav_EC2/DepthDuration/MX_fS_VE_MTurk/MX_fS_HTML.html#192,192,1440,900,1440,900,1-8-2024,14-1-47,19,VR_target_stimuli/s52_0.75x_3.2_270.png,1000,0.75x,3.2,2.7,4591,1004,meters,jsons/MX_seq9_2_VE1000.json,259534,407322,25,Woman
19,482055,final-intermixed-textured,v2,jsons/MX_seq9_2_VE1000.json,http://54.235.29.9/FacialAge/BNav_EC2/DepthDuration/MX_fS_VE_MTurk/MX_fS_HTML.html#192,192,1440,900,1440,900,1-8-2024,14-1-47,20,VR_target_stimuli/s32_1.3x_1.5_224.png,1000,1.3x,1.5,1.7,3547,1005,meters,jsons/MX_seq9_2_VE1000.json,259534,407322,25,Woman
20,482055,final-intermixed-textured,v2,jsons/MX_seq9_2_VE1000.json,http://54.235.29.9/FacialAge/BNav_EC2/DepthDuration/MX_fS_VE_MTurk/MX_fS_HTML.html#192,192,1440,900,1440,900,1-8-2024,14-1-47,21,VR_target_stimuli/s18_0.75x_2.25_341.png,1000,0.75x,2.25,1.6,3003,998,meters,jsons/MX_seq9_2_VE1000.json,259534,407322,25,Woman
21,482055,final-intermixed-textured,v2,jsons/MX_seq9_2_VE1000.json,http://54.235.29.9/FacialAge/BNav_EC2/DepthDuration/MX_fS_VE_MTurk/MX_fS_HTML.html#192,192,1440,900,1440,900,1-8-2024,14-1-47,22,VR_target_stimuli/s39_1x_1_207.png,1000,1x,1.0,0.7,5599,999,meters,jsons/MX_seq9_2_VE1000.json,259534,407322,25,Woman
22,482055,final-intermixed-textured,v2,jsons/MX_seq9_2_VE1000.json,http://54.235.29.9/FacialAge/BNav_EC2/DepthDuration/MX_fS_VE_MTurk/MX_fS_HTML.html#192,192,1440,900,1440,900,1-8-2024,14-1-47,23,VR_target_stimuli/s51_1.3x_3.64_479_BC.png,1000,1.3x,3.64,1.7,3673,1004,meters,jsons/MX_seq9_2_VE1000.json,259534,407322,25,Woman
23,482055,final-intermixed-textured,v2,jsons/MX_seq9_2_VE1000.json,http://54.235.29.9/FacialAge/BNav_EC2/DepthDuration/MX_fS_VE_MTurk/MX_fS_HTML.html#192,192,1440,900,1440,900,1-8-2024,14-1-47,24,VR_target_stimuli/s43_1x_2.2_354_BC.png,1000,1x,2.2,1.6,4936,1003,meters,jsons/MX_seq9_2_VE1000.json,259534,407322,25,Woman
24,482055,final-intermixed-textured,v2,jsons/MX_seq9_2_VE1000.json,http://54.235.29.9/FacialAge/BNav_EC2/DepthDuration/MX_fS_VE_MTurk/MX_fS_HTML.html#192,192,1440,900,1440,900,1-8-2024,14-1-47,25,VR_target_stimuli/s24_0.75x_3.3_344_BC.png,1000,0.75x,3.3,2.3,3588,999,meters,jsons/MX_seq9_2_VE1000.json,259534,407322,25,Woman
25,482055,final-intermixed-textured,v2,jsons/MX_seq9_2_VE1000.json,http://54.235.29.9/FacialAge/BNav_EC2/DepthDuration/MX_fS_VE_MTurk/MX_fS_HTML.html#192,192,1440,900,1440,900,1-8-2024,14-1-47,26,catch_stimuli/c2.png,1000,,,0.0,2956,999,meters,jsons/MX_seq9_2_VE1000.json,259534,407322,25,Woman
26,482055,final-intermixed-textured,v2,jsons/MX_seq9_2_VE1000.json,http://54.235.29.9/FacialAge/BNav_EC2/DepthDuration/MX_fS_VE_MTurk/MX_fS_HTML.html#192,192,1440,900,1440,900,1-8-2024,14-1-47,27,VR_target_stimuli/s10_1.3x_2.7_325.png,1000,1.3x,2.7,2.3,3770,1005,meters,jsons/MX_seq9_2_VE1000.json,259534,407322,25,Woman
27,482055,final-intermixed-textured,v2,jsons/MX_seq9_2_VE1000.json,http://54.235.29.9/FacialAge/BNav_EC2/DepthDuration/MX_fS_VE_MTurk/MX_fS_HTML.html#192,192,1440,900,1440,900,1-8-2024,14-1-47,28,VR_target_stimuli/s36_1.3x_4.1_442.png,1000,1.3x,4.1,2.6,7445,1002,meters,jsons/MX_seq9_2_VE1000.json,259534,407322,25,Woman
28,482055,final-intermixed-textured,v2,jsons/MX_seq9_2_VE1000.json,http://54.235.29.9/FacialAge/BNav_EC2/DepthDuration/MX_fS_VE_MTurk/MX_fS_HTML.html#192,192,1440,900,1440,900,1-8-2024,14-1-47,29,VR_target_stimuli/s40_1x_1.2_319_BC.png,1000,1x,1.2,1.8,3351,1000,meters,jsons/MX_seq9_2_VE1000.json,259534,407322,25,Woman
29,482055,final-intermixed-textured,v2,jsons/MX_seq9_2_VE1000.json,http://54.235.29.9/FacialAge/BNav_EC2/DepthDuration/MX_fS_VE_MTurk/MX_fS_HTML.html#192,192,1440,900,1440,900,1-8-2024,14-1-47,30,VR_target_stimuli/s41_0.75x_2.1_281_BC.png,1000,0.75x,2.1,2.0,2327,1002,meters,jsons/MX_seq9_2_VE1000.json,259534,407322,25,Woman
30,482055,final-intermixed-textured,v2,jsons/MX_seq9_2_VE1000.json,http://54.235.29.9/FacialAge/BNav_EC2/DepthDuration/MX_fS_VE_MTurk/MX_fS_HTML.html#192,192,1440,900,1440,900,1-8-2024,14-1-47,31,VR_target_stimuli/s45_1.3x_3.5_377_BC.png,1000,1.3x,3.5,2.4,2842,1000,meters,jsons/MX_seq9_2_VE1000.json,259534,407322,25,Woman
31,482055,final-intermixed-textured,v2,jsons/MX_seq9_2_VE1000.json,http://54.235.29.9/FacialAge/BNav_EC2/DepthDuration/MX_fS_VE_MTurk/MX_fS_HTML.html#192,192,1440,900,1440,900,1-8-2024,14-1-47,32,VR_target_stimuli/s23_0.75x_3.65_351.png,1000,0.75x,3.65,2.7,3297,1000,meters,jsons/MX_seq9_2_VE1000.json,259534,407322,25,Woman
32,482055,final-intermixed-textured,v2,jsons/MX_seq9_2_VE1000.json,http://54.235.29.9/FacialAge/BNav_EC2/DepthDuration/MX_fS_VE_MTurk/MX_fS_HTML.html#192,192,1440,900,1440,900,1-8-2024,14-1-47,33,VR_target_stimuli/s26_1x_4_433.png,1000,1x,4.0,3.0,2640,999,meters,jsons/MX_seq9_2_VE1000.json,259534,407322,25,Woman
33,482055,final-intermixed-textured,v2,jsons/MX_seq9_2_VE1000.json,http://54.235.29.9/FacialAge/BNav_EC2/DepthDuration/MX_fS_VE_MTurk/MX_fS_HTML.html#192,192,1440,900,1440,900,1-8-2024,14-1-47,34,catch_stimuli/c3.png,1000,,,0.0,3142,995,meters,jsons/MX_seq9_2_VE1000.json,259534,407322,25,Woman
34,482055,final-intermixed-textured,v2,jsons/MX_seq9_2_VE1000.json,http://54.235.29.9/FacialAge/BNav_EC2/DepthDuration/MX_fS_VE_MTurk/MX_fS_HTML.html#192,192,1440,900,1440,900,1-8-2024,14-1-47,35,VR_target_stimuli/s12_0.75x_3.1_364_BC.png,1000,0.75x,3.1,2.5,2825,1000,meters,jsons/MX_seq9_2_VE1000.json,259534,407322,25,Woman
35,482055,final-intermixed-textured,v2,jsons/MX_seq9_2_VE1000.json,http://54.235.29.9/FacialAge/BNav_EC2/DepthDuration/MX_fS_VE_MTurk/MX_fS_HTML.html#192,192,1440,900,1440,900,1-8-2024,14-1-47,36,VR_target_stimuli/s30_1.3x_2.3_337_BC.png,1000,1.3x,2.3,2.0,2911,1000,meters,jsons/MX_seq9_2_VE1000.json,259534,407322,25,Woman
36,482055,final-intermixed-textured,v2,jsons/MX_seq9_2_VE1000.json,http://54.235.29.9/FacialAge/BNav_EC2/DepthDuration/MX_fS_VE_MTurk/MX_fS_HTML.html#192,192,1440,900,1440,900,1-8-2024,14-1-47,37,VR_target_stimuli/s16_1x_1_219_BC.png,1000,1x,1.0,0.6,5069,1004,meters,jsons/MX_seq9_2_VE1000.json,259534,407322,25,Woman
37,482055,final-intermixed-textured,v2,jsons/MX_seq9_2_VE1000.json,http://54.235.29.9/FacialAge/BNav_EC2/DepthDuration/MX_fS_VE_MTurk/MX_fS_HTML.html#192,192,1440,900,1440,900,1-8-2024,14-1-47,38,VR_target_stimuli/s17_1x_1.8_291.png,1000,1x,1.8,0.7,5334,1000,meters,jsons/MX_seq9_2_VE1000.json,259534,407322,25,Woman
38,482055,final-intermixed-textured,v2,jsons/MX_seq9_2_VE1000.json,http://54.235.29.9/FacialAge/BNav_EC2/DepthDuration/MX_fS_VE_MTurk/MX_fS_HTML.html#192,192,1440,900,1440,900,1-8-2024,14-1-47,39,VR_target_stimuli/s5_0.75x_4_375.png,1000,0.75x,4.0,2.0,4929,999,meters,jsons/MX_seq9_2_VE1000.json,259534,407322,25,Woman
39,482055,final-intermixed-textured,v2,jsons/MX_seq9_2_VE1000.json,http://54.235.29.9/FacialAge/BNav_EC2/DepthDuration/MX_fS_VE_MTurk/MX_fS_HTML.html#192,192,1440,900,1440,900,1-8-2024,14-1-47,40,VR_target_stimuli/s37_1.3x_3.3_555.png,1000,1.3x,3.3,2.0,5979,1001,meters,jsons/MX_seq9_2_VE1000.json,259534,407322,25,Woman
40,482055,final-intermixed-textured,v2,jsons/MX_seq9_2_VE1000.json,http://54.235.29.9/FacialAge/BNav_EC2/DepthDuration/MX_fS_VE_MTurk/MX_fS_HTML.html#192,192,1440,900,1440,900,1-8-2024,14-1-47,41,VR_target_stimuli/s46_0.75x_2.42_343_BC.png,1000,0.75x,2.42,2.6,3596,1002,meters,jsons/MX_seq9_2_VE1000.json,259534,407322,25,Woman
41,482055,final-intermixed-textured,v2,jsons/MX_seq9_2_VE1000.json,http://54.235.29.9/FacialAge/BNav_EC2/DepthDuration/MX_fS_VE_MTurk/MX_fS_HTML.html#192,192,1440,900,1440,900,1-8-2024,14-1-47,42,VR_target_stimuli/s22_1x_4.29_354.png,1000,1x,4.29,3.5,5867,1002,meters,jsons/MX_seq9_2_VE1000.json,259534,407322,25,Woman
42,482055,final-intermixed-textured,v2,jsons/MX_seq9_2_VE1000.json,http://54.235.29.9/FacialAge/BNav_EC2/DepthDuration/MX_fS_VE_MTurk/MX_fS_HTML.html#192,192,1440,900,1440,900,1-8-2024,14-1-47,43,VR_target_stimuli/s42_1.3x_3.2_305_BC.png,1000,1.3x,3.2,3.0,2317,1000,meters,jsons/MX_seq9_2_VE1000.json,259534,407322,25,Woman
43,482055,final-intermixed-textured,v2,jsons/MX_seq9_2_VE1000.json,http://54.235.29.9/FacialAge/BNav_EC2/DepthDuration/MX_fS_VE_MTurk/MX_fS_HTML.html#192,192,1440,900,1440,900,1-8-2024,14-1-47,44,VR_target_stimuli/s25_1x_1.4_290_BC.png,1000,1x,1.4,1.0,2190,1004,meters,jsons/MX_seq9_2_VE1000.json,259534,407322,25,Woman
44,482055,final-intermixed-textured,v2,jsons/MX_seq9_2_VE1000.json,http://54.235.29.9/FacialAge/BNav_EC2/DepthDuration/MX_fS_VE_MTurk/MX_fS_HTML.html#192,192,1440,900,1440,900,1-8-2024,14-1-47,45,catch_stimuli/c4.png,1000,,,1.0,5174,1003,meters,jsons/MX_seq9_2_VE1000.json,259534,407322,25,Woman
45,482055,final-intermixed-textured,v2,jsons/MX_seq9_2_VE1000.json,http://54.235.29.9/FacialAge/BNav_EC2/DepthDuration/MX_fS_VE_MTurk/MX_fS_HTML.html#192,192,1440,900,1440,900,1-8-2024,14-1-47,46,VR_target_stimuli/s50_0.75x_4.53_517.png,1000,0.75x,4.53,2.0,2966,1003,meters,jsons/MX_seq9_2_VE1000.json,259534,407322,25,Woman
46,482055,final-intermixed-textured,v2,jsons/MX_seq9_2_VE1000.json,http://54.235.29.9/FacialAge/BNav_EC2/DepthDuration/MX_fS_VE_MTurk/MX_fS_HTML.html#192,192,1440,900,1440,900,1-8-2024,14-1-47,47,VR_target_stimuli/s53_1.3x_1.6_355.png,1000,1.3x,1.6,1.0,2199,1001,meters,jsons/MX_seq9_2_VE1000.json,259534,407322,25,Woman
47,482055,final-intermixed-textured,v2,jsons/MX_seq9_2_VE1000.json,http://54.235.29.9/FacialAge/BNav_EC2/DepthDuration/MX_fS_VE_MTurk/MX_fS_HTML.html#192,192,1440,900,1440,900,1-8-2024,14-1-47,48,VR_target_stimuli/s38_1.3x_3.55_358.png,1000,1.3x,3.55,3.0,2344,1004,meters,jsons/MX_seq9_2_VE1000.json,259534,407322,25,Woman
48,482055,final-intermixed-textured,v2,jsons/MX_seq9_2_VE1000.json,http://54.235.29.9/FacialAge/BNav_EC2/DepthDuration/MX_fS_VE_MTurk/MX_fS_HTML.html#192,192,1440,900,1440,900,1-8-2024,14-1-47,49,VR_target_stimuli/s9_1x_1.2_263.png,1000,1x,1.2,1.5,4257,1003,meters,jsons/MX_seq9_2_VE1000.json,259534,407322,25,Woman
49,482055,final-intermixed-textured,v2,jsons/MX_seq9_2_VE1000.json,http://54.235.29.9/FacialAge/BNav_EC2/DepthDuration/MX_fS_VE_MTurk/MX_fS_HTML.html#192,192,1440,900,1440,900,1-8-2024,14-1-47,50,VR_target_stimuli/s44_0.75x_4.4_314_BC.png,1000,0.75x,4.4,3.0,3042,998,meters,jsons/MX_seq9_2_VE1000.json,259534,407322,25,Woman
50,482055,final-intermixed-textured,v2,jsons/MX_seq9_2_VE1000.json,http://54.235.29.9/FacialAge/BNav_EC2/DepthDuration/MX_fS_VE_MTurk/MX_fS_HTML.html#192,192,1440,900,1440,900,1-8-2024,14-1-47,51,VR_target_stimuli/s3_1x_5_385_BC.png,1000,1x,5.0,3.5,3578,1003,meters,jsons/MX_seq9_2_VE1000.json,259534,407322,25,Woman
51,482055,final-intermixed-textured,v2,jsons/MX_seq9_2_VE1000.json,http://54.235.29.9/FacialAge/BNav_EC2/DepthDuration/MX_fS_VE_MTurk/MX_fS_HTML.html#192,192,1440,900,1440,900,1-8-2024,14-1-47,52,VR_target_stimuli/s1_1.3x_1.7_261_BC.png,1000,1.3x,1.7,2.0,4373,999,meters,jsons/MX_seq9_2_VE1000.json,259534,407322,25,Woman
52,482055,final-intermixed-textured,v2,jsons/MX_seq9_2_VE1000.json,http://54.235.29.9/FacialAge/BNav_EC2/DepthDuration/MX_fS_VE_MTurk/MX_fS_HTML.html#192,192,1440,900,1440,900,1-8-2024,14-1-47,53,catch_stimuli/c5.png,1000,,,0.0,2995,1000,meters,jsons/MX_seq9_2_VE1000.json,259534,407322,25,Woman
53,482055,final-intermixed-textured,v2,jsons/MX_seq9_2_VE1000.json,http://54.235.29.9/FacialAge/BNav_EC2/DepthDuration/MX_fS_VE_MTurk/MX_fS_HTML.html#192,192,1440,900,1440,900,1-8-2024,14-1-47,54,VR_target_stimuli/s11_0.75x_5_359.png,1000,0.75x,5.0,4.5,3483,1005,meters,jsons/MX_seq9_2_VE1000.json,259534,407322,25,Woman
54,482055,final-intermixed-textured,v2,jsons/MX_seq9_2_VE1000.json,http://54.235.29.9/FacialAge/BNav_EC2/DepthDuration/MX_fS_VE_MTurk/MX_fS_HTML.html#192,192,1440,900,1440,900,1-8-2024,14-1-47,55,VR_target_stimuli/s2_1.3x_2.7_397.png,1000,1.3x,2.7,2.5,4156,999,meters,jsons/MX_seq9_2_VE1000.json,259534,407322,25,Woman
55,482055,final-intermixed-textured,v2,jsons/MX_seq9_2_VE1000.json,http://54.235.29.9/FacialAge/BNav_EC2/DepthDuration/MX_fS_VE_MTurk/MX_fS_HTML.html#192,192,1440,900,1440,900,1-8-2024,14-1-47,56,VR_target_stimuli/s6_1x_2.1_293_BC.png,1000,1x,2.1,2.0,6622,1001,meters,jsons/MX_seq9_2_VE1000.json,259534,407322,25,Woman
56,482055,final-intermixed-textured,v2,jsons/MX_seq9_2_VE1000.json,http://54.235.29.9/FacialAge/BNav_EC2/DepthDuration/MX_fS_VE_MTurk/MX_fS_HTML.html#192,192,1440,900,1440,900,1-8-2024,14-1-47,57,VR_target_stimuli/s0_0.75x_2.6_345_BC.png,1000,0.75x,2.6,2.4,4555,1002,meters,jsons/MX_seq9_2_VE1000.json,259534,407322,25,Woman
57,482055,final-intermixed-textured,v2,jsons/MX_seq9_2_VE1000.json,http://54.235.29.9/FacialAge/BNav_EC2/DepthDuration/MX_fS_VE_MTurk/MX_fS_HTML.html#192,192,1440,900,1440,900,1-8-2024,14-1-47,58,VR_target_stimuli/s34_0.75x_2.8_269.png,1000,0.75x,2.8,4.0,2758,1003,meters,jsons/MX_seq9_2_VE1000.json,259534,407322,25,Woman
58,482055,final-intermixed-textured,v2,jsons/MX_seq9_2_VE1000.json,http://54.235.29.9/FacialAge/BNav_EC2/DepthDuration/MX_fS_VE_MTurk/MX_fS_HTML.html#192,192,1440,900,1440,900,1-8-2024,14-1-47,59,VR_target_stimuli/s13_1.3x_2.4_313_BC.png,1000,1.3x,2.4,3.6,3270,1003,meters,jsons/MX_seq9_2_VE1000.json,259534,407322,25,Woman
59,482055,final-intermixed-textured,v2,jsons/MX_seq9_2_VE1000.json,http://54.235.29.9/FacialAge/BNav_EC2/DepthDuration/MX_fS_VE_MTurk/MX_fS_HTML.html#192,192,1440,900,1440,900,1-8-2024,14-1-47,60,VR_target_stimuli/s14_1x_ 3.83_357.png,1000,1x,3.83,4.0,2924,1003,meters,jsons/MX_seq9_2_VE1000.json,259534,407322,25,Woman
