,subjID,experimentName,versionName,sequenceName,url,selected_row,windowWidth,windowHeight,screenWidth,screenHeight,startDate,startTime,trial,stimulus,duration,scale,actual_depth,depth_estimate,trial_RT,log_sceneDuration,unitSelection,seq_filepath,experimentTime,totalTime,age,gender
0,499600,final-intermixed-textured,v2,jsons/MX_seq18_2_VE1000.json,http://54.235.29.9/FacialAge/BNav_EC2/DepthDuration/MX_fS_VE_MTurk/MX_fS_HTML.html#131,131,1920,977,1920,1080,1-8-2024,22-51-33,1,VR_target_stimuli/s4_1x_1.4_313_BC.png,1000,1x,1.4,2,4554,995,meters,jsons/MX_seq18_2_VE1000.json,239021,534609,22,Man
1,499600,final-intermixed-textured,v2,jsons/MX_seq18_2_VE1000.json,http://54.235.29.9/FacialAge/BNav_EC2/DepthDuration/MX_fS_VE_MTurk/MX_fS_HTML.html#131,131,1920,977,1920,1080,1-8-2024,22-51-33,2,VR_target_stimuli/s35_1.3x_2_338.png,1000,1.3x,2.0,2,2830,996,meters,jsons/MX_seq18_2_VE1000.json,239021,534609,22,Man
2,499600,final-intermixed-textured,v2,jsons/MX_seq18_2_VE1000.json,http://54.235.29.9/FacialAge/BNav_EC2/DepthDuration/MX_fS_VE_MTurk/MX_fS_HTML.html#131,131,1920,977,1920,1080,1-8-2024,22-51-33,3,VR_target_stimuli/s49_0.75x_4.67_328_BC.png,1000,0.75x,4.67,5,3617,996,meters,jsons/MX_seq18_2_VE1000.json,239021,534609,22,Man
3,499600,final-intermixed-textured,v2,jsons/MX_seq18_2_VE1000.json,http://54.235.29.9/FacialAge/BNav_EC2/DepthDuration/MX_fS_VE_MTurk/MX_fS_HTML.html#131,131,1920,977,1920,1080,1-8-2024,22-51-33,4,VR_target_stimuli/s7_1.3x_1.5_256_BC.png,1000,1.3x,1.5,2,3002,1001,meters,jsons/MX_seq18_2_VE1000.json,239021,534609,22,Man
4,499600,final-intermixed-textured,v2,jsons/MX_seq18_2_VE1000.json,http://54.235.29.9/FacialAge/BNav_EC2/DepthDuration/MX_fS_VE_MTurk/MX_fS_HTML.html#131,131,1920,977,1920,1080,1-8-2024,22-51-33,5,VR_target_stimuli/s20_1x_4.99_398.png,1000,1x,4.99,3,7420,995,meters,jsons/MX_seq18_2_VE1000.json,239021,534609,22,Man
5,499600,final-intermixed-textured,v2,jsons/MX_seq18_2_VE1000.json,http://54.235.29.9/FacialAge/BNav_EC2/DepthDuration/MX_fS_VE_MTurk/MX_fS_HTML.html#131,131,1920,977,1920,1080,1-8-2024,22-51-33,6,VR_target_stimuli/s31_0.75x_4.96_329.png,1000,0.75x,4.96,4,5293,1005,meters,jsons/MX_seq18_2_VE1000.json,239021,534609,22,Man
6,499600,final-intermixed-textured,v2,jsons/MX_seq18_2_VE1000.json,http://54.235.29.9/FacialAge/BNav_EC2/DepthDuration/MX_fS_VE_MTurk/MX_fS_HTML.html#131,131,1920,977,1920,1080,1-8-2024,22-51-33,7,catch_stimuli/c0.png,1000,,,0,2840,1002,meters,jsons/MX_seq18_2_VE1000.json,239021,534609,22,Man
7,499600,final-intermixed-textured,v2,jsons/MX_seq18_2_VE1000.json,http://54.235.29.9/FacialAge/BNav_EC2/DepthDuration/MX_fS_VE_MTurk/MX_fS_HTML.html#131,131,1920,977,1920,1080,1-8-2024,22-51-33,8,VR_target_stimuli/s33_0.75x_3.1_361.png,1000,0.75x,3.1,3,3604,986,meters,jsons/MX_seq18_2_VE1000.json,239021,534609,22,Man
8,499600,final-intermixed-textured,v2,jsons/MX_seq18_2_VE1000.json,http://54.235.29.9/FacialAge/BNav_EC2/DepthDuration/MX_fS_VE_MTurk/MX_fS_HTML.html#131,131,1920,977,1920,1080,1-8-2024,22-51-33,9,VR_target_stimuli/s52_1.3x_3.2_280.png,1000,1.3x,3.2,3,3267,1013,meters,jsons/MX_seq18_2_VE1000.json,239021,534609,22,Man
9,499600,final-intermixed-textured,v2,jsons/MX_seq18_2_VE1000.json,http://54.235.29.9/FacialAge/BNav_EC2/DepthDuration/MX_fS_VE_MTurk/MX_fS_HTML.html#131,131,1920,977,1920,1080,1-8-2024,22-51-33,10,VR_target_stimuli/s32_1x_1.5_218_BC.png,1000,1x,1.5,2,5570,989,meters,jsons/MX_seq18_2_VE1000.json,239021,534609,22,Man
10,499600,final-intermixed-textured,v2,jsons/MX_seq18_2_VE1000.json,http://54.235.29.9/FacialAge/BNav_EC2/DepthDuration/MX_fS_VE_MTurk/MX_fS_HTML.html#131,131,1920,977,1920,1080,1-8-2024,22-51-33,11,VR_target_stimuli/s18_1.3x_2.25_368_BC.png,1000,1.3x,2.25,2,4825,998,meters,jsons/MX_seq18_2_VE1000.json,239021,534609,22,Man
11,499600,final-intermixed-textured,v2,jsons/MX_seq18_2_VE1000.json,http://54.235.29.9/FacialAge/BNav_EC2/DepthDuration/MX_fS_VE_MTurk/MX_fS_HTML.html#131,131,1920,977,1920,1080,1-8-2024,22-51-33,12,VR_target_stimuli/s39_0.75x_1_205_BC.png,1000,0.75x,1.0,1,2794,988,meters,jsons/MX_seq18_2_VE1000.json,239021,534609,22,Man
12,499600,final-intermixed-textured,v2,jsons/MX_seq18_2_VE1000.json,http://54.235.29.9/FacialAge/BNav_EC2/DepthDuration/MX_fS_VE_MTurk/MX_fS_HTML.html#131,131,1920,977,1920,1080,1-8-2024,22-51-33,13,VR_target_stimuli/s51_1x_3.64_461.png,1000,1x,3.64,2,3504,1002,meters,jsons/MX_seq18_2_VE1000.json,239021,534609,22,Man
13,499600,final-intermixed-textured,v2,jsons/MX_seq18_2_VE1000.json,http://54.235.29.9/FacialAge/BNav_EC2/DepthDuration/MX_fS_VE_MTurk/MX_fS_HTML.html#131,131,1920,977,1920,1080,1-8-2024,22-51-33,14,VR_target_stimuli/s43_0.75x_2.2_348_BC.png,1000,0.75x,2.2,2,2900,1004,meters,jsons/MX_seq18_2_VE1000.json,239021,534609,22,Man
14,499600,final-intermixed-textured,v2,jsons/MX_seq18_2_VE1000.json,http://54.235.29.9/FacialAge/BNav_EC2/DepthDuration/MX_fS_VE_MTurk/MX_fS_HTML.html#131,131,1920,977,1920,1080,1-8-2024,22-51-33,15,VR_target_stimuli/s24_1.3x_3.3_352_BC.png,1000,1.3x,3.3,2,2589,1011,meters,jsons/MX_seq18_2_VE1000.json,239021,534609,22,Man
15,499600,final-intermixed-textured,v2,jsons/MX_seq18_2_VE1000.json,http://54.235.29.9/FacialAge/BNav_EC2/DepthDuration/MX_fS_VE_MTurk/MX_fS_HTML.html#131,131,1920,977,1920,1080,1-8-2024,22-51-33,16,VR_target_stimuli/s10_1x_2.7_324.png,1000,1x,2.7,2,2660,1003,meters,jsons/MX_seq18_2_VE1000.json,239021,534609,22,Man
16,499600,final-intermixed-textured,v2,jsons/MX_seq18_2_VE1000.json,http://54.235.29.9/FacialAge/BNav_EC2/DepthDuration/MX_fS_VE_MTurk/MX_fS_HTML.html#131,131,1920,977,1920,1080,1-8-2024,22-51-33,17,catch_stimuli/c1.png,1000,,,0,3046,999,meters,jsons/MX_seq18_2_VE1000.json,239021,534609,22,Man
17,499600,final-intermixed-textured,v2,jsons/MX_seq18_2_VE1000.json,http://54.235.29.9/FacialAge/BNav_EC2/DepthDuration/MX_fS_VE_MTurk/MX_fS_HTML.html#131,131,1920,977,1920,1080,1-8-2024,22-51-33,18,VR_target_stimuli/s36_1x_4.1_423_BC.png,1000,1x,4.1,2,4067,1010,meters,jsons/MX_seq18_2_VE1000.json,239021,534609,22,Man
18,499600,final-intermixed-textured,v2,jsons/MX_seq18_2_VE1000.json,http://54.235.29.9/FacialAge/BNav_EC2/DepthDuration/MX_fS_VE_MTurk/MX_fS_HTML.html#131,131,1920,977,1920,1080,1-8-2024,22-51-33,19,VR_target_stimuli/s40_0.75x_1.2_308.png,1000,0.75x,1.2,1,2820,996,meters,jsons/MX_seq18_2_VE1000.json,239021,534609,22,Man
19,499600,final-intermixed-textured,v2,jsons/MX_seq18_2_VE1000.json,http://54.235.29.9/FacialAge/BNav_EC2/DepthDuration/MX_fS_VE_MTurk/MX_fS_HTML.html#131,131,1920,977,1920,1080,1-8-2024,22-51-33,20,VR_target_stimuli/s41_1.3x_2.1_294.png,1000,1.3x,2.1,1,2730,988,meters,jsons/MX_seq18_2_VE1000.json,239021,534609,22,Man
20,499600,final-intermixed-textured,v2,jsons/MX_seq18_2_VE1000.json,http://54.235.29.9/FacialAge/BNav_EC2/DepthDuration/MX_fS_VE_MTurk/MX_fS_HTML.html#131,131,1920,977,1920,1080,1-8-2024,22-51-33,21,VR_target_stimuli/s45_0.75x_3.5_362.png,1000,0.75x,3.5,2,3036,994,meters,jsons/MX_seq18_2_VE1000.json,239021,534609,22,Man
21,499600,final-intermixed-textured,v2,jsons/MX_seq18_2_VE1000.json,http://54.235.29.9/FacialAge/BNav_EC2/DepthDuration/MX_fS_VE_MTurk/MX_fS_HTML.html#131,131,1920,977,1920,1080,1-8-2024,22-51-33,22,VR_target_stimuli/s23_1x_3.65_353_BC.png,1000,1x,3.65,2,2756,992,meters,jsons/MX_seq18_2_VE1000.json,239021,534609,22,Man
22,499600,final-intermixed-textured,v2,jsons/MX_seq18_2_VE1000.json,http://54.235.29.9/FacialAge/BNav_EC2/DepthDuration/MX_fS_VE_MTurk/MX_fS_HTML.html#131,131,1920,977,1920,1080,1-8-2024,22-51-33,23,VR_target_stimuli/s26_1.3x_4_441_BC.png,1000,1.3x,4.0,2,4088,993,meters,jsons/MX_seq18_2_VE1000.json,239021,534609,22,Man
23,499600,final-intermixed-textured,v2,jsons/MX_seq18_2_VE1000.json,http://54.235.29.9/FacialAge/BNav_EC2/DepthDuration/MX_fS_VE_MTurk/MX_fS_HTML.html#131,131,1920,977,1920,1080,1-8-2024,22-51-33,24,VR_target_stimuli/s12_1x_3.1_372.png,1000,1x,3.1,2,2729,1009,meters,jsons/MX_seq18_2_VE1000.json,239021,534609,22,Man
24,499600,final-intermixed-textured,v2,jsons/MX_seq18_2_VE1000.json,http://54.235.29.9/FacialAge/BNav_EC2/DepthDuration/MX_fS_VE_MTurk/MX_fS_HTML.html#131,131,1920,977,1920,1080,1-8-2024,22-51-33,25,VR_target_stimuli/s30_0.75x_2.3_332_BC.png,1000,0.75x,2.3,2,3456,998,meters,jsons/MX_seq18_2_VE1000.json,239021,534609,22,Man
25,499600,final-intermixed-textured,v2,jsons/MX_seq18_2_VE1000.json,http://54.235.29.9/FacialAge/BNav_EC2/DepthDuration/MX_fS_VE_MTurk/MX_fS_HTML.html#131,131,1920,977,1920,1080,1-8-2024,22-51-33,26,catch_stimuli/c2.png,1000,,,0,4127,1001,meters,jsons/MX_seq18_2_VE1000.json,239021,534609,22,Man
26,499600,final-intermixed-textured,v2,jsons/MX_seq18_2_VE1000.json,http://54.235.29.9/FacialAge/BNav_EC2/DepthDuration/MX_fS_VE_MTurk/MX_fS_HTML.html#131,131,1920,977,1920,1080,1-8-2024,22-51-33,27,VR_target_stimuli/s16_1.3x_1_223.png,1000,1.3x,1.0,1,2822,992,meters,jsons/MX_seq18_2_VE1000.json,239021,534609,22,Man
27,499600,final-intermixed-textured,v2,jsons/MX_seq18_2_VE1000.json,http://54.235.29.9/FacialAge/BNav_EC2/DepthDuration/MX_fS_VE_MTurk/MX_fS_HTML.html#131,131,1920,977,1920,1080,1-8-2024,22-51-33,28,VR_target_stimuli/s17_1.3x_1.8_300.png,1000,1.3x,1.8,1,2968,996,meters,jsons/MX_seq18_2_VE1000.json,239021,534609,22,Man
28,499600,final-intermixed-textured,v2,jsons/MX_seq18_2_VE1000.json,http://54.235.29.9/FacialAge/BNav_EC2/DepthDuration/MX_fS_VE_MTurk/MX_fS_HTML.html#131,131,1920,977,1920,1080,1-8-2024,22-51-33,29,VR_target_stimuli/s5_1x_4_378.png,1000,1x,4.0,3,3356,1000,meters,jsons/MX_seq18_2_VE1000.json,239021,534609,22,Man
29,499600,final-intermixed-textured,v2,jsons/MX_seq18_2_VE1000.json,http://54.235.29.9/FacialAge/BNav_EC2/DepthDuration/MX_fS_VE_MTurk/MX_fS_HTML.html#131,131,1920,977,1920,1080,1-8-2024,22-51-33,30,VR_target_stimuli/s37_0.75x_3.3_567.png,1000,0.75x,3.3,1,2743,1013,meters,jsons/MX_seq18_2_VE1000.json,239021,534609,22,Man
30,499600,final-intermixed-textured,v2,jsons/MX_seq18_2_VE1000.json,http://54.235.29.9/FacialAge/BNav_EC2/DepthDuration/MX_fS_VE_MTurk/MX_fS_HTML.html#131,131,1920,977,1920,1080,1-8-2024,22-51-33,31,VR_target_stimuli/s46_1.3x_2.42_354_BC.png,1000,1.3x,2.42,2,3325,998,meters,jsons/MX_seq18_2_VE1000.json,239021,534609,22,Man
31,499600,final-intermixed-textured,v2,jsons/MX_seq18_2_VE1000.json,http://54.235.29.9/FacialAge/BNav_EC2/DepthDuration/MX_fS_VE_MTurk/MX_fS_HTML.html#131,131,1920,977,1920,1080,1-8-2024,22-51-33,32,VR_target_stimuli/s22_0.75x_4.29_348_BC.png,1000,0.75x,4.29,3,2664,1001,meters,jsons/MX_seq18_2_VE1000.json,239021,534609,22,Man
32,499600,final-intermixed-textured,v2,jsons/MX_seq18_2_VE1000.json,http://54.235.29.9/FacialAge/BNav_EC2/DepthDuration/MX_fS_VE_MTurk/MX_fS_HTML.html#131,131,1920,977,1920,1080,1-8-2024,22-51-33,33,VR_target_stimuli/s42_1x_3.2_303_BC.png,1000,1x,3.2,2,3908,1003,meters,jsons/MX_seq18_2_VE1000.json,239021,534609,22,Man
33,499600,final-intermixed-textured,v2,jsons/MX_seq18_2_VE1000.json,http://54.235.29.9/FacialAge/BNav_EC2/DepthDuration/MX_fS_VE_MTurk/MX_fS_HTML.html#131,131,1920,977,1920,1080,1-8-2024,22-51-33,34,catch_stimuli/c3.png,1000,,,0,3004,998,meters,jsons/MX_seq18_2_VE1000.json,239021,534609,22,Man
34,499600,final-intermixed-textured,v2,jsons/MX_seq18_2_VE1000.json,http://54.235.29.9/FacialAge/BNav_EC2/DepthDuration/MX_fS_VE_MTurk/MX_fS_HTML.html#131,131,1920,977,1920,1080,1-8-2024,22-51-33,35,VR_target_stimuli/s25_0.75x_1.4_281_BC.png,1000,0.75x,1.4,1,2839,1011,meters,jsons/MX_seq18_2_VE1000.json,239021,534609,22,Man
35,499600,final-intermixed-textured,v2,jsons/MX_seq18_2_VE1000.json,http://54.235.29.9/FacialAge/BNav_EC2/DepthDuration/MX_fS_VE_MTurk/MX_fS_HTML.html#131,131,1920,977,1920,1080,1-8-2024,22-51-33,36,VR_target_stimuli/s50_1.3x_4.53_518.png,1000,1.3x,4.53,2,2833,1001,meters,jsons/MX_seq18_2_VE1000.json,239021,534609,22,Man
36,499600,final-intermixed-textured,v2,jsons/MX_seq18_2_VE1000.json,http://54.235.29.9/FacialAge/BNav_EC2/DepthDuration/MX_fS_VE_MTurk/MX_fS_HTML.html#131,131,1920,977,1920,1080,1-8-2024,22-51-33,37,VR_target_stimuli/s53_1x_1.6_387_BC.png,1000,1x,1.6,1,3419,1005,meters,jsons/MX_seq18_2_VE1000.json,239021,534609,22,Man
37,499600,final-intermixed-textured,v2,jsons/MX_seq18_2_VE1000.json,http://54.235.29.9/FacialAge/BNav_EC2/DepthDuration/MX_fS_VE_MTurk/MX_fS_HTML.html#131,131,1920,977,1920,1080,1-8-2024,22-51-33,38,VR_target_stimuli/s38_1x_3.55_353.png,1000,1x,3.55,2,4083,998,meters,jsons/MX_seq18_2_VE1000.json,239021,534609,22,Man
38,499600,final-intermixed-textured,v2,jsons/MX_seq18_2_VE1000.json,http://54.235.29.9/FacialAge/BNav_EC2/DepthDuration/MX_fS_VE_MTurk/MX_fS_HTML.html#131,131,1920,977,1920,1080,1-8-2024,22-51-33,39,VR_target_stimuli/s9_0.75x_1.2_260.png,1000,0.75x,1.2,1,2690,996,meters,jsons/MX_seq18_2_VE1000.json,239021,534609,22,Man
39,499600,final-intermixed-textured,v2,jsons/MX_seq18_2_VE1000.json,http://54.235.29.9/FacialAge/BNav_EC2/DepthDuration/MX_fS_VE_MTurk/MX_fS_HTML.html#131,131,1920,977,1920,1080,1-8-2024,22-51-33,40,VR_target_stimuli/s44_1.3x_4.4_325_BC.png,1000,1.3x,4.4,3,2879,1006,meters,jsons/MX_seq18_2_VE1000.json,239021,534609,22,Man
40,499600,final-intermixed-textured,v2,jsons/MX_seq18_2_VE1000.json,http://54.235.29.9/FacialAge/BNav_EC2/DepthDuration/MX_fS_VE_MTurk/MX_fS_HTML.html#131,131,1920,977,1920,1080,1-8-2024,22-51-33,41,VR_target_stimuli/s3_0.75x_5_381_BC.png,1000,0.75x,5.0,3,3451,1001,meters,jsons/MX_seq18_2_VE1000.json,239021,534609,22,Man
41,499600,final-intermixed-textured,v2,jsons/MX_seq18_2_VE1000.json,http://54.235.29.9/FacialAge/BNav_EC2/DepthDuration/MX_fS_VE_MTurk/MX_fS_HTML.html#131,131,1920,977,1920,1080,1-8-2024,22-51-33,42,VR_target_stimuli/s1_1x_1.7_262_BC.png,1000,1x,1.7,1,2510,997,meters,jsons/MX_seq18_2_VE1000.json,239021,534609,22,Man
42,499600,final-intermixed-textured,v2,jsons/MX_seq18_2_VE1000.json,http://54.235.29.9/FacialAge/BNav_EC2/DepthDuration/MX_fS_VE_MTurk/MX_fS_HTML.html#131,131,1920,977,1920,1080,1-8-2024,22-51-33,43,VR_target_stimuli/s11_1.3x_5_363_BC.png,1000,1.3x,5.0,3,2922,997,meters,jsons/MX_seq18_2_VE1000.json,239021,534609,22,Man
43,499600,final-intermixed-textured,v2,jsons/MX_seq18_2_VE1000.json,http://54.235.29.9/FacialAge/BNav_EC2/DepthDuration/MX_fS_VE_MTurk/MX_fS_HTML.html#131,131,1920,977,1920,1080,1-8-2024,22-51-33,44,VR_target_stimuli/s2_1x_2.7_390.png,1000,1x,2.7,2,3349,1011,meters,jsons/MX_seq18_2_VE1000.json,239021,534609,22,Man
44,499600,final-intermixed-textured,v2,jsons/MX_seq18_2_VE1000.json,http://54.235.29.9/FacialAge/BNav_EC2/DepthDuration/MX_fS_VE_MTurk/MX_fS_HTML.html#131,131,1920,977,1920,1080,1-8-2024,22-51-33,45,catch_stimuli/c4.png,1000,,,0,3126,1004,meters,jsons/MX_seq18_2_VE1000.json,239021,534609,22,Man
45,499600,final-intermixed-textured,v2,jsons/MX_seq18_2_VE1000.json,http://54.235.29.9/FacialAge/BNav_EC2/DepthDuration/MX_fS_VE_MTurk/MX_fS_HTML.html#131,131,1920,977,1920,1080,1-8-2024,22-51-33,46,VR_target_stimuli/s6_0.75x_2.1_290.png,1000,0.75x,2.1,2,3173,998,meters,jsons/MX_seq18_2_VE1000.json,239021,534609,22,Man
46,499600,final-intermixed-textured,v2,jsons/MX_seq18_2_VE1000.json,http://54.235.29.9/FacialAge/BNav_EC2/DepthDuration/MX_fS_VE_MTurk/MX_fS_HTML.html#131,131,1920,977,1920,1080,1-8-2024,22-51-33,47,VR_target_stimuli/s0_1.3x_2.6_356.png,1000,1.3x,2.6,2,4964,1011,meters,jsons/MX_seq18_2_VE1000.json,239021,534609,22,Man
47,499600,final-intermixed-textured,v2,jsons/MX_seq18_2_VE1000.json,http://54.235.29.9/FacialAge/BNav_EC2/DepthDuration/MX_fS_VE_MTurk/MX_fS_HTML.html#131,131,1920,977,1920,1080,1-8-2024,22-51-33,48,VR_target_stimuli/s34_1.3x_2.8_294_BC.png,1000,1.3x,2.8,2,3136,999,meters,jsons/MX_seq18_2_VE1000.json,239021,534609,22,Man
48,499600,final-intermixed-textured,v2,jsons/MX_seq18_2_VE1000.json,http://54.235.29.9/FacialAge/BNav_EC2/DepthDuration/MX_fS_VE_MTurk/MX_fS_HTML.html#131,131,1920,977,1920,1080,1-8-2024,22-51-33,49,VR_target_stimuli/s13_1x_2.4_310.png,1000,1x,2.4,2,3938,995,meters,jsons/MX_seq18_2_VE1000.json,239021,534609,22,Man
49,499600,final-intermixed-textured,v2,jsons/MX_seq18_2_VE1000.json,http://54.235.29.9/FacialAge/BNav_EC2/DepthDuration/MX_fS_VE_MTurk/MX_fS_HTML.html#131,131,1920,977,1920,1080,1-8-2024,22-51-33,50,VR_target_stimuli/s14_0.75x_3.83_355_BC.png,1000,0.75x,3.83,3,3317,998,meters,jsons/MX_seq18_2_VE1000.json,239021,534609,22,Man
50,499600,final-intermixed-textured,v2,jsons/MX_seq18_2_VE1000.json,http://54.235.29.9/FacialAge/BNav_EC2/DepthDuration/MX_fS_VE_MTurk/MX_fS_HTML.html#131,131,1920,977,1920,1080,1-8-2024,22-51-33,51,VR_target_stimuli/s47_1x_3.45_370_BC.png,1000,1x,3.45,2,3520,1000,meters,jsons/MX_seq18_2_VE1000.json,239021,534609,22,Man
51,499600,final-intermixed-textured,v2,jsons/MX_seq18_2_VE1000.json,http://54.235.29.9/FacialAge/BNav_EC2/DepthDuration/MX_fS_VE_MTurk/MX_fS_HTML.html#131,131,1920,977,1920,1080,1-8-2024,22-51-33,52,VR_target_stimuli/s29_1.3x_1.3_253.png,1000,1.3x,1.3,1,9581,1010,meters,jsons/MX_seq18_2_VE1000.json,239021,534609,22,Man
52,499600,final-intermixed-textured,v2,jsons/MX_seq18_2_VE1000.json,http://54.235.29.9/FacialAge/BNav_EC2/DepthDuration/MX_fS_VE_MTurk/MX_fS_HTML.html#131,131,1920,977,1920,1080,1-8-2024,22-51-33,53,catch_stimuli/c5.png,1000,,,0,2688,1006,meters,jsons/MX_seq18_2_VE1000.json,239021,534609,22,Man
53,499600,final-intermixed-textured,v2,jsons/MX_seq18_2_VE1000.json,http://54.235.29.9/FacialAge/BNav_EC2/DepthDuration/MX_fS_VE_MTurk/MX_fS_HTML.html#131,131,1920,977,1920,1080,1-8-2024,22-51-33,54,VR_target_stimuli/s28_0.75x_3.2_357.png,1000,0.75x,3.2,3,2739,1011,meters,jsons/MX_seq18_2_VE1000.json,239021,534609,22,Man
54,499600,final-intermixed-textured,v2,jsons/MX_seq18_2_VE1000.json,http://54.235.29.9/FacialAge/BNav_EC2/DepthDuration/MX_fS_VE_MTurk/MX_fS_HTML.html#131,131,1920,977,1920,1080,1-8-2024,22-51-33,55,VR_target_stimuli/s48_1.3x_2.55_255_BC.png,1000,1.3x,2.55,1,3068,996,meters,jsons/MX_seq18_2_VE1000.json,239021,534609,22,Man
55,499600,final-intermixed-textured,v2,jsons/MX_seq18_2_VE1000.json,http://54.235.29.9/FacialAge/BNav_EC2/DepthDuration/MX_fS_VE_MTurk/MX_fS_HTML.html#131,131,1920,977,1920,1080,1-8-2024,22-51-33,56,VR_target_stimuli/s19_1x_1.21_263_BC.png,1000,1x,1.21,1,2548,1012,meters,jsons/MX_seq18_2_VE1000.json,239021,534609,22,Man
56,499600,final-intermixed-textured,v2,jsons/MX_seq18_2_VE1000.json,http://54.235.29.9/FacialAge/BNav_EC2/DepthDuration/MX_fS_VE_MTurk/MX_fS_HTML.html#131,131,1920,977,1920,1080,1-8-2024,22-51-33,57,VR_target_stimuli/s21_0.75x_4.22_374_BC.png,1000,0.75x,4.22,4,2671,1005,meters,jsons/MX_seq18_2_VE1000.json,239021,534609,22,Man
57,499600,final-intermixed-textured,v2,jsons/MX_seq18_2_VE1000.json,http://54.235.29.9/FacialAge/BNav_EC2/DepthDuration/MX_fS_VE_MTurk/MX_fS_HTML.html#131,131,1920,977,1920,1080,1-8-2024,22-51-33,58,VR_target_stimuli/s8_0.75x_3.1_325.png,1000,0.75x,3.1,2,3605,998,meters,jsons/MX_seq18_2_VE1000.json,239021,534609,22,Man
58,499600,final-intermixed-textured,v2,jsons/MX_seq18_2_VE1000.json,http://54.235.29.9/FacialAge/BNav_EC2/DepthDuration/MX_fS_VE_MTurk/MX_fS_HTML.html#131,131,1920,977,1920,1080,1-8-2024,22-51-33,59,VR_target_stimuli/s27_1.3x_1.76_250.png,1000,1.3x,1.76,2,2604,998,meters,jsons/MX_seq18_2_VE1000.json,239021,534609,22,Man
59,499600,final-intermixed-textured,v2,jsons/MX_seq18_2_VE1000.json,http://54.235.29.9/FacialAge/BNav_EC2/DepthDuration/MX_fS_VE_MTurk/MX_fS_HTML.html#131,131,1920,977,1920,1080,1-8-2024,22-51-33,60,VR_target_stimuli/s15_1x_4.2_390.png,1000,1x,4.2,3,4028,994,meters,jsons/MX_seq18_2_VE1000.json,239021,534609,22,Man
