,subjID,experimentName,versionName,sequenceName,url,selected_row,windowWidth,windowHeight,screenWidth,screenHeight,startDate,startTime,trial,stimulus,duration,scale,actual_depth,depth_estimate,trial_RT,log_sceneDuration,unitSelection,seq_filepath,experimentTime,totalTime,age,gender
0,503527,final-intermixed-textured,v2,jsons/MX_seq5_2_VE1000.json,http://54.235.29.9/FacialAge/BNav_EC2/DepthDuration/MX_fS_VE_MTurk/MX_fS_HTML.html#68,68,1280,551,1280,720,1-8-2024,12-35-41,1,VR_target_stimuli/s0_1x_2.6_351_BC.png,1000,1x,2.6,4,3598,1009,meters,jsons/MX_seq5_2_VE1000.json,221599,380125,34,Woman
1,503527,final-intermixed-textured,v2,jsons/MX_seq5_2_VE1000.json,http://54.235.29.9/FacialAge/BNav_EC2/DepthDuration/MX_fS_VE_MTurk/MX_fS_HTML.html#68,68,1280,551,1280,720,1-8-2024,12-35-41,2,VR_target_stimuli/s34_1.3x_2.8_294.png,1000,1.3x,2.8,5,3466,996,meters,jsons/MX_seq5_2_VE1000.json,221599,380125,34,Woman
2,503527,final-intermixed-textured,v2,jsons/MX_seq5_2_VE1000.json,http://54.235.29.9/FacialAge/BNav_EC2/DepthDuration/MX_fS_VE_MTurk/MX_fS_HTML.html#68,68,1280,551,1280,720,1-8-2024,12-35-41,3,VR_target_stimuli/s13_0.75x_2.4_308_BC.png,1000,0.75x,2.4,4,2974,996,meters,jsons/MX_seq5_2_VE1000.json,221599,380125,34,Woman
3,503527,final-intermixed-textured,v2,jsons/MX_seq5_2_VE1000.json,http://54.235.29.9/FacialAge/BNav_EC2/DepthDuration/MX_fS_VE_MTurk/MX_fS_HTML.html#68,68,1280,551,1280,720,1-8-2024,12-35-41,4,VR_target_stimuli/s14_1.3x_3.83_359_BC.png,1000,1.3x,3.83,4,3084,1005,meters,jsons/MX_seq5_2_VE1000.json,221599,380125,34,Woman
4,503527,final-intermixed-textured,v2,jsons/MX_seq5_2_VE1000.json,http://54.235.29.9/FacialAge/BNav_EC2/DepthDuration/MX_fS_VE_MTurk/MX_fS_HTML.html#68,68,1280,551,1280,720,1-8-2024,12-35-41,5,VR_target_stimuli/s47_1x_3.45_370.png,1000,1x,3.45,3,3177,997,meters,jsons/MX_seq5_2_VE1000.json,221599,380125,34,Woman
5,503527,final-intermixed-textured,v2,jsons/MX_seq5_2_VE1000.json,http://54.235.29.9/FacialAge/BNav_EC2/DepthDuration/MX_fS_VE_MTurk/MX_fS_HTML.html#68,68,1280,551,1280,720,1-8-2024,12-35-41,6,VR_target_stimuli/s29_0.75x_1.3_246.png,1000,0.75x,1.3,2,13775,1001,meters,jsons/MX_seq5_2_VE1000.json,221599,380125,34,Woman
6,503527,final-intermixed-textured,v2,jsons/MX_seq5_2_VE1000.json,http://54.235.29.9/FacialAge/BNav_EC2/DepthDuration/MX_fS_VE_MTurk/MX_fS_HTML.html#68,68,1280,551,1280,720,1-8-2024,12-35-41,7,catch_stimuli/c0.png,1000,,,0,4022,1002,meters,jsons/MX_seq5_2_VE1000.json,221599,380125,34,Woman
7,503527,final-intermixed-textured,v2,jsons/MX_seq5_2_VE1000.json,http://54.235.29.9/FacialAge/BNav_EC2/DepthDuration/MX_fS_VE_MTurk/MX_fS_HTML.html#68,68,1280,551,1280,720,1-8-2024,12-35-41,8,VR_target_stimuli/s28_0.75x_3.2_357.png,1000,0.75x,3.2,4,3114,993,meters,jsons/MX_seq5_2_VE1000.json,221599,380125,34,Woman
8,503527,final-intermixed-textured,v2,jsons/MX_seq5_2_VE1000.json,http://54.235.29.9/FacialAge/BNav_EC2/DepthDuration/MX_fS_VE_MTurk/MX_fS_HTML.html#68,68,1280,551,1280,720,1-8-2024,12-35-41,9,VR_target_stimuli/s48_1.3x_2.55_255.png,1000,1.3x,2.55,1,2924,1000,meters,jsons/MX_seq5_2_VE1000.json,221599,380125,34,Woman
9,503527,final-intermixed-textured,v2,jsons/MX_seq5_2_VE1000.json,http://54.235.29.9/FacialAge/BNav_EC2/DepthDuration/MX_fS_VE_MTurk/MX_fS_HTML.html#68,68,1280,551,1280,720,1-8-2024,12-35-41,10,VR_target_stimuli/s19_1x_1.21_263.png,1000,1x,1.21,1,2584,997,meters,jsons/MX_seq5_2_VE1000.json,221599,380125,34,Woman
10,503527,final-intermixed-textured,v2,jsons/MX_seq5_2_VE1000.json,http://54.235.29.9/FacialAge/BNav_EC2/DepthDuration/MX_fS_VE_MTurk/MX_fS_HTML.html#68,68,1280,551,1280,720,1-8-2024,12-35-41,11,VR_target_stimuli/s21_1.3x_4.22_384_BC.png,1000,1.3x,4.22,4,3821,992,meters,jsons/MX_seq5_2_VE1000.json,221599,380125,34,Woman
11,503527,final-intermixed-textured,v2,jsons/MX_seq5_2_VE1000.json,http://54.235.29.9/FacialAge/BNav_EC2/DepthDuration/MX_fS_VE_MTurk/MX_fS_HTML.html#68,68,1280,551,1280,720,1-8-2024,12-35-41,12,VR_target_stimuli/s8_0.75x_3.1_325_BC.png,1000,0.75x,3.1,2,2916,990,meters,jsons/MX_seq5_2_VE1000.json,221599,380125,34,Woman
12,503527,final-intermixed-textured,v2,jsons/MX_seq5_2_VE1000.json,http://54.235.29.9/FacialAge/BNav_EC2/DepthDuration/MX_fS_VE_MTurk/MX_fS_HTML.html#68,68,1280,551,1280,720,1-8-2024,12-35-41,13,VR_target_stimuli/s27_1x_1.76_248_BC.png,1000,1x,1.76,2,3089,1000,meters,jsons/MX_seq5_2_VE1000.json,221599,380125,34,Woman
13,503527,final-intermixed-textured,v2,jsons/MX_seq5_2_VE1000.json,http://54.235.29.9/FacialAge/BNav_EC2/DepthDuration/MX_fS_VE_MTurk/MX_fS_HTML.html#68,68,1280,551,1280,720,1-8-2024,12-35-41,14,VR_target_stimuli/s15_0.75x_4.2_388_BC.png,1000,0.75x,4.2,5,3066,997,meters,jsons/MX_seq5_2_VE1000.json,221599,380125,34,Woman
14,503527,final-intermixed-textured,v2,jsons/MX_seq5_2_VE1000.json,http://54.235.29.9/FacialAge/BNav_EC2/DepthDuration/MX_fS_VE_MTurk/MX_fS_HTML.html#68,68,1280,551,1280,720,1-8-2024,12-35-41,15,VR_target_stimuli/s4_1.3x_1.4_328.png,1000,1.3x,1.4,1,2399,1006,meters,jsons/MX_seq5_2_VE1000.json,221599,380125,34,Woman
15,503527,final-intermixed-textured,v2,jsons/MX_seq5_2_VE1000.json,http://54.235.29.9/FacialAge/BNav_EC2/DepthDuration/MX_fS_VE_MTurk/MX_fS_HTML.html#68,68,1280,551,1280,720,1-8-2024,12-35-41,16,VR_target_stimuli/s35_1x_2_331_BC.png,1000,1x,2.0,2,4009,987,meters,jsons/MX_seq5_2_VE1000.json,221599,380125,34,Woman
16,503527,final-intermixed-textured,v2,jsons/MX_seq5_2_VE1000.json,http://54.235.29.9/FacialAge/BNav_EC2/DepthDuration/MX_fS_VE_MTurk/MX_fS_HTML.html#68,68,1280,551,1280,720,1-8-2024,12-35-41,17,catch_stimuli/c1.png,1000,,,0,2766,1009,meters,jsons/MX_seq5_2_VE1000.json,221599,380125,34,Woman
17,503527,final-intermixed-textured,v2,jsons/MX_seq5_2_VE1000.json,http://54.235.29.9/FacialAge/BNav_EC2/DepthDuration/MX_fS_VE_MTurk/MX_fS_HTML.html#68,68,1280,551,1280,720,1-8-2024,12-35-41,18,VR_target_stimuli/s49_1x_4.67_341.png,1000,1x,4.67,5,2906,1012,meters,jsons/MX_seq5_2_VE1000.json,221599,380125,34,Woman
18,503527,final-intermixed-textured,v2,jsons/MX_seq5_2_VE1000.json,http://54.235.29.9/FacialAge/BNav_EC2/DepthDuration/MX_fS_VE_MTurk/MX_fS_HTML.html#68,68,1280,551,1280,720,1-8-2024,12-35-41,19,VR_target_stimuli/s7_0.75x_1.5_253.png,1000,0.75x,1.5,2,2917,986,meters,jsons/MX_seq5_2_VE1000.json,221599,380125,34,Woman
19,503527,final-intermixed-textured,v2,jsons/MX_seq5_2_VE1000.json,http://54.235.29.9/FacialAge/BNav_EC2/DepthDuration/MX_fS_VE_MTurk/MX_fS_HTML.html#68,68,1280,551,1280,720,1-8-2024,12-35-41,20,VR_target_stimuli/s20_1.3x_4.99_412_BC.png,1000,1.3x,4.99,4,3012,1007,meters,jsons/MX_seq5_2_VE1000.json,221599,380125,34,Woman
20,503527,final-intermixed-textured,v2,jsons/MX_seq5_2_VE1000.json,http://54.235.29.9/FacialAge/BNav_EC2/DepthDuration/MX_fS_VE_MTurk/MX_fS_HTML.html#68,68,1280,551,1280,720,1-8-2024,12-35-41,21,VR_target_stimuli/s31_0.75x_4.96_329_BC.png,1000,0.75x,4.96,3,2862,1010,meters,jsons/MX_seq5_2_VE1000.json,221599,380125,34,Woman
21,503527,final-intermixed-textured,v2,jsons/MX_seq5_2_VE1000.json,http://54.235.29.9/FacialAge/BNav_EC2/DepthDuration/MX_fS_VE_MTurk/MX_fS_HTML.html#68,68,1280,551,1280,720,1-8-2024,12-35-41,22,VR_target_stimuli/s33_1x_3.1_366.png,1000,1x,3.1,3,3036,995,meters,jsons/MX_seq5_2_VE1000.json,221599,380125,34,Woman
22,503527,final-intermixed-textured,v2,jsons/MX_seq5_2_VE1000.json,http://54.235.29.9/FacialAge/BNav_EC2/DepthDuration/MX_fS_VE_MTurk/MX_fS_HTML.html#68,68,1280,551,1280,720,1-8-2024,12-35-41,23,VR_target_stimuli/s52_1.3x_3.2_280_BC.png,1000,1.3x,3.2,3,2760,996,meters,jsons/MX_seq5_2_VE1000.json,221599,380125,34,Woman
23,503527,final-intermixed-textured,v2,jsons/MX_seq5_2_VE1000.json,http://54.235.29.9/FacialAge/BNav_EC2/DepthDuration/MX_fS_VE_MTurk/MX_fS_HTML.html#68,68,1280,551,1280,720,1-8-2024,12-35-41,24,VR_target_stimuli/s32_1x_1.5_218_BC.png,1000,1x,1.5,2,3397,999,meters,jsons/MX_seq5_2_VE1000.json,221599,380125,34,Woman
24,503527,final-intermixed-textured,v2,jsons/MX_seq5_2_VE1000.json,http://54.235.29.9/FacialAge/BNav_EC2/DepthDuration/MX_fS_VE_MTurk/MX_fS_HTML.html#68,68,1280,551,1280,720,1-8-2024,12-35-41,25,VR_target_stimuli/s18_0.75x_2.25_341.png,1000,0.75x,2.25,2,2487,1009,meters,jsons/MX_seq5_2_VE1000.json,221599,380125,34,Woman
25,503527,final-intermixed-textured,v2,jsons/MX_seq5_2_VE1000.json,http://54.235.29.9/FacialAge/BNav_EC2/DepthDuration/MX_fS_VE_MTurk/MX_fS_HTML.html#68,68,1280,551,1280,720,1-8-2024,12-35-41,26,catch_stimuli/c2.png,1000,,,0,2629,997,meters,jsons/MX_seq5_2_VE1000.json,221599,380125,34,Woman
26,503527,final-intermixed-textured,v2,jsons/MX_seq5_2_VE1000.json,http://54.235.29.9/FacialAge/BNav_EC2/DepthDuration/MX_fS_VE_MTurk/MX_fS_HTML.html#68,68,1280,551,1280,720,1-8-2024,12-35-41,27,VR_target_stimuli/s39_1.3x_1_208.png,1000,1.3x,1.0,1,3002,999,meters,jsons/MX_seq5_2_VE1000.json,221599,380125,34,Woman
27,503527,final-intermixed-textured,v2,jsons/MX_seq5_2_VE1000.json,http://54.235.29.9/FacialAge/BNav_EC2/DepthDuration/MX_fS_VE_MTurk/MX_fS_HTML.html#68,68,1280,551,1280,720,1-8-2024,12-35-41,28,VR_target_stimuli/s51_1.3x_3.64_479.png,1000,1.3x,3.64,1,2636,1000,meters,jsons/MX_seq5_2_VE1000.json,221599,380125,34,Woman
28,503527,final-intermixed-textured,v2,jsons/MX_seq5_2_VE1000.json,http://54.235.29.9/FacialAge/BNav_EC2/DepthDuration/MX_fS_VE_MTurk/MX_fS_HTML.html#68,68,1280,551,1280,720,1-8-2024,12-35-41,29,VR_target_stimuli/s43_1x_2.2_354.png,1000,1x,2.2,2,2798,1009,meters,jsons/MX_seq5_2_VE1000.json,221599,380125,34,Woman
29,503527,final-intermixed-textured,v2,jsons/MX_seq5_2_VE1000.json,http://54.235.29.9/FacialAge/BNav_EC2/DepthDuration/MX_fS_VE_MTurk/MX_fS_HTML.html#68,68,1280,551,1280,720,1-8-2024,12-35-41,30,VR_target_stimuli/s24_0.75x_3.3_344_BC.png,1000,0.75x,3.3,2,2791,989,meters,jsons/MX_seq5_2_VE1000.json,221599,380125,34,Woman
30,503527,final-intermixed-textured,v2,jsons/MX_seq5_2_VE1000.json,http://54.235.29.9/FacialAge/BNav_EC2/DepthDuration/MX_fS_VE_MTurk/MX_fS_HTML.html#68,68,1280,551,1280,720,1-8-2024,12-35-41,31,VR_target_stimuli/s10_1.3x_2.7_325_BC.png,1000,1.3x,2.7,2,2643,999,meters,jsons/MX_seq5_2_VE1000.json,221599,380125,34,Woman
31,503527,final-intermixed-textured,v2,jsons/MX_seq5_2_VE1000.json,http://54.235.29.9/FacialAge/BNav_EC2/DepthDuration/MX_fS_VE_MTurk/MX_fS_HTML.html#68,68,1280,551,1280,720,1-8-2024,12-35-41,32,VR_target_stimuli/s36_0.75x_4.1_407.png,1000,0.75x,4.1,4,2604,994,meters,jsons/MX_seq5_2_VE1000.json,221599,380125,34,Woman
32,503527,final-intermixed-textured,v2,jsons/MX_seq5_2_VE1000.json,http://54.235.29.9/FacialAge/BNav_EC2/DepthDuration/MX_fS_VE_MTurk/MX_fS_HTML.html#68,68,1280,551,1280,720,1-8-2024,12-35-41,33,VR_target_stimuli/s40_1x_1.2_319_BC.png,1000,1x,1.2,2,3702,1008,meters,jsons/MX_seq5_2_VE1000.json,221599,380125,34,Woman
33,503527,final-intermixed-textured,v2,jsons/MX_seq5_2_VE1000.json,http://54.235.29.9/FacialAge/BNav_EC2/DepthDuration/MX_fS_VE_MTurk/MX_fS_HTML.html#68,68,1280,551,1280,720,1-8-2024,12-35-41,34,catch_stimuli/c3.png,1000,,,0,2944,1006,meters,jsons/MX_seq5_2_VE1000.json,221599,380125,34,Woman
34,503527,final-intermixed-textured,v2,jsons/MX_seq5_2_VE1000.json,http://54.235.29.9/FacialAge/BNav_EC2/DepthDuration/MX_fS_VE_MTurk/MX_fS_HTML.html#68,68,1280,551,1280,720,1-8-2024,12-35-41,35,VR_target_stimuli/s41_0.75x_2.1_281.png,1000,0.75x,2.1,2,3136,997,meters,jsons/MX_seq5_2_VE1000.json,221599,380125,34,Woman
35,503527,final-intermixed-textured,v2,jsons/MX_seq5_2_VE1000.json,http://54.235.29.9/FacialAge/BNav_EC2/DepthDuration/MX_fS_VE_MTurk/MX_fS_HTML.html#68,68,1280,551,1280,720,1-8-2024,12-35-41,36,VR_target_stimuli/s45_1.3x_3.5_377.png,1000,1.3x,3.5,2,2589,1008,meters,jsons/MX_seq5_2_VE1000.json,221599,380125,34,Woman
36,503527,final-intermixed-textured,v2,jsons/MX_seq5_2_VE1000.json,http://54.235.29.9/FacialAge/BNav_EC2/DepthDuration/MX_fS_VE_MTurk/MX_fS_HTML.html#68,68,1280,551,1280,720,1-8-2024,12-35-41,37,VR_target_stimuli/s23_1x_3.65_353_BC.png,1000,1x,3.65,2,2707,989,meters,jsons/MX_seq5_2_VE1000.json,221599,380125,34,Woman
37,503527,final-intermixed-textured,v2,jsons/MX_seq5_2_VE1000.json,http://54.235.29.9/FacialAge/BNav_EC2/DepthDuration/MX_fS_VE_MTurk/MX_fS_HTML.html#68,68,1280,551,1280,720,1-8-2024,12-35-41,38,VR_target_stimuli/s26_1x_4_433.png,1000,1x,4.0,3,2712,987,meters,jsons/MX_seq5_2_VE1000.json,221599,380125,34,Woman
38,503527,final-intermixed-textured,v2,jsons/MX_seq5_2_VE1000.json,http://54.235.29.9/FacialAge/BNav_EC2/DepthDuration/MX_fS_VE_MTurk/MX_fS_HTML.html#68,68,1280,551,1280,720,1-8-2024,12-35-41,39,VR_target_stimuli/s12_0.75x_3.1_364_BC.png,1000,0.75x,3.1,3,2741,1003,meters,jsons/MX_seq5_2_VE1000.json,221599,380125,34,Woman
39,503527,final-intermixed-textured,v2,jsons/MX_seq5_2_VE1000.json,http://54.235.29.9/FacialAge/BNav_EC2/DepthDuration/MX_fS_VE_MTurk/MX_fS_HTML.html#68,68,1280,551,1280,720,1-8-2024,12-35-41,40,VR_target_stimuli/s30_1.3x_2.3_337_BC.png,1000,1.3x,2.3,1,2455,992,meters,jsons/MX_seq5_2_VE1000.json,221599,380125,34,Woman
40,503527,final-intermixed-textured,v2,jsons/MX_seq5_2_VE1000.json,http://54.235.29.9/FacialAge/BNav_EC2/DepthDuration/MX_fS_VE_MTurk/MX_fS_HTML.html#68,68,1280,551,1280,720,1-8-2024,12-35-41,41,VR_target_stimuli/s16_0.75x_1_217_BC.png,1000,0.75x,1.0,1,2533,1002,meters,jsons/MX_seq5_2_VE1000.json,221599,380125,34,Woman
41,503527,final-intermixed-textured,v2,jsons/MX_seq5_2_VE1000.json,http://54.235.29.9/FacialAge/BNav_EC2/DepthDuration/MX_fS_VE_MTurk/MX_fS_HTML.html#68,68,1280,551,1280,720,1-8-2024,12-35-41,42,VR_target_stimuli/s17_1x_1.8_291.png,1000,1x,1.8,1,2482,993,meters,jsons/MX_seq5_2_VE1000.json,221599,380125,34,Woman
42,503527,final-intermixed-textured,v2,jsons/MX_seq5_2_VE1000.json,http://54.235.29.9/FacialAge/BNav_EC2/DepthDuration/MX_fS_VE_MTurk/MX_fS_HTML.html#68,68,1280,551,1280,720,1-8-2024,12-35-41,43,VR_target_stimuli/s5_1.3x_4_393_BC.png,1000,1.3x,4.0,3,3503,993,meters,jsons/MX_seq5_2_VE1000.json,221599,380125,34,Woman
43,503527,final-intermixed-textured,v2,jsons/MX_seq5_2_VE1000.json,http://54.235.29.9/FacialAge/BNav_EC2/DepthDuration/MX_fS_VE_MTurk/MX_fS_HTML.html#68,68,1280,551,1280,720,1-8-2024,12-35-41,44,VR_target_stimuli/s37_1x_3.3_563_BC.png,1000,1x,3.3,2,2680,996,meters,jsons/MX_seq5_2_VE1000.json,221599,380125,34,Woman
44,503527,final-intermixed-textured,v2,jsons/MX_seq5_2_VE1000.json,http://54.235.29.9/FacialAge/BNav_EC2/DepthDuration/MX_fS_VE_MTurk/MX_fS_HTML.html#68,68,1280,551,1280,720,1-8-2024,12-35-41,45,catch_stimuli/c4.png,1000,,,0,2611,1009,meters,jsons/MX_seq5_2_VE1000.json,221599,380125,34,Woman
45,503527,final-intermixed-textured,v2,jsons/MX_seq5_2_VE1000.json,http://54.235.29.9/FacialAge/BNav_EC2/DepthDuration/MX_fS_VE_MTurk/MX_fS_HTML.html#68,68,1280,551,1280,720,1-8-2024,12-35-41,46,VR_target_stimuli/s46_0.75x_2.42_343.png,1000,0.75x,2.42,3,3882,1002,meters,jsons/MX_seq5_2_VE1000.json,221599,380125,34,Woman
46,503527,final-intermixed-textured,v2,jsons/MX_seq5_2_VE1000.json,http://54.235.29.9/FacialAge/BNav_EC2/DepthDuration/MX_fS_VE_MTurk/MX_fS_HTML.html#68,68,1280,551,1280,720,1-8-2024,12-35-41,47,VR_target_stimuli/s22_1.3x_4.29_364.png,1000,1.3x,4.29,4,3302,1001,meters,jsons/MX_seq5_2_VE1000.json,221599,380125,34,Woman
47,503527,final-intermixed-textured,v2,jsons/MX_seq5_2_VE1000.json,http://54.235.29.9/FacialAge/BNav_EC2/DepthDuration/MX_fS_VE_MTurk/MX_fS_HTML.html#68,68,1280,551,1280,720,1-8-2024,12-35-41,48,VR_target_stimuli/s42_1.3x_3.2_305.png,1000,1.3x,3.2,4,2885,1012,meters,jsons/MX_seq5_2_VE1000.json,221599,380125,34,Woman
48,503527,final-intermixed-textured,v2,jsons/MX_seq5_2_VE1000.json,http://54.235.29.9/FacialAge/BNav_EC2/DepthDuration/MX_fS_VE_MTurk/MX_fS_HTML.html#68,68,1280,551,1280,720,1-8-2024,12-35-41,49,VR_target_stimuli/s25_1x_1.4_290.png,1000,1x,1.4,1,2880,998,meters,jsons/MX_seq5_2_VE1000.json,221599,380125,34,Woman
49,503527,final-intermixed-textured,v2,jsons/MX_seq5_2_VE1000.json,http://54.235.29.9/FacialAge/BNav_EC2/DepthDuration/MX_fS_VE_MTurk/MX_fS_HTML.html#68,68,1280,551,1280,720,1-8-2024,12-35-41,50,VR_target_stimuli/s50_0.75x_4.53_517.png,1000,0.75x,4.53,2,3462,994,meters,jsons/MX_seq5_2_VE1000.json,221599,380125,34,Woman
50,503527,final-intermixed-textured,v2,jsons/MX_seq5_2_VE1000.json,http://54.235.29.9/FacialAge/BNav_EC2/DepthDuration/MX_fS_VE_MTurk/MX_fS_HTML.html#68,68,1280,551,1280,720,1-8-2024,12-35-41,51,VR_target_stimuli/s53_1x_1.6_387_BC.png,1000,1x,1.6,1,2876,1001,meters,jsons/MX_seq5_2_VE1000.json,221599,380125,34,Woman
51,503527,final-intermixed-textured,v2,jsons/MX_seq5_2_VE1000.json,http://54.235.29.9/FacialAge/BNav_EC2/DepthDuration/MX_fS_VE_MTurk/MX_fS_HTML.html#68,68,1280,551,1280,720,1-8-2024,12-35-41,52,VR_target_stimuli/s38_1.3x_3.55_358_BC.png,1000,1.3x,3.55,2,3063,1009,meters,jsons/MX_seq5_2_VE1000.json,221599,380125,34,Woman
52,503527,final-intermixed-textured,v2,jsons/MX_seq5_2_VE1000.json,http://54.235.29.9/FacialAge/BNav_EC2/DepthDuration/MX_fS_VE_MTurk/MX_fS_HTML.html#68,68,1280,551,1280,720,1-8-2024,12-35-41,53,catch_stimuli/c5.png,1000,,,0,2797,999,meters,jsons/MX_seq5_2_VE1000.json,221599,380125,34,Woman
53,503527,final-intermixed-textured,v2,jsons/MX_seq5_2_VE1000.json,http://54.235.29.9/FacialAge/BNav_EC2/DepthDuration/MX_fS_VE_MTurk/MX_fS_HTML.html#68,68,1280,551,1280,720,1-8-2024,12-35-41,54,VR_target_stimuli/s9_0.75x_1.2_260_BC.png,1000,0.75x,1.2,1,3865,1001,meters,jsons/MX_seq5_2_VE1000.json,221599,380125,34,Woman
54,503527,final-intermixed-textured,v2,jsons/MX_seq5_2_VE1000.json,http://54.235.29.9/FacialAge/BNav_EC2/DepthDuration/MX_fS_VE_MTurk/MX_fS_HTML.html#68,68,1280,551,1280,720,1-8-2024,12-35-41,55,VR_target_stimuli/s44_1.3x_4.4_325.png,1000,1.3x,4.4,4,2948,1013,meters,jsons/MX_seq5_2_VE1000.json,221599,380125,34,Woman
55,503527,final-intermixed-textured,v2,jsons/MX_seq5_2_VE1000.json,http://54.235.29.9/FacialAge/BNav_EC2/DepthDuration/MX_fS_VE_MTurk/MX_fS_HTML.html#68,68,1280,551,1280,720,1-8-2024,12-35-41,56,VR_target_stimuli/s3_1x_5_385.png,1000,1x,5.0,4,2826,989,meters,jsons/MX_seq5_2_VE1000.json,221599,380125,34,Woman
56,503527,final-intermixed-textured,v2,jsons/MX_seq5_2_VE1000.json,http://54.235.29.9/FacialAge/BNav_EC2/DepthDuration/MX_fS_VE_MTurk/MX_fS_HTML.html#68,68,1280,551,1280,720,1-8-2024,12-35-41,57,VR_target_stimuli/s1_0.75x_1.7_265_BC.png,1000,0.75x,1.7,2,3392,1010,meters,jsons/MX_seq5_2_VE1000.json,221599,380125,34,Woman
57,503527,final-intermixed-textured,v2,jsons/MX_seq5_2_VE1000.json,http://54.235.29.9/FacialAge/BNav_EC2/DepthDuration/MX_fS_VE_MTurk/MX_fS_HTML.html#68,68,1280,551,1280,720,1-8-2024,12-35-41,58,VR_target_stimuli/s11_0.75x_5_359.png,1000,0.75x,5.0,4,2957,992,meters,jsons/MX_seq5_2_VE1000.json,221599,380125,34,Woman
58,503527,final-intermixed-textured,v2,jsons/MX_seq5_2_VE1000.json,http://54.235.29.9/FacialAge/BNav_EC2/DepthDuration/MX_fS_VE_MTurk/MX_fS_HTML.html#68,68,1280,551,1280,720,1-8-2024,12-35-41,59,VR_target_stimuli/s2_1.3x_2.7_397_BC.png,1000,1.3x,2.7,2,3339,1003,meters,jsons/MX_seq5_2_VE1000.json,221599,380125,34,Woman
59,503527,final-intermixed-textured,v2,jsons/MX_seq5_2_VE1000.json,http://54.235.29.9/FacialAge/BNav_EC2/DepthDuration/MX_fS_VE_MTurk/MX_fS_HTML.html#68,68,1280,551,1280,720,1-8-2024,12-35-41,60,VR_target_stimuli/s6_1x_2.1_293_BC.png,1000,1x,2.1,2,2507,1004,meters,jsons/MX_seq5_2_VE1000.json,221599,380125,34,Woman
