,subjID,experimentName,versionName,sequenceName,url,selected_row,windowWidth,windowHeight,screenWidth,screenHeight,startDate,startTime,trial,stimulus,duration,scale,actual_depth,depth_estimate,trial_RT,log_sceneDuration,unitSelection,seq_filepath,experimentTime,totalTime,age,gender
0,545267,final-intermixed-textured,v2,jsons/MX_seq35_1_VE1000.json,http://54.235.29.9/FacialAge/BNav_EC2/DepthDuration/MX_fS_VE_MTurk/MX_fS_HTML.html#40,40,1536,864,1536,864,1-8-2024,13-30-23,1,VR_target_stimuli/s41_1.3x_2.1_294_BC.png,1000,1.3x,2.1,3,3304,1011,meters,jsons/MX_seq35_1_VE1000.json,227956,344379,24,Woman
1,545267,final-intermixed-textured,v2,jsons/MX_seq35_1_VE1000.json,http://54.235.29.9/FacialAge/BNav_EC2/DepthDuration/MX_fS_VE_MTurk/MX_fS_HTML.html#40,40,1536,864,1536,864,1-8-2024,13-30-23,2,VR_target_stimuli/s45_0.75x_3.5_362.png,1000,0.75x,3.5,5,3203,995,meters,jsons/MX_seq35_1_VE1000.json,227956,344379,24,Woman
2,545267,final-intermixed-textured,v2,jsons/MX_seq35_1_VE1000.json,http://54.235.29.9/FacialAge/BNav_EC2/DepthDuration/MX_fS_VE_MTurk/MX_fS_HTML.html#40,40,1536,864,1536,864,1-8-2024,13-30-23,3,VR_target_stimuli/s23_1x_3.65_353.png,1000,1x,3.65,4,2992,1004,meters,jsons/MX_seq35_1_VE1000.json,227956,344379,24,Woman
3,545267,final-intermixed-textured,v2,jsons/MX_seq35_1_VE1000.json,http://54.235.29.9/FacialAge/BNav_EC2/DepthDuration/MX_fS_VE_MTurk/MX_fS_HTML.html#40,40,1536,864,1536,864,1-8-2024,13-30-23,4,VR_target_stimuli/s26_0.75x_4_430_BC.png,1000,0.75x,4.0,3,2916,996,meters,jsons/MX_seq35_1_VE1000.json,227956,344379,24,Woman
4,545267,final-intermixed-textured,v2,jsons/MX_seq35_1_VE1000.json,http://54.235.29.9/FacialAge/BNav_EC2/DepthDuration/MX_fS_VE_MTurk/MX_fS_HTML.html#40,40,1536,864,1536,864,1-8-2024,13-30-23,5,VR_target_stimuli/s12_1.3x_3.1_375.png,1000,1.3x,3.1,3,3159,996,meters,jsons/MX_seq35_1_VE1000.json,227956,344379,24,Woman
5,545267,final-intermixed-textured,v2,jsons/MX_seq35_1_VE1000.json,http://54.235.29.9/FacialAge/BNav_EC2/DepthDuration/MX_fS_VE_MTurk/MX_fS_HTML.html#40,40,1536,864,1536,864,1-8-2024,13-30-23,6,VR_target_stimuli/s30_1x_2.3_334_BC.png,1000,1x,2.3,2,2923,1003,meters,jsons/MX_seq35_1_VE1000.json,227956,344379,24,Woman
6,545267,final-intermixed-textured,v2,jsons/MX_seq35_1_VE1000.json,http://54.235.29.9/FacialAge/BNav_EC2/DepthDuration/MX_fS_VE_MTurk/MX_fS_HTML.html#40,40,1536,864,1536,864,1-8-2024,13-30-23,7,catch_stimuli/c0.png,1000,,,0,3142,1005,meters,jsons/MX_seq35_1_VE1000.json,227956,344379,24,Woman
7,545267,final-intermixed-textured,v2,jsons/MX_seq35_1_VE1000.json,http://54.235.29.9/FacialAge/BNav_EC2/DepthDuration/MX_fS_VE_MTurk/MX_fS_HTML.html#40,40,1536,864,1536,864,1-8-2024,13-30-23,8,VR_target_stimuli/s16_1x_1_219.png,1000,1x,1.0,1,3714,991,meters,jsons/MX_seq35_1_VE1000.json,227956,344379,24,Woman
8,545267,final-intermixed-textured,v2,jsons/MX_seq35_1_VE1000.json,http://54.235.29.9/FacialAge/BNav_EC2/DepthDuration/MX_fS_VE_MTurk/MX_fS_HTML.html#40,40,1536,864,1536,864,1-8-2024,13-30-23,9,VR_target_stimuli/s17_0.75x_1.8_285.png,1000,0.75x,1.8,3,3203,1000,meters,jsons/MX_seq35_1_VE1000.json,227956,344379,24,Woman
9,545267,final-intermixed-textured,v2,jsons/MX_seq35_1_VE1000.json,http://54.235.29.9/FacialAge/BNav_EC2/DepthDuration/MX_fS_VE_MTurk/MX_fS_HTML.html#40,40,1536,864,1536,864,1-8-2024,13-30-23,10,VR_target_stimuli/s5_1.3x_4_393.png,1000,1.3x,4.0,5,3004,988,meters,jsons/MX_seq35_1_VE1000.json,227956,344379,24,Woman
10,545267,final-intermixed-textured,v2,jsons/MX_seq35_1_VE1000.json,http://54.235.29.9/FacialAge/BNav_EC2/DepthDuration/MX_fS_VE_MTurk/MX_fS_HTML.html#40,40,1536,864,1536,864,1-8-2024,13-30-23,11,VR_target_stimuli/s37_0.75x_3.3_567_BC.png,1000,0.75x,3.3,2,2789,1011,meters,jsons/MX_seq35_1_VE1000.json,227956,344379,24,Woman
11,545267,final-intermixed-textured,v2,jsons/MX_seq35_1_VE1000.json,http://54.235.29.9/FacialAge/BNav_EC2/DepthDuration/MX_fS_VE_MTurk/MX_fS_HTML.html#40,40,1536,864,1536,864,1-8-2024,13-30-23,12,VR_target_stimuli/s46_1x_2.42_348_BC.png,1000,1x,2.42,4,2555,1004,meters,jsons/MX_seq35_1_VE1000.json,227956,344379,24,Woman
12,545267,final-intermixed-textured,v2,jsons/MX_seq35_1_VE1000.json,http://54.235.29.9/FacialAge/BNav_EC2/DepthDuration/MX_fS_VE_MTurk/MX_fS_HTML.html#40,40,1536,864,1536,864,1-8-2024,13-30-23,13,VR_target_stimuli/s22_1.3x_4.29_364_BC.png,1000,1.3x,4.29,6,2638,999,meters,jsons/MX_seq35_1_VE1000.json,227956,344379,24,Woman
13,545267,final-intermixed-textured,v2,jsons/MX_seq35_1_VE1000.json,http://54.235.29.9/FacialAge/BNav_EC2/DepthDuration/MX_fS_VE_MTurk/MX_fS_HTML.html#40,40,1536,864,1536,864,1-8-2024,13-30-23,14,VR_target_stimuli/s42_1x_3.2_303.png,1000,1x,3.2,4,3178,1002,meters,jsons/MX_seq35_1_VE1000.json,227956,344379,24,Woman
14,545267,final-intermixed-textured,v2,jsons/MX_seq35_1_VE1000.json,http://54.235.29.9/FacialAge/BNav_EC2/DepthDuration/MX_fS_VE_MTurk/MX_fS_HTML.html#40,40,1536,864,1536,864,1-8-2024,13-30-23,15,VR_target_stimuli/s25_0.75x_1.4_281.png,1000,0.75x,1.4,2,3212,991,meters,jsons/MX_seq35_1_VE1000.json,227956,344379,24,Woman
15,545267,final-intermixed-textured,v2,jsons/MX_seq35_1_VE1000.json,http://54.235.29.9/FacialAge/BNav_EC2/DepthDuration/MX_fS_VE_MTurk/MX_fS_HTML.html#40,40,1536,864,1536,864,1-8-2024,13-30-23,16,VR_target_stimuli/s50_1.3x_4.53_518.png,1000,1.3x,4.53,3,2761,1004,meters,jsons/MX_seq35_1_VE1000.json,227956,344379,24,Woman
16,545267,final-intermixed-textured,v2,jsons/MX_seq35_1_VE1000.json,http://54.235.29.9/FacialAge/BNav_EC2/DepthDuration/MX_fS_VE_MTurk/MX_fS_HTML.html#40,40,1536,864,1536,864,1-8-2024,13-30-23,17,catch_stimuli/c1.png,1000,,,0,3285,985,meters,jsons/MX_seq35_1_VE1000.json,227956,344379,24,Woman
17,545267,final-intermixed-textured,v2,jsons/MX_seq35_1_VE1000.json,http://54.235.29.9/FacialAge/BNav_EC2/DepthDuration/MX_fS_VE_MTurk/MX_fS_HTML.html#40,40,1536,864,1536,864,1-8-2024,13-30-23,18,VR_target_stimuli/s53_1.3x_1.6_355_BC.png,1000,1.3x,1.6,1,2918,997,meters,jsons/MX_seq35_1_VE1000.json,227956,344379,24,Woman
18,545267,final-intermixed-textured,v2,jsons/MX_seq35_1_VE1000.json,http://54.235.29.9/FacialAge/BNav_EC2/DepthDuration/MX_fS_VE_MTurk/MX_fS_HTML.html#40,40,1536,864,1536,864,1-8-2024,13-30-23,19,VR_target_stimuli/s38_1x_3.55_353_BC.png,1000,1x,3.55,3,2577,995,meters,jsons/MX_seq35_1_VE1000.json,227956,344379,24,Woman
19,545267,final-intermixed-textured,v2,jsons/MX_seq35_1_VE1000.json,http://54.235.29.9/FacialAge/BNav_EC2/DepthDuration/MX_fS_VE_MTurk/MX_fS_HTML.html#40,40,1536,864,1536,864,1-8-2024,13-30-23,20,VR_target_stimuli/s9_0.75x_1.2_260_BC.png,1000,0.75x,1.2,2,2437,992,meters,jsons/MX_seq35_1_VE1000.json,227956,344379,24,Woman
20,545267,final-intermixed-textured,v2,jsons/MX_seq35_1_VE1000.json,http://54.235.29.9/FacialAge/BNav_EC2/DepthDuration/MX_fS_VE_MTurk/MX_fS_HTML.html#40,40,1536,864,1536,864,1-8-2024,13-30-23,21,VR_target_stimuli/s44_1x_4.4_317.png,1000,1x,4.4,7,6110,1004,meters,jsons/MX_seq35_1_VE1000.json,227956,344379,24,Woman
21,545267,final-intermixed-textured,v2,jsons/MX_seq35_1_VE1000.json,http://54.235.29.9/FacialAge/BNav_EC2/DepthDuration/MX_fS_VE_MTurk/MX_fS_HTML.html#40,40,1536,864,1536,864,1-8-2024,13-30-23,22,VR_target_stimuli/s3_1.3x_5_390_BC.png,1000,1.3x,5.0,7,5640,1012,meters,jsons/MX_seq35_1_VE1000.json,227956,344379,24,Woman
22,545267,final-intermixed-textured,v2,jsons/MX_seq35_1_VE1000.json,http://54.235.29.9/FacialAge/BNav_EC2/DepthDuration/MX_fS_VE_MTurk/MX_fS_HTML.html#40,40,1536,864,1536,864,1-8-2024,13-30-23,23,VR_target_stimuli/s1_0.75x_1.7_265.png,1000,0.75x,1.7,1,2673,999,meters,jsons/MX_seq35_1_VE1000.json,227956,344379,24,Woman
23,545267,final-intermixed-textured,v2,jsons/MX_seq35_1_VE1000.json,http://54.235.29.9/FacialAge/BNav_EC2/DepthDuration/MX_fS_VE_MTurk/MX_fS_HTML.html#40,40,1536,864,1536,864,1-8-2024,13-30-23,24,VR_target_stimuli/s11_1.3x_5_363.png,1000,1.3x,5.0,6,3958,1005,meters,jsons/MX_seq35_1_VE1000.json,227956,344379,24,Woman
24,545267,final-intermixed-textured,v2,jsons/MX_seq35_1_VE1000.json,http://54.235.29.9/FacialAge/BNav_EC2/DepthDuration/MX_fS_VE_MTurk/MX_fS_HTML.html#40,40,1536,864,1536,864,1-8-2024,13-30-23,25,VR_target_stimuli/s2_1x_2.7_390_BC.png,1000,1x,2.7,2,4528,1002,meters,jsons/MX_seq35_1_VE1000.json,227956,344379,24,Woman
25,545267,final-intermixed-textured,v2,jsons/MX_seq35_1_VE1000.json,http://54.235.29.9/FacialAge/BNav_EC2/DepthDuration/MX_fS_VE_MTurk/MX_fS_HTML.html#40,40,1536,864,1536,864,1-8-2024,13-30-23,26,catch_stimuli/c2.png,1000,,,0,3156,998,meters,jsons/MX_seq35_1_VE1000.json,227956,344379,24,Woman
26,545267,final-intermixed-textured,v2,jsons/MX_seq35_1_VE1000.json,http://54.235.29.9/FacialAge/BNav_EC2/DepthDuration/MX_fS_VE_MTurk/MX_fS_HTML.html#40,40,1536,864,1536,864,1-8-2024,13-30-23,27,VR_target_stimuli/s6_0.75x_2.1_290_BC.png,1000,0.75x,2.1,2,2631,995,meters,jsons/MX_seq35_1_VE1000.json,227956,344379,24,Woman
27,545267,final-intermixed-textured,v2,jsons/MX_seq35_1_VE1000.json,http://54.235.29.9/FacialAge/BNav_EC2/DepthDuration/MX_fS_VE_MTurk/MX_fS_HTML.html#40,40,1536,864,1536,864,1-8-2024,13-30-23,28,VR_target_stimuli/s0_0.75x_2.6_345.png,1000,0.75x,2.6,3,2558,1000,meters,jsons/MX_seq35_1_VE1000.json,227956,344379,24,Woman
28,545267,final-intermixed-textured,v2,jsons/MX_seq35_1_VE1000.json,http://54.235.29.9/FacialAge/BNav_EC2/DepthDuration/MX_fS_VE_MTurk/MX_fS_HTML.html#40,40,1536,864,1536,864,1-8-2024,13-30-23,29,VR_target_stimuli/s34_1.3x_2.8_294.png,1000,1.3x,2.8,5,5581,990,meters,jsons/MX_seq35_1_VE1000.json,227956,344379,24,Woman
29,545267,final-intermixed-textured,v2,jsons/MX_seq35_1_VE1000.json,http://54.235.29.9/FacialAge/BNav_EC2/DepthDuration/MX_fS_VE_MTurk/MX_fS_HTML.html#40,40,1536,864,1536,864,1-8-2024,13-30-23,30,VR_target_stimuli/s13_1x_2.4_310_BC.png,1000,1x,2.4,3,3432,1011,meters,jsons/MX_seq35_1_VE1000.json,227956,344379,24,Woman
30,545267,final-intermixed-textured,v2,jsons/MX_seq35_1_VE1000.json,http://54.235.29.9/FacialAge/BNav_EC2/DepthDuration/MX_fS_VE_MTurk/MX_fS_HTML.html#40,40,1536,864,1536,864,1-8-2024,13-30-23,31,VR_target_stimuli/s14_0.75x_3.83_355_BC.png,1000,0.75x,3.83,6,2813,995,meters,jsons/MX_seq35_1_VE1000.json,227956,344379,24,Woman
31,545267,final-intermixed-textured,v2,jsons/MX_seq35_1_VE1000.json,http://54.235.29.9/FacialAge/BNav_EC2/DepthDuration/MX_fS_VE_MTurk/MX_fS_HTML.html#40,40,1536,864,1536,864,1-8-2024,13-30-23,32,VR_target_stimuli/s47_1x_3.45_370.png,1000,1x,3.45,4,3387,1005,meters,jsons/MX_seq35_1_VE1000.json,227956,344379,24,Woman
32,545267,final-intermixed-textured,v2,jsons/MX_seq35_1_VE1000.json,http://54.235.29.9/FacialAge/BNav_EC2/DepthDuration/MX_fS_VE_MTurk/MX_fS_HTML.html#40,40,1536,864,1536,864,1-8-2024,13-30-23,33,VR_target_stimuli/s29_1.3x_1.3_253_BC.png,1000,1.3x,1.3,2,2551,994,meters,jsons/MX_seq35_1_VE1000.json,227956,344379,24,Woman
33,545267,final-intermixed-textured,v2,jsons/MX_seq35_1_VE1000.json,http://54.235.29.9/FacialAge/BNav_EC2/DepthDuration/MX_fS_VE_MTurk/MX_fS_HTML.html#40,40,1536,864,1536,864,1-8-2024,13-30-23,34,catch_stimuli/c3.png,1000,,,0,4994,990,meters,jsons/MX_seq35_1_VE1000.json,227956,344379,24,Woman
34,545267,final-intermixed-textured,v2,jsons/MX_seq35_1_VE1000.json,http://54.235.29.9/FacialAge/BNav_EC2/DepthDuration/MX_fS_VE_MTurk/MX_fS_HTML.html#40,40,1536,864,1536,864,1-8-2024,13-30-23,35,VR_target_stimuli/s28_1x_3.2_362.png,1000,1x,3.2,4,3184,995,meters,jsons/MX_seq35_1_VE1000.json,227956,344379,24,Woman
35,545267,final-intermixed-textured,v2,jsons/MX_seq35_1_VE1000.json,http://54.235.29.9/FacialAge/BNav_EC2/DepthDuration/MX_fS_VE_MTurk/MX_fS_HTML.html#40,40,1536,864,1536,864,1-8-2024,13-30-23,36,VR_target_stimuli/s48_0.75x_2.55_243_BC.png,1000,0.75x,2.55,4,3379,1004,meters,jsons/MX_seq35_1_VE1000.json,227956,344379,24,Woman
36,545267,final-intermixed-textured,v2,jsons/MX_seq35_1_VE1000.json,http://54.235.29.9/FacialAge/BNav_EC2/DepthDuration/MX_fS_VE_MTurk/MX_fS_HTML.html#40,40,1536,864,1536,864,1-8-2024,13-30-23,37,VR_target_stimuli/s19_1.3x_1.21_270.png,1000,1.3x,1.21,2,2917,988,meters,jsons/MX_seq35_1_VE1000.json,227956,344379,24,Woman
37,545267,final-intermixed-textured,v2,jsons/MX_seq35_1_VE1000.json,http://54.235.29.9/FacialAge/BNav_EC2/DepthDuration/MX_fS_VE_MTurk/MX_fS_HTML.html#40,40,1536,864,1536,864,1-8-2024,13-30-23,38,VR_target_stimuli/s21_1.3x_4.22_384_BC.png,1000,1.3x,4.22,6,3800,1004,meters,jsons/MX_seq35_1_VE1000.json,227956,344379,24,Woman
38,545267,final-intermixed-textured,v2,jsons/MX_seq35_1_VE1000.json,http://54.235.29.9/FacialAge/BNav_EC2/DepthDuration/MX_fS_VE_MTurk/MX_fS_HTML.html#40,40,1536,864,1536,864,1-8-2024,13-30-23,39,VR_target_stimuli/s8_1x_3.1_332_BC.png,1000,1x,3.1,4,3712,1004,meters,jsons/MX_seq35_1_VE1000.json,227956,344379,24,Woman
39,545267,final-intermixed-textured,v2,jsons/MX_seq35_1_VE1000.json,http://54.235.29.9/FacialAge/BNav_EC2/DepthDuration/MX_fS_VE_MTurk/MX_fS_HTML.html#40,40,1536,864,1536,864,1-8-2024,13-30-23,40,VR_target_stimuli/s27_0.75x_1.76_243.png,1000,0.75x,1.76,3,2845,1011,meters,jsons/MX_seq35_1_VE1000.json,227956,344379,24,Woman
40,545267,final-intermixed-textured,v2,jsons/MX_seq35_1_VE1000.json,http://54.235.29.9/FacialAge/BNav_EC2/DepthDuration/MX_fS_VE_MTurk/MX_fS_HTML.html#40,40,1536,864,1536,864,1-8-2024,13-30-23,41,VR_target_stimuli/s15_1x_4.2_390.png,1000,1x,4.2,4,2812,995,meters,jsons/MX_seq35_1_VE1000.json,227956,344379,24,Woman
41,545267,final-intermixed-textured,v2,jsons/MX_seq35_1_VE1000.json,http://54.235.29.9/FacialAge/BNav_EC2/DepthDuration/MX_fS_VE_MTurk/MX_fS_HTML.html#40,40,1536,864,1536,864,1-8-2024,13-30-23,42,VR_target_stimuli/s4_1.3x_1.4_328_BC.png,1000,1.3x,1.4,3,5220,989,meters,jsons/MX_seq35_1_VE1000.json,227956,344379,24,Woman
42,545267,final-intermixed-textured,v2,jsons/MX_seq35_1_VE1000.json,http://54.235.29.9/FacialAge/BNav_EC2/DepthDuration/MX_fS_VE_MTurk/MX_fS_HTML.html#40,40,1536,864,1536,864,1-8-2024,13-30-23,43,VR_target_stimuli/s35_0.75x_2_323.png,1000,0.75x,2.0,3,2942,999,meters,jsons/MX_seq35_1_VE1000.json,227956,344379,24,Woman
43,545267,final-intermixed-textured,v2,jsons/MX_seq35_1_VE1000.json,http://54.235.29.9/FacialAge/BNav_EC2/DepthDuration/MX_fS_VE_MTurk/MX_fS_HTML.html#40,40,1536,864,1536,864,1-8-2024,13-30-23,44,VR_target_stimuli/s49_1.3x_4.67_354.png,1000,1.3x,4.67,7,2557,996,meters,jsons/MX_seq35_1_VE1000.json,227956,344379,24,Woman
44,545267,final-intermixed-textured,v2,jsons/MX_seq35_1_VE1000.json,http://54.235.29.9/FacialAge/BNav_EC2/DepthDuration/MX_fS_VE_MTurk/MX_fS_HTML.html#40,40,1536,864,1536,864,1-8-2024,13-30-23,45,catch_stimuli/c4.png,1000,,,0,3447,1003,meters,jsons/MX_seq35_1_VE1000.json,227956,344379,24,Woman
45,545267,final-intermixed-textured,v2,jsons/MX_seq35_1_VE1000.json,http://54.235.29.9/FacialAge/BNav_EC2/DepthDuration/MX_fS_VE_MTurk/MX_fS_HTML.html#40,40,1536,864,1536,864,1-8-2024,13-30-23,46,VR_target_stimuli/s7_1x_1.5_255_BC.png,1000,1x,1.5,1,2675,1001,meters,jsons/MX_seq35_1_VE1000.json,227956,344379,24,Woman
46,545267,final-intermixed-textured,v2,jsons/MX_seq35_1_VE1000.json,http://54.235.29.9/FacialAge/BNav_EC2/DepthDuration/MX_fS_VE_MTurk/MX_fS_HTML.html#40,40,1536,864,1536,864,1-8-2024,13-30-23,47,VR_target_stimuli/s20_0.75x_4.99_390_BC.png,1000,0.75x,4.99,4,2437,996,meters,jsons/MX_seq35_1_VE1000.json,227956,344379,24,Woman
47,545267,final-intermixed-textured,v2,jsons/MX_seq35_1_VE1000.json,http://54.235.29.9/FacialAge/BNav_EC2/DepthDuration/MX_fS_VE_MTurk/MX_fS_HTML.html#40,40,1536,864,1536,864,1-8-2024,13-30-23,48,VR_target_stimuli/s31_0.75x_4.96_329.png,1000,0.75x,4.96,3,2566,1013,meters,jsons/MX_seq35_1_VE1000.json,227956,344379,24,Woman
48,545267,final-intermixed-textured,v2,jsons/MX_seq35_1_VE1000.json,http://54.235.29.9/FacialAge/BNav_EC2/DepthDuration/MX_fS_VE_MTurk/MX_fS_HTML.html#40,40,1536,864,1536,864,1-8-2024,13-30-23,49,VR_target_stimuli/s33_1.3x_3.1_378.png,1000,1.3x,3.1,5,3482,1007,meters,jsons/MX_seq35_1_VE1000.json,227956,344379,24,Woman
49,545267,final-intermixed-textured,v2,jsons/MX_seq35_1_VE1000.json,http://54.235.29.9/FacialAge/BNav_EC2/DepthDuration/MX_fS_VE_MTurk/MX_fS_HTML.html#40,40,1536,864,1536,864,1-8-2024,13-30-23,50,VR_target_stimuli/s52_1x_3.2_275.png,1000,1x,3.2,6,2492,1011,meters,jsons/MX_seq35_1_VE1000.json,227956,344379,24,Woman
50,545267,final-intermixed-textured,v2,jsons/MX_seq35_1_VE1000.json,http://54.235.29.9/FacialAge/BNav_EC2/DepthDuration/MX_fS_VE_MTurk/MX_fS_HTML.html#40,40,1536,864,1536,864,1-8-2024,13-30-23,51,VR_target_stimuli/s32_1.3x_1.5_224_BC.png,1000,1.3x,1.5,4,3501,989,meters,jsons/MX_seq35_1_VE1000.json,227956,344379,24,Woman
51,545267,final-intermixed-textured,v2,jsons/MX_seq35_1_VE1000.json,http://54.235.29.9/FacialAge/BNav_EC2/DepthDuration/MX_fS_VE_MTurk/MX_fS_HTML.html#40,40,1536,864,1536,864,1-8-2024,13-30-23,52,VR_target_stimuli/s18_0.75x_2.25_341_BC.png,1000,0.75x,2.25,3,2980,1007,meters,jsons/MX_seq35_1_VE1000.json,227956,344379,24,Woman
52,545267,final-intermixed-textured,v2,jsons/MX_seq35_1_VE1000.json,http://54.235.29.9/FacialAge/BNav_EC2/DepthDuration/MX_fS_VE_MTurk/MX_fS_HTML.html#40,40,1536,864,1536,864,1-8-2024,13-30-23,53,catch_stimuli/c5.png,1000,,,0,4105,996,meters,jsons/MX_seq35_1_VE1000.json,227956,344379,24,Woman
53,545267,final-intermixed-textured,v2,jsons/MX_seq35_1_VE1000.json,http://54.235.29.9/FacialAge/BNav_EC2/DepthDuration/MX_fS_VE_MTurk/MX_fS_HTML.html#40,40,1536,864,1536,864,1-8-2024,13-30-23,54,VR_target_stimuli/s39_1x_1_207_BC.png,1000,1x,1.0,1,3432,1006,meters,jsons/MX_seq35_1_VE1000.json,227956,344379,24,Woman
54,545267,final-intermixed-textured,v2,jsons/MX_seq35_1_VE1000.json,http://54.235.29.9/FacialAge/BNav_EC2/DepthDuration/MX_fS_VE_MTurk/MX_fS_HTML.html#40,40,1536,864,1536,864,1-8-2024,13-30-23,55,VR_target_stimuli/s51_0.75x_3.64_460_BC.png,1000,0.75x,3.64,3,5108,1005,meters,jsons/MX_seq35_1_VE1000.json,227956,344379,24,Woman
55,545267,final-intermixed-textured,v2,jsons/MX_seq35_1_VE1000.json,http://54.235.29.9/FacialAge/BNav_EC2/DepthDuration/MX_fS_VE_MTurk/MX_fS_HTML.html#40,40,1536,864,1536,864,1-8-2024,13-30-23,56,VR_target_stimuli/s43_1.3x_2.2_363_BC.png,1000,1.3x,2.2,3,2724,1005,meters,jsons/MX_seq35_1_VE1000.json,227956,344379,24,Woman
56,545267,final-intermixed-textured,v2,jsons/MX_seq35_1_VE1000.json,http://54.235.29.9/FacialAge/BNav_EC2/DepthDuration/MX_fS_VE_MTurk/MX_fS_HTML.html#40,40,1536,864,1536,864,1-8-2024,13-30-23,57,VR_target_stimuli/s24_1x_3.3_349.png,1000,1x,3.3,4,2966,1000,meters,jsons/MX_seq35_1_VE1000.json,227956,344379,24,Woman
57,545267,final-intermixed-textured,v2,jsons/MX_seq35_1_VE1000.json,http://54.235.29.9/FacialAge/BNav_EC2/DepthDuration/MX_fS_VE_MTurk/MX_fS_HTML.html#40,40,1536,864,1536,864,1-8-2024,13-30-23,58,VR_target_stimuli/s10_1x_2.7_324_BC.png,1000,1x,2.7,5,2913,1004,meters,jsons/MX_seq35_1_VE1000.json,227956,344379,24,Woman
58,545267,final-intermixed-textured,v2,jsons/MX_seq35_1_VE1000.json,http://54.235.29.9/FacialAge/BNav_EC2/DepthDuration/MX_fS_VE_MTurk/MX_fS_HTML.html#40,40,1536,864,1536,864,1-8-2024,13-30-23,59,VR_target_stimuli/s36_0.75x_4.1_407.png,1000,0.75x,4.1,6,2623,990,meters,jsons/MX_seq35_1_VE1000.json,227956,344379,24,Woman
59,545267,final-intermixed-textured,v2,jsons/MX_seq35_1_VE1000.json,http://54.235.29.9/FacialAge/BNav_EC2/DepthDuration/MX_fS_VE_MTurk/MX_fS_HTML.html#40,40,1536,864,1536,864,1-8-2024,13-30-23,60,VR_target_stimuli/s40_1.3x_1.2_332.png,1000,1.3x,1.2,2,2767,1014,meters,jsons/MX_seq35_1_VE1000.json,227956,344379,24,Woman
