,subjID,experimentName,versionName,sequenceName,url,selected_row,windowWidth,windowHeight,screenWidth,screenHeight,startDate,startTime,trial,stimulus,duration,scale,actual_depth,depth_estimate,trial_RT,log_sceneDuration,unitSelection,seq_filepath,experimentTime,totalTime,age,gender
0,549218,final-intermixed-textured,v2,jsons/MX_seq30_2_VE1000.json,http://54.235.29.9/FacialAge/BNav_EC2/DepthDuration/MX_fS_VE_MTurk/MX_fS_HTML.html#236,236,1536,746,1536,864,1-8-2024,14-46-21,1,VR_target_stimuli/s43_1x_2.2_354.png,1000,1x,2.2,3,14441,992,meters,jsons/MX_seq30_2_VE1000.json,1840931,2061070,19,Woman
1,549218,final-intermixed-textured,v2,jsons/MX_seq30_2_VE1000.json,http://54.235.29.9/FacialAge/BNav_EC2/DepthDuration/MX_fS_VE_MTurk/MX_fS_HTML.html#236,236,1536,746,1536,864,1-8-2024,14-46-21,2,VR_target_stimuli/s24_1.3x_3.3_352_BC.png,1000,1.3x,3.3,4,3813,990,meters,jsons/MX_seq30_2_VE1000.json,1840931,2061070,19,Woman
2,549218,final-intermixed-textured,v2,jsons/MX_seq30_2_VE1000.json,http://54.235.29.9/FacialAge/BNav_EC2/DepthDuration/MX_fS_VE_MTurk/MX_fS_HTML.html#236,236,1536,746,1536,864,1-8-2024,14-46-21,3,VR_target_stimuli/s10_0.75x_2.7_321.png,1000,0.75x,2.7,4,3992,998,meters,jsons/MX_seq30_2_VE1000.json,1840931,2061070,19,Woman
3,549218,final-intermixed-textured,v2,jsons/MX_seq30_2_VE1000.json,http://54.235.29.9/FacialAge/BNav_EC2/DepthDuration/MX_fS_VE_MTurk/MX_fS_HTML.html#236,236,1536,746,1536,864,1-8-2024,14-46-21,4,VR_target_stimuli/s36_1.3x_4.1_442.png,1000,1.3x,4.1,5,4098,999,meters,jsons/MX_seq30_2_VE1000.json,1840931,2061070,19,Woman
4,549218,final-intermixed-textured,v2,jsons/MX_seq30_2_VE1000.json,http://54.235.29.9/FacialAge/BNav_EC2/DepthDuration/MX_fS_VE_MTurk/MX_fS_HTML.html#236,236,1536,746,1536,864,1-8-2024,14-46-21,5,VR_target_stimuli/s40_1x_1.2_319_BC.png,1000,1x,1.2,3,3084,1008,meters,jsons/MX_seq30_2_VE1000.json,1840931,2061070,19,Woman
5,549218,final-intermixed-textured,v2,jsons/MX_seq30_2_VE1000.json,http://54.235.29.9/FacialAge/BNav_EC2/DepthDuration/MX_fS_VE_MTurk/MX_fS_HTML.html#236,236,1536,746,1536,864,1-8-2024,14-46-21,6,VR_target_stimuli/s41_0.75x_2.1_281_BC.png,1000,0.75x,2.1,4,4375,1005,meters,jsons/MX_seq30_2_VE1000.json,1840931,2061070,19,Woman
6,549218,final-intermixed-textured,v2,jsons/MX_seq30_2_VE1000.json,http://54.235.29.9/FacialAge/BNav_EC2/DepthDuration/MX_fS_VE_MTurk/MX_fS_HTML.html#236,236,1536,746,1536,864,1-8-2024,14-46-21,7,catch_stimuli/c0.png,1000,,,0,3037,992,meters,jsons/MX_seq30_2_VE1000.json,1840931,2061070,19,Woman
7,549218,final-intermixed-textured,v2,jsons/MX_seq30_2_VE1000.json,http://54.235.29.9/FacialAge/BNav_EC2/DepthDuration/MX_fS_VE_MTurk/MX_fS_HTML.html#236,236,1536,746,1536,864,1-8-2024,14-46-21,8,VR_target_stimuli/s45_0.75x_3.5_362_BC.png,1000,0.75x,3.5,4,3582,996,meters,jsons/MX_seq30_2_VE1000.json,1840931,2061070,19,Woman
8,549218,final-intermixed-textured,v2,jsons/MX_seq30_2_VE1000.json,http://54.235.29.9/FacialAge/BNav_EC2/DepthDuration/MX_fS_VE_MTurk/MX_fS_HTML.html#236,236,1536,746,1536,864,1-8-2024,14-46-21,9,VR_target_stimuli/s23_1.3x_3.65_354.png,1000,1.3x,3.65,3,4511,999,meters,jsons/MX_seq30_2_VE1000.json,1840931,2061070,19,Woman
9,549218,final-intermixed-textured,v2,jsons/MX_seq30_2_VE1000.json,http://54.235.29.9/FacialAge/BNav_EC2/DepthDuration/MX_fS_VE_MTurk/MX_fS_HTML.html#236,236,1536,746,1536,864,1-8-2024,14-46-21,10,VR_target_stimuli/s26_1x_4_433.png,1000,1x,4.0,3,3782,1000,meters,jsons/MX_seq30_2_VE1000.json,1840931,2061070,19,Woman
10,549218,final-intermixed-textured,v2,jsons/MX_seq30_2_VE1000.json,http://54.235.29.9/FacialAge/BNav_EC2/DepthDuration/MX_fS_VE_MTurk/MX_fS_HTML.html#236,236,1536,746,1536,864,1-8-2024,14-46-21,11,VR_target_stimuli/s12_1.3x_3.1_375_BC.png,1000,1.3x,3.1,4,3059,1000,meters,jsons/MX_seq30_2_VE1000.json,1840931,2061070,19,Woman
11,549218,final-intermixed-textured,v2,jsons/MX_seq30_2_VE1000.json,http://54.235.29.9/FacialAge/BNav_EC2/DepthDuration/MX_fS_VE_MTurk/MX_fS_HTML.html#236,236,1536,746,1536,864,1-8-2024,14-46-21,12,VR_target_stimuli/s30_0.75x_2.3_332.png,1000,0.75x,2.3,4,2752,1004,meters,jsons/MX_seq30_2_VE1000.json,1840931,2061070,19,Woman
12,549218,final-intermixed-textured,v2,jsons/MX_seq30_2_VE1000.json,http://54.235.29.9/FacialAge/BNav_EC2/DepthDuration/MX_fS_VE_MTurk/MX_fS_HTML.html#236,236,1536,746,1536,864,1-8-2024,14-46-21,13,VR_target_stimuli/s16_1x_1_219_BC.png,1000,1x,1.0,3,2420,1000,meters,jsons/MX_seq30_2_VE1000.json,1840931,2061070,19,Woman
13,549218,final-intermixed-textured,v2,jsons/MX_seq30_2_VE1000.json,http://54.235.29.9/FacialAge/BNav_EC2/DepthDuration/MX_fS_VE_MTurk/MX_fS_HTML.html#236,236,1536,746,1536,864,1-8-2024,14-46-21,14,VR_target_stimuli/s17_0.75x_1.8_285_BC.png,1000,0.75x,1.8,4,2808,989,meters,jsons/MX_seq30_2_VE1000.json,1840931,2061070,19,Woman
14,549218,final-intermixed-textured,v2,jsons/MX_seq30_2_VE1000.json,http://54.235.29.9/FacialAge/BNav_EC2/DepthDuration/MX_fS_VE_MTurk/MX_fS_HTML.html#236,236,1536,746,1536,864,1-8-2024,14-46-21,15,VR_target_stimuli/s5_1.3x_4_393_BC.png,1000,1.3x,4.0,4,4052,1001,meters,jsons/MX_seq30_2_VE1000.json,1840931,2061070,19,Woman
15,549218,final-intermixed-textured,v2,jsons/MX_seq30_2_VE1000.json,http://54.235.29.9/FacialAge/BNav_EC2/DepthDuration/MX_fS_VE_MTurk/MX_fS_HTML.html#236,236,1536,746,1536,864,1-8-2024,14-46-21,16,VR_target_stimuli/s37_1x_3.3_563_BC.png,1000,1x,3.3,5,4130,1001,meters,jsons/MX_seq30_2_VE1000.json,1840931,2061070,19,Woman
16,549218,final-intermixed-textured,v2,jsons/MX_seq30_2_VE1000.json,http://54.235.29.9/FacialAge/BNav_EC2/DepthDuration/MX_fS_VE_MTurk/MX_fS_HTML.html#236,236,1536,746,1536,864,1-8-2024,14-46-21,17,catch_stimuli/c1.png,1000,,,0,2789,997,meters,jsons/MX_seq30_2_VE1000.json,1840931,2061070,19,Woman
17,549218,final-intermixed-textured,v2,jsons/MX_seq30_2_VE1000.json,http://54.235.29.9/FacialAge/BNav_EC2/DepthDuration/MX_fS_VE_MTurk/MX_fS_HTML.html#236,236,1536,746,1536,864,1-8-2024,14-46-21,18,VR_target_stimuli/s46_1x_2.42_348.png,1000,1x,2.42,5,3093,998,meters,jsons/MX_seq30_2_VE1000.json,1840931,2061070,19,Woman
18,549218,final-intermixed-textured,v2,jsons/MX_seq30_2_VE1000.json,http://54.235.29.9/FacialAge/BNav_EC2/DepthDuration/MX_fS_VE_MTurk/MX_fS_HTML.html#236,236,1536,746,1536,864,1-8-2024,14-46-21,19,VR_target_stimuli/s22_0.75x_4.29_348.png,1000,0.75x,4.29,6,3859,998,meters,jsons/MX_seq30_2_VE1000.json,1840931,2061070,19,Woman
19,549218,final-intermixed-textured,v2,jsons/MX_seq30_2_VE1000.json,http://54.235.29.9/FacialAge/BNav_EC2/DepthDuration/MX_fS_VE_MTurk/MX_fS_HTML.html#236,236,1536,746,1536,864,1-8-2024,14-46-21,20,VR_target_stimuli/s42_1.3x_3.2_305.png,1000,1.3x,3.2,5,3098,999,meters,jsons/MX_seq30_2_VE1000.json,1840931,2061070,19,Woman
20,549218,final-intermixed-textured,v2,jsons/MX_seq30_2_VE1000.json,http://54.235.29.9/FacialAge/BNav_EC2/DepthDuration/MX_fS_VE_MTurk/MX_fS_HTML.html#236,236,1536,746,1536,864,1-8-2024,14-46-21,21,VR_target_stimuli/s25_0.75x_1.4_281.png,1000,0.75x,1.4,4,3916,995,meters,jsons/MX_seq30_2_VE1000.json,1840931,2061070,19,Woman
21,549218,final-intermixed-textured,v2,jsons/MX_seq30_2_VE1000.json,http://54.235.29.9/FacialAge/BNav_EC2/DepthDuration/MX_fS_VE_MTurk/MX_fS_HTML.html#236,236,1536,746,1536,864,1-8-2024,14-46-21,22,VR_target_stimuli/s50_1x_4.53_518_BC.png,1000,1x,4.53,4,4146,994,meters,jsons/MX_seq30_2_VE1000.json,1840931,2061070,19,Woman
22,549218,final-intermixed-textured,v2,jsons/MX_seq30_2_VE1000.json,http://54.235.29.9/FacialAge/BNav_EC2/DepthDuration/MX_fS_VE_MTurk/MX_fS_HTML.html#236,236,1536,746,1536,864,1-8-2024,14-46-21,23,VR_target_stimuli/s53_1.3x_1.6_355.png,1000,1.3x,1.6,2,2803,990,meters,jsons/MX_seq30_2_VE1000.json,1840931,2061070,19,Woman
23,549218,final-intermixed-textured,v2,jsons/MX_seq30_2_VE1000.json,http://54.235.29.9/FacialAge/BNav_EC2/DepthDuration/MX_fS_VE_MTurk/MX_fS_HTML.html#236,236,1536,746,1536,864,1-8-2024,14-46-21,24,VR_target_stimuli/s38_1x_3.55_353.png,1000,1x,3.55,4,2714,1003,meters,jsons/MX_seq30_2_VE1000.json,1840931,2061070,19,Woman
24,549218,final-intermixed-textured,v2,jsons/MX_seq30_2_VE1000.json,http://54.235.29.9/FacialAge/BNav_EC2/DepthDuration/MX_fS_VE_MTurk/MX_fS_HTML.html#236,236,1536,746,1536,864,1-8-2024,14-46-21,25,VR_target_stimuli/s9_0.75x_1.2_260_BC.png,1000,0.75x,1.2,3,2506,1006,meters,jsons/MX_seq30_2_VE1000.json,1840931,2061070,19,Woman
25,549218,final-intermixed-textured,v2,jsons/MX_seq30_2_VE1000.json,http://54.235.29.9/FacialAge/BNav_EC2/DepthDuration/MX_fS_VE_MTurk/MX_fS_HTML.html#236,236,1536,746,1536,864,1-8-2024,14-46-21,26,catch_stimuli/c2.png,1000,,,0,3305,1000,meters,jsons/MX_seq30_2_VE1000.json,1840931,2061070,19,Woman
26,549218,final-intermixed-textured,v2,jsons/MX_seq30_2_VE1000.json,http://54.235.29.9/FacialAge/BNav_EC2/DepthDuration/MX_fS_VE_MTurk/MX_fS_HTML.html#236,236,1536,746,1536,864,1-8-2024,14-46-21,27,VR_target_stimuli/s44_1.3x_4.4_325_BC.png,1000,1.3x,4.4,4,3912,1005,meters,jsons/MX_seq30_2_VE1000.json,1840931,2061070,19,Woman
27,549218,final-intermixed-textured,v2,jsons/MX_seq30_2_VE1000.json,http://54.235.29.9/FacialAge/BNav_EC2/DepthDuration/MX_fS_VE_MTurk/MX_fS_HTML.html#236,236,1536,746,1536,864,1-8-2024,14-46-21,28,VR_target_stimuli/s3_1.3x_5_390_BC.png,1000,1.3x,5.0,5,4728,999,meters,jsons/MX_seq30_2_VE1000.json,1840931,2061070,19,Woman
28,549218,final-intermixed-textured,v2,jsons/MX_seq30_2_VE1000.json,http://54.235.29.9/FacialAge/BNav_EC2/DepthDuration/MX_fS_VE_MTurk/MX_fS_HTML.html#236,236,1536,746,1536,864,1-8-2024,14-46-21,29,VR_target_stimuli/s1_1x_1.7_262.png,1000,1x,1.7,3,23080,987,meters,jsons/MX_seq30_2_VE1000.json,1840931,2061070,19,Woman
29,549218,final-intermixed-textured,v2,jsons/MX_seq30_2_VE1000.json,http://54.235.29.9/FacialAge/BNav_EC2/DepthDuration/MX_fS_VE_MTurk/MX_fS_HTML.html#236,236,1536,746,1536,864,1-8-2024,14-46-21,30,VR_target_stimuli/s11_0.75x_5_359_BC.png,1000,0.75x,5.0,5,3452,993,meters,jsons/MX_seq30_2_VE1000.json,1840931,2061070,19,Woman
30,549218,final-intermixed-textured,v2,jsons/MX_seq30_2_VE1000.json,http://54.235.29.9/FacialAge/BNav_EC2/DepthDuration/MX_fS_VE_MTurk/MX_fS_HTML.html#236,236,1536,746,1536,864,1-8-2024,14-46-21,31,VR_target_stimuli/s2_1.3x_2.7_397.png,1000,1.3x,2.7,4,3569,1004,meters,jsons/MX_seq30_2_VE1000.json,1840931,2061070,19,Woman
31,549218,final-intermixed-textured,v2,jsons/MX_seq30_2_VE1000.json,http://54.235.29.9/FacialAge/BNav_EC2/DepthDuration/MX_fS_VE_MTurk/MX_fS_HTML.html#236,236,1536,746,1536,864,1-8-2024,14-46-21,32,VR_target_stimuli/s6_0.75x_2.1_290.png,1000,0.75x,2.1,4,3288,999,meters,jsons/MX_seq30_2_VE1000.json,1840931,2061070,19,Woman
32,549218,final-intermixed-textured,v2,jsons/MX_seq30_2_VE1000.json,http://54.235.29.9/FacialAge/BNav_EC2/DepthDuration/MX_fS_VE_MTurk/MX_fS_HTML.html#236,236,1536,746,1536,864,1-8-2024,14-46-21,33,VR_target_stimuli/s0_1x_2.6_351_BC.png,1000,1x,2.6,0,4557,1013,meters,jsons/MX_seq30_2_VE1000.json,1840931,2061070,19,Woman
33,549218,final-intermixed-textured,v2,jsons/MX_seq30_2_VE1000.json,http://54.235.29.9/FacialAge/BNav_EC2/DepthDuration/MX_fS_VE_MTurk/MX_fS_HTML.html#236,236,1536,746,1536,864,1-8-2024,14-46-21,34,catch_stimuli/c3.png,1000,,,0,3783,996,meters,jsons/MX_seq30_2_VE1000.json,1840931,2061070,19,Woman
34,549218,final-intermixed-textured,v2,jsons/MX_seq30_2_VE1000.json,http://54.235.29.9/FacialAge/BNav_EC2/DepthDuration/MX_fS_VE_MTurk/MX_fS_HTML.html#236,236,1536,746,1536,864,1-8-2024,14-46-21,35,VR_target_stimuli/s34_0.75x_2.8_269_BC.png,1000,0.75x,2.8,4,3186,999,meters,jsons/MX_seq30_2_VE1000.json,1840931,2061070,19,Woman
35,549218,final-intermixed-textured,v2,jsons/MX_seq30_2_VE1000.json,http://54.235.29.9/FacialAge/BNav_EC2/DepthDuration/MX_fS_VE_MTurk/MX_fS_HTML.html#236,236,1536,746,1536,864,1-8-2024,14-46-21,36,VR_target_stimuli/s13_1.3x_2.4_313_BC.png,1000,1.3x,2.4,4,2878,1000,meters,jsons/MX_seq30_2_VE1000.json,1840931,2061070,19,Woman
36,549218,final-intermixed-textured,v2,jsons/MX_seq30_2_VE1000.json,http://54.235.29.9/FacialAge/BNav_EC2/DepthDuration/MX_fS_VE_MTurk/MX_fS_HTML.html#236,236,1536,746,1536,864,1-8-2024,14-46-21,37,VR_target_stimuli/s14_1x_ 3.83_357_BC.png,1000,1x,3.83,5,3339,1001,meters,jsons/MX_seq30_2_VE1000.json,1840931,2061070,19,Woman
37,549218,final-intermixed-textured,v2,jsons/MX_seq30_2_VE1000.json,http://54.235.29.9/FacialAge/BNav_EC2/DepthDuration/MX_fS_VE_MTurk/MX_fS_HTML.html#236,236,1536,746,1536,864,1-8-2024,14-46-21,38,VR_target_stimuli/s47_1x_3.45_370.png,1000,1x,3.45,4,3064,1009,meters,jsons/MX_seq30_2_VE1000.json,1840931,2061070,19,Woman
38,549218,final-intermixed-textured,v2,jsons/MX_seq30_2_VE1000.json,http://54.235.29.9/FacialAge/BNav_EC2/DepthDuration/MX_fS_VE_MTurk/MX_fS_HTML.html#236,236,1536,746,1536,864,1-8-2024,14-46-21,39,VR_target_stimuli/s29_0.75x_1.3_246.png,1000,0.75x,1.3,3,2646,1006,meters,jsons/MX_seq30_2_VE1000.json,1840931,2061070,19,Woman
39,549218,final-intermixed-textured,v2,jsons/MX_seq30_2_VE1000.json,http://54.235.29.9/FacialAge/BNav_EC2/DepthDuration/MX_fS_VE_MTurk/MX_fS_HTML.html#236,236,1536,746,1536,864,1-8-2024,14-46-21,40,VR_target_stimuli/s28_1.3x_3.2_365.png,1000,1.3x,3.2,4,2733,998,meters,jsons/MX_seq30_2_VE1000.json,1840931,2061070,19,Woman
40,549218,final-intermixed-textured,v2,jsons/MX_seq30_2_VE1000.json,http://54.235.29.9/FacialAge/BNav_EC2/DepthDuration/MX_fS_VE_MTurk/MX_fS_HTML.html#236,236,1536,746,1536,864,1-8-2024,14-46-21,41,VR_target_stimuli/s48_0.75x_2.55_243.png,1000,0.75x,2.55,4,3259,1002,meters,jsons/MX_seq30_2_VE1000.json,1840931,2061070,19,Woman
41,549218,final-intermixed-textured,v2,jsons/MX_seq30_2_VE1000.json,http://54.235.29.9/FacialAge/BNav_EC2/DepthDuration/MX_fS_VE_MTurk/MX_fS_HTML.html#236,236,1536,746,1536,864,1-8-2024,14-46-21,42,VR_target_stimuli/s19_1x_1.21_263_BC.png,1000,1x,1.21,3,2802,1008,meters,jsons/MX_seq30_2_VE1000.json,1840931,2061070,19,Woman
42,549218,final-intermixed-textured,v2,jsons/MX_seq30_2_VE1000.json,http://54.235.29.9/FacialAge/BNav_EC2/DepthDuration/MX_fS_VE_MTurk/MX_fS_HTML.html#236,236,1536,746,1536,864,1-8-2024,14-46-21,43,VR_target_stimuli/s21_1.3x_4.22_384_BC.png,1000,1.3x,4.22,6,3474,1012,meters,jsons/MX_seq30_2_VE1000.json,1840931,2061070,19,Woman
43,549218,final-intermixed-textured,v2,jsons/MX_seq30_2_VE1000.json,http://54.235.29.9/FacialAge/BNav_EC2/DepthDuration/MX_fS_VE_MTurk/MX_fS_HTML.html#236,236,1536,746,1536,864,1-8-2024,14-46-21,44,VR_target_stimuli/s8_1x_3.1_332.png,1000,1x,3.1,4,23626,1002,meters,jsons/MX_seq30_2_VE1000.json,1840931,2061070,19,Woman
44,549218,final-intermixed-textured,v2,jsons/MX_seq30_2_VE1000.json,http://54.235.29.9/FacialAge/BNav_EC2/DepthDuration/MX_fS_VE_MTurk/MX_fS_HTML.html#236,236,1536,746,1536,864,1-8-2024,14-46-21,45,catch_stimuli/c4.png,1000,,,0,2888,998,meters,jsons/MX_seq30_2_VE1000.json,1840931,2061070,19,Woman
45,549218,final-intermixed-textured,v2,jsons/MX_seq30_2_VE1000.json,http://54.235.29.9/FacialAge/BNav_EC2/DepthDuration/MX_fS_VE_MTurk/MX_fS_HTML.html#236,236,1536,746,1536,864,1-8-2024,14-46-21,46,VR_target_stimuli/s27_0.75x_1.76_243_BC.png,1000,0.75x,1.76,4,2983,1000,meters,jsons/MX_seq30_2_VE1000.json,1840931,2061070,19,Woman
46,549218,final-intermixed-textured,v2,jsons/MX_seq30_2_VE1000.json,http://54.235.29.9/FacialAge/BNav_EC2/DepthDuration/MX_fS_VE_MTurk/MX_fS_HTML.html#236,236,1536,746,1536,864,1-8-2024,14-46-21,47,VR_target_stimuli/s15_1.3x_4.2_389.png,1000,1.3x,4.2,5,2987,1005,meters,jsons/MX_seq30_2_VE1000.json,1840931,2061070,19,Woman
47,549218,final-intermixed-textured,v2,jsons/MX_seq30_2_VE1000.json,http://54.235.29.9/FacialAge/BNav_EC2/DepthDuration/MX_fS_VE_MTurk/MX_fS_HTML.html#236,236,1536,746,1536,864,1-8-2024,14-46-21,48,VR_target_stimuli/s4_1.3x_1.4_328.png,1000,1.3x,1.4,4,2991,1004,meters,jsons/MX_seq30_2_VE1000.json,1840931,2061070,19,Woman
48,549218,final-intermixed-textured,v2,jsons/MX_seq30_2_VE1000.json,http://54.235.29.9/FacialAge/BNav_EC2/DepthDuration/MX_fS_VE_MTurk/MX_fS_HTML.html#236,236,1536,746,1536,864,1-8-2024,14-46-21,49,VR_target_stimuli/s35_1x_2_331_BC.png,1000,1x,2.0,0,9647,1001,meters,jsons/MX_seq30_2_VE1000.json,1840931,2061070,19,Woman
49,549218,final-intermixed-textured,v2,jsons/MX_seq30_2_VE1000.json,http://54.235.29.9/FacialAge/BNav_EC2/DepthDuration/MX_fS_VE_MTurk/MX_fS_HTML.html#236,236,1536,746,1536,864,1-8-2024,14-46-21,50,VR_target_stimuli/s49_0.75x_4.67_328.png,1000,0.75x,4.67,5,3184,1013,meters,jsons/MX_seq30_2_VE1000.json,1840931,2061070,19,Woman
50,549218,final-intermixed-textured,v2,jsons/MX_seq30_2_VE1000.json,http://54.235.29.9/FacialAge/BNav_EC2/DepthDuration/MX_fS_VE_MTurk/MX_fS_HTML.html#236,236,1536,746,1536,864,1-8-2024,14-46-21,51,VR_target_stimuli/s7_1x_1.5_255.png,1000,1x,1.5,3,3163,991,meters,jsons/MX_seq30_2_VE1000.json,1840931,2061070,19,Woman
51,549218,final-intermixed-textured,v2,jsons/MX_seq30_2_VE1000.json,http://54.235.29.9/FacialAge/BNav_EC2/DepthDuration/MX_fS_VE_MTurk/MX_fS_HTML.html#236,236,1536,746,1536,864,1-8-2024,14-46-21,52,VR_target_stimuli/s20_1.3x_4.99_412_BC.png,1000,1.3x,4.99,6,3797,999,meters,jsons/MX_seq30_2_VE1000.json,1840931,2061070,19,Woman
52,549218,final-intermixed-textured,v2,jsons/MX_seq30_2_VE1000.json,http://54.235.29.9/FacialAge/BNav_EC2/DepthDuration/MX_fS_VE_MTurk/MX_fS_HTML.html#236,236,1536,746,1536,864,1-8-2024,14-46-21,53,catch_stimuli/c5.png,1000,,,0,3083,1014,meters,jsons/MX_seq30_2_VE1000.json,1840931,2061070,19,Woman
53,549218,final-intermixed-textured,v2,jsons/MX_seq30_2_VE1000.json,http://54.235.29.9/FacialAge/BNav_EC2/DepthDuration/MX_fS_VE_MTurk/MX_fS_HTML.html#236,236,1536,746,1536,864,1-8-2024,14-46-21,54,VR_target_stimuli/s31_0.75x_4.96_329_BC.png,1000,0.75x,4.96,6,12794,1000,meters,jsons/MX_seq30_2_VE1000.json,1840931,2061070,19,Woman
54,549218,final-intermixed-textured,v2,jsons/MX_seq30_2_VE1000.json,http://54.235.29.9/FacialAge/BNav_EC2/DepthDuration/MX_fS_VE_MTurk/MX_fS_HTML.html#236,236,1536,746,1536,864,1-8-2024,14-46-21,55,VR_target_stimuli/s33_1.3x_3.1_378_BC.png,1000,1.3x,3.1,4,2874,996,meters,jsons/MX_seq30_2_VE1000.json,1840931,2061070,19,Woman
55,549218,final-intermixed-textured,v2,jsons/MX_seq30_2_VE1000.json,http://54.235.29.9/FacialAge/BNav_EC2/DepthDuration/MX_fS_VE_MTurk/MX_fS_HTML.html#236,236,1536,746,1536,864,1-8-2024,14-46-21,56,VR_target_stimuli/s52_1x_3.2_275_BC.png,1000,1x,3.2,4,3308,998,meters,jsons/MX_seq30_2_VE1000.json,1840931,2061070,19,Woman
56,549218,final-intermixed-textured,v2,jsons/MX_seq30_2_VE1000.json,http://54.235.29.9/FacialAge/BNav_EC2/DepthDuration/MX_fS_VE_MTurk/MX_fS_HTML.html#236,236,1536,746,1536,864,1-8-2024,14-46-21,57,VR_target_stimuli/s32_0.75x_1.5_213.png,1000,0.75x,1.5,4,3177,1005,meters,jsons/MX_seq30_2_VE1000.json,1840931,2061070,19,Woman
57,549218,final-intermixed-textured,v2,jsons/MX_seq30_2_VE1000.json,http://54.235.29.9/FacialAge/BNav_EC2/DepthDuration/MX_fS_VE_MTurk/MX_fS_HTML.html#236,236,1536,746,1536,864,1-8-2024,14-46-21,58,VR_target_stimuli/s18_0.75x_2.25_341_BC.png,1000,0.75x,2.25,3,2652,1013,meters,jsons/MX_seq30_2_VE1000.json,1840931,2061070,19,Woman
58,549218,final-intermixed-textured,v2,jsons/MX_seq30_2_VE1000.json,http://54.235.29.9/FacialAge/BNav_EC2/DepthDuration/MX_fS_VE_MTurk/MX_fS_HTML.html#236,236,1536,746,1536,864,1-8-2024,14-46-21,59,VR_target_stimuli/s39_1.3x_1_208.png,1000,1.3x,1.0,3,4207,1010,meters,jsons/MX_seq30_2_VE1000.json,1840931,2061070,19,Woman
59,549218,final-intermixed-textured,v2,jsons/MX_seq30_2_VE1000.json,http://54.235.29.9/FacialAge/BNav_EC2/DepthDuration/MX_fS_VE_MTurk/MX_fS_HTML.html#236,236,1536,746,1536,864,1-8-2024,14-46-21,60,VR_target_stimuli/s51_1x_3.64_461.png,1000,1x,3.64,0,1545208,999,meters,jsons/MX_seq30_2_VE1000.json,1840931,2061070,19,Woman
