,subjID,experimentName,versionName,sequenceName,url,selected_row,windowWidth,windowHeight,screenWidth,screenHeight,startDate,startTime,trial,stimulus,duration,scale,actual_depth,depth_estimate,trial_RT,log_sceneDuration,unitSelection,seq_filepath,experimentTime,totalTime,age,gender
0,550027,final-intermixed-textured,v2,jsons/MX_seq19_2_VE1000.json,http://54.235.29.9/FacialAge/BNav_EC2/DepthDuration/MX_fS_VE_MTurk/MX_fS_HTML.html#171,171,1280,679,1280,800,1-8-2024,13-57-12,1,VR_target_stimuli/s35_1x_2_331.png,1000,1x,2.0,3,3764,1000,meters,jsons/MX_seq19_2_VE1000.json,268444,786612,32,Woman
1,550027,final-intermixed-textured,v2,jsons/MX_seq19_2_VE1000.json,http://54.235.29.9/FacialAge/BNav_EC2/DepthDuration/MX_fS_VE_MTurk/MX_fS_HTML.html#171,171,1280,679,1280,800,1-8-2024,13-57-12,2,VR_target_stimuli/s49_1.3x_4.67_354_BC.png,1000,1.3x,4.67,6,5121,1005,meters,jsons/MX_seq19_2_VE1000.json,268444,786612,32,Woman
2,550027,final-intermixed-textured,v2,jsons/MX_seq19_2_VE1000.json,http://54.235.29.9/FacialAge/BNav_EC2/DepthDuration/MX_fS_VE_MTurk/MX_fS_HTML.html#171,171,1280,679,1280,800,1-8-2024,13-57-12,3,VR_target_stimuli/s7_0.75x_1.5_253.png,1000,0.75x,1.5,3,4693,1000,meters,jsons/MX_seq19_2_VE1000.json,268444,786612,32,Woman
3,550027,final-intermixed-textured,v2,jsons/MX_seq19_2_VE1000.json,http://54.235.29.9/FacialAge/BNav_EC2/DepthDuration/MX_fS_VE_MTurk/MX_fS_HTML.html#171,171,1280,679,1280,800,1-8-2024,13-57-12,4,VR_target_stimuli/s20_1.3x_4.99_412.png,1000,1.3x,4.99,8,3773,1003,meters,jsons/MX_seq19_2_VE1000.json,268444,786612,32,Woman
4,550027,final-intermixed-textured,v2,jsons/MX_seq19_2_VE1000.json,http://54.235.29.9/FacialAge/BNav_EC2/DepthDuration/MX_fS_VE_MTurk/MX_fS_HTML.html#171,171,1280,679,1280,800,1-8-2024,13-57-12,5,VR_target_stimuli/s31_1x_4.96_333_BC.png,1000,1x,4.96,10,4341,1003,meters,jsons/MX_seq19_2_VE1000.json,268444,786612,32,Woman
5,550027,final-intermixed-textured,v2,jsons/MX_seq19_2_VE1000.json,http://54.235.29.9/FacialAge/BNav_EC2/DepthDuration/MX_fS_VE_MTurk/MX_fS_HTML.html#171,171,1280,679,1280,800,1-8-2024,13-57-12,6,VR_target_stimuli/s33_0.75x_3.1_361_BC.png,1000,0.75x,3.1,7,3621,998,meters,jsons/MX_seq19_2_VE1000.json,268444,786612,32,Woman
6,550027,final-intermixed-textured,v2,jsons/MX_seq19_2_VE1000.json,http://54.235.29.9/FacialAge/BNav_EC2/DepthDuration/MX_fS_VE_MTurk/MX_fS_HTML.html#171,171,1280,679,1280,800,1-8-2024,13-57-12,7,catch_stimuli/c0.png,1000,,,0,3407,1003,meters,jsons/MX_seq19_2_VE1000.json,268444,786612,32,Woman
7,550027,final-intermixed-textured,v2,jsons/MX_seq19_2_VE1000.json,http://54.235.29.9/FacialAge/BNav_EC2/DepthDuration/MX_fS_VE_MTurk/MX_fS_HTML.html#171,171,1280,679,1280,800,1-8-2024,13-57-12,8,VR_target_stimuli/s52_0.75x_3.2_270_BC.png,1000,0.75x,3.2,5,3562,1002,meters,jsons/MX_seq19_2_VE1000.json,268444,786612,32,Woman
8,550027,final-intermixed-textured,v2,jsons/MX_seq19_2_VE1000.json,http://54.235.29.9/FacialAge/BNav_EC2/DepthDuration/MX_fS_VE_MTurk/MX_fS_HTML.html#171,171,1280,679,1280,800,1-8-2024,13-57-12,9,VR_target_stimuli/s32_1.3x_1.5_224.png,1000,1.3x,1.5,4,3779,1003,meters,jsons/MX_seq19_2_VE1000.json,268444,786612,32,Woman
9,550027,final-intermixed-textured,v2,jsons/MX_seq19_2_VE1000.json,http://54.235.29.9/FacialAge/BNav_EC2/DepthDuration/MX_fS_VE_MTurk/MX_fS_HTML.html#171,171,1280,679,1280,800,1-8-2024,13-57-12,10,VR_target_stimuli/s18_1x_2.25_353_BC.png,1000,1x,2.25,3,3564,1004,meters,jsons/MX_seq19_2_VE1000.json,268444,786612,32,Woman
10,550027,final-intermixed-textured,v2,jsons/MX_seq19_2_VE1000.json,http://54.235.29.9/FacialAge/BNav_EC2/DepthDuration/MX_fS_VE_MTurk/MX_fS_HTML.html#171,171,1280,679,1280,800,1-8-2024,13-57-12,11,VR_target_stimuli/s39_1.3x_1_208_BC.png,1000,1.3x,1.0,2,4906,1004,meters,jsons/MX_seq19_2_VE1000.json,268444,786612,32,Woman
11,550027,final-intermixed-textured,v2,jsons/MX_seq19_2_VE1000.json,http://54.235.29.9/FacialAge/BNav_EC2/DepthDuration/MX_fS_VE_MTurk/MX_fS_HTML.html#171,171,1280,679,1280,800,1-8-2024,13-57-12,12,VR_target_stimuli/s51_0.75x_3.64_460.png,1000,0.75x,3.64,3,3565,996,meters,jsons/MX_seq19_2_VE1000.json,268444,786612,32,Woman
12,550027,final-intermixed-textured,v2,jsons/MX_seq19_2_VE1000.json,http://54.235.29.9/FacialAge/BNav_EC2/DepthDuration/MX_fS_VE_MTurk/MX_fS_HTML.html#171,171,1280,679,1280,800,1-8-2024,13-57-12,13,VR_target_stimuli/s43_1x_2.2_354.png,1000,1x,2.2,3,3423,1004,meters,jsons/MX_seq19_2_VE1000.json,268444,786612,32,Woman
13,550027,final-intermixed-textured,v2,jsons/MX_seq19_2_VE1000.json,http://54.235.29.9/FacialAge/BNav_EC2/DepthDuration/MX_fS_VE_MTurk/MX_fS_HTML.html#171,171,1280,679,1280,800,1-8-2024,13-57-12,14,VR_target_stimuli/s24_0.75x_3.3_344_BC.png,1000,0.75x,3.3,5,3203,1001,meters,jsons/MX_seq19_2_VE1000.json,268444,786612,32,Woman
14,550027,final-intermixed-textured,v2,jsons/MX_seq19_2_VE1000.json,http://54.235.29.9/FacialAge/BNav_EC2/DepthDuration/MX_fS_VE_MTurk/MX_fS_HTML.html#171,171,1280,679,1280,800,1-8-2024,13-57-12,15,VR_target_stimuli/s10_1.3x_2.7_325_BC.png,1000,1.3x,2.7,5,5018,1003,meters,jsons/MX_seq19_2_VE1000.json,268444,786612,32,Woman
15,550027,final-intermixed-textured,v2,jsons/MX_seq19_2_VE1000.json,http://54.235.29.9/FacialAge/BNav_EC2/DepthDuration/MX_fS_VE_MTurk/MX_fS_HTML.html#171,171,1280,679,1280,800,1-8-2024,13-57-12,16,VR_target_stimuli/s36_1x_4.1_423_BC.png,1000,1x,4.1,6,6244,1003,meters,jsons/MX_seq19_2_VE1000.json,268444,786612,32,Woman
16,550027,final-intermixed-textured,v2,jsons/MX_seq19_2_VE1000.json,http://54.235.29.9/FacialAge/BNav_EC2/DepthDuration/MX_fS_VE_MTurk/MX_fS_HTML.html#171,171,1280,679,1280,800,1-8-2024,13-57-12,17,catch_stimuli/c1.png,1000,,,0,3526,998,meters,jsons/MX_seq19_2_VE1000.json,268444,786612,32,Woman
17,550027,final-intermixed-textured,v2,jsons/MX_seq19_2_VE1000.json,http://54.235.29.9/FacialAge/BNav_EC2/DepthDuration/MX_fS_VE_MTurk/MX_fS_HTML.html#171,171,1280,679,1280,800,1-8-2024,13-57-12,18,VR_target_stimuli/s40_1x_1.2_319.png,1000,1x,1.2,2,4486,1000,meters,jsons/MX_seq19_2_VE1000.json,268444,786612,32,Woman
18,550027,final-intermixed-textured,v2,jsons/MX_seq19_2_VE1000.json,http://54.235.29.9/FacialAge/BNav_EC2/DepthDuration/MX_fS_VE_MTurk/MX_fS_HTML.html#171,171,1280,679,1280,800,1-8-2024,13-57-12,19,VR_target_stimuli/s41_0.75x_2.1_281.png,1000,0.75x,2.1,3,4027,997,meters,jsons/MX_seq19_2_VE1000.json,268444,786612,32,Woman
19,550027,final-intermixed-textured,v2,jsons/MX_seq19_2_VE1000.json,http://54.235.29.9/FacialAge/BNav_EC2/DepthDuration/MX_fS_VE_MTurk/MX_fS_HTML.html#171,171,1280,679,1280,800,1-8-2024,13-57-12,20,VR_target_stimuli/s45_1.3x_3.5_377.png,1000,1.3x,3.5,4,6519,1003,meters,jsons/MX_seq19_2_VE1000.json,268444,786612,32,Woman
20,550027,final-intermixed-textured,v2,jsons/MX_seq19_2_VE1000.json,http://54.235.29.9/FacialAge/BNav_EC2/DepthDuration/MX_fS_VE_MTurk/MX_fS_HTML.html#171,171,1280,679,1280,800,1-8-2024,13-57-12,21,VR_target_stimuli/s23_0.75x_3.65_351_BC.png,1000,0.75x,3.65,4,3833,1001,meters,jsons/MX_seq19_2_VE1000.json,268444,786612,32,Woman
21,550027,final-intermixed-textured,v2,jsons/MX_seq19_2_VE1000.json,http://54.235.29.9/FacialAge/BNav_EC2/DepthDuration/MX_fS_VE_MTurk/MX_fS_HTML.html#171,171,1280,679,1280,800,1-8-2024,13-57-12,22,VR_target_stimuli/s26_1x_4_433.png,1000,1x,4.0,4,3628,999,meters,jsons/MX_seq19_2_VE1000.json,268444,786612,32,Woman
22,550027,final-intermixed-textured,v2,jsons/MX_seq19_2_VE1000.json,http://54.235.29.9/FacialAge/BNav_EC2/DepthDuration/MX_fS_VE_MTurk/MX_fS_HTML.html#171,171,1280,679,1280,800,1-8-2024,13-57-12,23,VR_target_stimuli/s12_1.3x_3.1_375.png,1000,1.3x,3.1,3,3282,1002,meters,jsons/MX_seq19_2_VE1000.json,268444,786612,32,Woman
23,550027,final-intermixed-textured,v2,jsons/MX_seq19_2_VE1000.json,http://54.235.29.9/FacialAge/BNav_EC2/DepthDuration/MX_fS_VE_MTurk/MX_fS_HTML.html#171,171,1280,679,1280,800,1-8-2024,13-57-12,24,VR_target_stimuli/s30_1x_2.3_334_BC.png,1000,1x,2.3,3,3349,1003,meters,jsons/MX_seq19_2_VE1000.json,268444,786612,32,Woman
24,550027,final-intermixed-textured,v2,jsons/MX_seq19_2_VE1000.json,http://54.235.29.9/FacialAge/BNav_EC2/DepthDuration/MX_fS_VE_MTurk/MX_fS_HTML.html#171,171,1280,679,1280,800,1-8-2024,13-57-12,25,VR_target_stimuli/s16_0.75x_1_217.png,1000,0.75x,1.0,1,2947,1004,meters,jsons/MX_seq19_2_VE1000.json,268444,786612,32,Woman
25,550027,final-intermixed-textured,v2,jsons/MX_seq19_2_VE1000.json,http://54.235.29.9/FacialAge/BNav_EC2/DepthDuration/MX_fS_VE_MTurk/MX_fS_HTML.html#171,171,1280,679,1280,800,1-8-2024,13-57-12,26,catch_stimuli/c2.png,1000,,,0,3257,1000,meters,jsons/MX_seq19_2_VE1000.json,268444,786612,32,Woman
26,550027,final-intermixed-textured,v2,jsons/MX_seq19_2_VE1000.json,http://54.235.29.9/FacialAge/BNav_EC2/DepthDuration/MX_fS_VE_MTurk/MX_fS_HTML.html#171,171,1280,679,1280,800,1-8-2024,13-57-12,27,VR_target_stimuli/s17_1.3x_1.8_300_BC.png,1000,1.3x,1.8,2,2378,1004,meters,jsons/MX_seq19_2_VE1000.json,268444,786612,32,Woman
27,550027,final-intermixed-textured,v2,jsons/MX_seq19_2_VE1000.json,http://54.235.29.9/FacialAge/BNav_EC2/DepthDuration/MX_fS_VE_MTurk/MX_fS_HTML.html#171,171,1280,679,1280,800,1-8-2024,13-57-12,28,VR_target_stimuli/s5_1.3x_4_393_BC.png,1000,1.3x,4.0,4,2928,1001,meters,jsons/MX_seq19_2_VE1000.json,268444,786612,32,Woman
28,550027,final-intermixed-textured,v2,jsons/MX_seq19_2_VE1000.json,http://54.235.29.9/FacialAge/BNav_EC2/DepthDuration/MX_fS_VE_MTurk/MX_fS_HTML.html#171,171,1280,679,1280,800,1-8-2024,13-57-12,29,VR_target_stimuli/s37_1x_3.3_563_BC.png,1000,1x,3.3,2,2911,1000,meters,jsons/MX_seq19_2_VE1000.json,268444,786612,32,Woman
29,550027,final-intermixed-textured,v2,jsons/MX_seq19_2_VE1000.json,http://54.235.29.9/FacialAge/BNav_EC2/DepthDuration/MX_fS_VE_MTurk/MX_fS_HTML.html#171,171,1280,679,1280,800,1-8-2024,13-57-12,30,VR_target_stimuli/s46_0.75x_2.42_343_BC.png,1000,0.75x,2.42,5,2740,1002,meters,jsons/MX_seq19_2_VE1000.json,268444,786612,32,Woman
30,550027,final-intermixed-textured,v2,jsons/MX_seq19_2_VE1000.json,http://54.235.29.9/FacialAge/BNav_EC2/DepthDuration/MX_fS_VE_MTurk/MX_fS_HTML.html#171,171,1280,679,1280,800,1-8-2024,13-57-12,31,VR_target_stimuli/s22_1.3x_4.29_364.png,1000,1.3x,4.29,6,3987,1001,meters,jsons/MX_seq19_2_VE1000.json,268444,786612,32,Woman
31,550027,final-intermixed-textured,v2,jsons/MX_seq19_2_VE1000.json,http://54.235.29.9/FacialAge/BNav_EC2/DepthDuration/MX_fS_VE_MTurk/MX_fS_HTML.html#171,171,1280,679,1280,800,1-8-2024,13-57-12,32,VR_target_stimuli/s42_0.75x_3.2_301.png,1000,0.75x,3.2,6,2896,995,meters,jsons/MX_seq19_2_VE1000.json,268444,786612,32,Woman
32,550027,final-intermixed-textured,v2,jsons/MX_seq19_2_VE1000.json,http://54.235.29.9/FacialAge/BNav_EC2/DepthDuration/MX_fS_VE_MTurk/MX_fS_HTML.html#171,171,1280,679,1280,800,1-8-2024,13-57-12,33,VR_target_stimuli/s25_1x_1.4_290.png,1000,1x,1.4,4,5551,1001,meters,jsons/MX_seq19_2_VE1000.json,268444,786612,32,Woman
33,550027,final-intermixed-textured,v2,jsons/MX_seq19_2_VE1000.json,http://54.235.29.9/FacialAge/BNav_EC2/DepthDuration/MX_fS_VE_MTurk/MX_fS_HTML.html#171,171,1280,679,1280,800,1-8-2024,13-57-12,34,catch_stimuli/c3.png,1000,,,3,8068,1001,meters,jsons/MX_seq19_2_VE1000.json,268444,786612,32,Woman
34,550027,final-intermixed-textured,v2,jsons/MX_seq19_2_VE1000.json,http://54.235.29.9/FacialAge/BNav_EC2/DepthDuration/MX_fS_VE_MTurk/MX_fS_HTML.html#171,171,1280,679,1280,800,1-8-2024,13-57-12,35,VR_target_stimuli/s50_0.75x_4.53_517.png,1000,0.75x,4.53,4,10647,1002,meters,jsons/MX_seq19_2_VE1000.json,268444,786612,32,Woman
35,550027,final-intermixed-textured,v2,jsons/MX_seq19_2_VE1000.json,http://54.235.29.9/FacialAge/BNav_EC2/DepthDuration/MX_fS_VE_MTurk/MX_fS_HTML.html#171,171,1280,679,1280,800,1-8-2024,13-57-12,36,VR_target_stimuli/s53_1.3x_1.6_355_BC.png,1000,1.3x,1.6,2,3825,999,meters,jsons/MX_seq19_2_VE1000.json,268444,786612,32,Woman
36,550027,final-intermixed-textured,v2,jsons/MX_seq19_2_VE1000.json,http://54.235.29.9/FacialAge/BNav_EC2/DepthDuration/MX_fS_VE_MTurk/MX_fS_HTML.html#171,171,1280,679,1280,800,1-8-2024,13-57-12,37,VR_target_stimuli/s38_1x_3.55_353.png,1000,1x,3.55,5,5431,1000,meters,jsons/MX_seq19_2_VE1000.json,268444,786612,32,Woman
37,550027,final-intermixed-textured,v2,jsons/MX_seq19_2_VE1000.json,http://54.235.29.9/FacialAge/BNav_EC2/DepthDuration/MX_fS_VE_MTurk/MX_fS_HTML.html#171,171,1280,679,1280,800,1-8-2024,13-57-12,38,VR_target_stimuli/s9_1x_1.2_263_BC.png,1000,1x,1.2,2,3561,1003,meters,jsons/MX_seq19_2_VE1000.json,268444,786612,32,Woman
38,550027,final-intermixed-textured,v2,jsons/MX_seq19_2_VE1000.json,http://54.235.29.9/FacialAge/BNav_EC2/DepthDuration/MX_fS_VE_MTurk/MX_fS_HTML.html#171,171,1280,679,1280,800,1-8-2024,13-57-12,39,VR_target_stimuli/s44_0.75x_4.4_314_BC.png,1000,0.75x,4.4,6,3616,1002,meters,jsons/MX_seq19_2_VE1000.json,268444,786612,32,Woman
39,550027,final-intermixed-textured,v2,jsons/MX_seq19_2_VE1000.json,http://54.235.29.9/FacialAge/BNav_EC2/DepthDuration/MX_fS_VE_MTurk/MX_fS_HTML.html#171,171,1280,679,1280,800,1-8-2024,13-57-12,40,VR_target_stimuli/s3_1.3x_5_390.png,1000,1.3x,5.0,6,3928,1001,meters,jsons/MX_seq19_2_VE1000.json,268444,786612,32,Woman
40,550027,final-intermixed-textured,v2,jsons/MX_seq19_2_VE1000.json,http://54.235.29.9/FacialAge/BNav_EC2/DepthDuration/MX_fS_VE_MTurk/MX_fS_HTML.html#171,171,1280,679,1280,800,1-8-2024,13-57-12,41,VR_target_stimuli/s1_0.75x_1.7_265_BC.png,1000,0.75x,1.7,3,3956,1004,meters,jsons/MX_seq19_2_VE1000.json,268444,786612,32,Woman
41,550027,final-intermixed-textured,v2,jsons/MX_seq19_2_VE1000.json,http://54.235.29.9/FacialAge/BNav_EC2/DepthDuration/MX_fS_VE_MTurk/MX_fS_HTML.html#171,171,1280,679,1280,800,1-8-2024,13-57-12,42,VR_target_stimuli/s11_1x_5_361.png,1000,1x,5.0,5,3600,1001,meters,jsons/MX_seq19_2_VE1000.json,268444,786612,32,Woman
42,550027,final-intermixed-textured,v2,jsons/MX_seq19_2_VE1000.json,http://54.235.29.9/FacialAge/BNav_EC2/DepthDuration/MX_fS_VE_MTurk/MX_fS_HTML.html#171,171,1280,679,1280,800,1-8-2024,13-57-12,43,VR_target_stimuli/s2_1.3x_2.7_397_BC.png,1000,1.3x,2.7,2,3785,1000,meters,jsons/MX_seq19_2_VE1000.json,268444,786612,32,Woman
43,550027,final-intermixed-textured,v2,jsons/MX_seq19_2_VE1000.json,http://54.235.29.9/FacialAge/BNav_EC2/DepthDuration/MX_fS_VE_MTurk/MX_fS_HTML.html#171,171,1280,679,1280,800,1-8-2024,13-57-12,44,VR_target_stimuli/s6_1x_2.1_293_BC.png,1000,1x,2.1,2,3298,1003,meters,jsons/MX_seq19_2_VE1000.json,268444,786612,32,Woman
44,550027,final-intermixed-textured,v2,jsons/MX_seq19_2_VE1000.json,http://54.235.29.9/FacialAge/BNav_EC2/DepthDuration/MX_fS_VE_MTurk/MX_fS_HTML.html#171,171,1280,679,1280,800,1-8-2024,13-57-12,45,catch_stimuli/c4.png,1000,,,0,3375,1002,meters,jsons/MX_seq19_2_VE1000.json,268444,786612,32,Woman
45,550027,final-intermixed-textured,v2,jsons/MX_seq19_2_VE1000.json,http://54.235.29.9/FacialAge/BNav_EC2/DepthDuration/MX_fS_VE_MTurk/MX_fS_HTML.html#171,171,1280,679,1280,800,1-8-2024,13-57-12,46,VR_target_stimuli/s0_0.75x_2.6_345.png,1000,0.75x,2.6,4,3425,1002,meters,jsons/MX_seq19_2_VE1000.json,268444,786612,32,Woman
46,550027,final-intermixed-textured,v2,jsons/MX_seq19_2_VE1000.json,http://54.235.29.9/FacialAge/BNav_EC2/DepthDuration/MX_fS_VE_MTurk/MX_fS_HTML.html#171,171,1280,679,1280,800,1-8-2024,13-57-12,47,VR_target_stimuli/s34_1.3x_2.8_294.png,1000,1.3x,2.8,5,5211,1002,meters,jsons/MX_seq19_2_VE1000.json,268444,786612,32,Woman
47,550027,final-intermixed-textured,v2,jsons/MX_seq19_2_VE1000.json,http://54.235.29.9/FacialAge/BNav_EC2/DepthDuration/MX_fS_VE_MTurk/MX_fS_HTML.html#171,171,1280,679,1280,800,1-8-2024,13-57-12,48,VR_target_stimuli/s13_1.3x_2.4_313_BC.png,1000,1.3x,2.4,4,3320,1002,meters,jsons/MX_seq19_2_VE1000.json,268444,786612,32,Woman
48,550027,final-intermixed-textured,v2,jsons/MX_seq19_2_VE1000.json,http://54.235.29.9/FacialAge/BNav_EC2/DepthDuration/MX_fS_VE_MTurk/MX_fS_HTML.html#171,171,1280,679,1280,800,1-8-2024,13-57-12,49,VR_target_stimuli/s14_1x_ 3.83_357_BC.png,1000,1x,3.83,5,3176,1004,meters,jsons/MX_seq19_2_VE1000.json,268444,786612,32,Woman
49,550027,final-intermixed-textured,v2,jsons/MX_seq19_2_VE1000.json,http://54.235.29.9/FacialAge/BNav_EC2/DepthDuration/MX_fS_VE_MTurk/MX_fS_HTML.html#171,171,1280,679,1280,800,1-8-2024,13-57-12,50,VR_target_stimuli/s47_0.75x_3.45_366.png,1000,0.75x,3.45,6,3189,998,meters,jsons/MX_seq19_2_VE1000.json,268444,786612,32,Woman
50,550027,final-intermixed-textured,v2,jsons/MX_seq19_2_VE1000.json,http://54.235.29.9/FacialAge/BNav_EC2/DepthDuration/MX_fS_VE_MTurk/MX_fS_HTML.html#171,171,1280,679,1280,800,1-8-2024,13-57-12,51,VR_target_stimuli/s29_1x_1.3_250.png,1000,1x,1.3,3,3312,1002,meters,jsons/MX_seq19_2_VE1000.json,268444,786612,32,Woman
51,550027,final-intermixed-textured,v2,jsons/MX_seq19_2_VE1000.json,http://54.235.29.9/FacialAge/BNav_EC2/DepthDuration/MX_fS_VE_MTurk/MX_fS_HTML.html#171,171,1280,679,1280,800,1-8-2024,13-57-12,52,VR_target_stimuli/s28_1.3x_3.2_365.png,1000,1.3x,3.2,5,3387,1004,meters,jsons/MX_seq19_2_VE1000.json,268444,786612,32,Woman
52,550027,final-intermixed-textured,v2,jsons/MX_seq19_2_VE1000.json,http://54.235.29.9/FacialAge/BNav_EC2/DepthDuration/MX_fS_VE_MTurk/MX_fS_HTML.html#171,171,1280,679,1280,800,1-8-2024,13-57-12,53,catch_stimuli/c5.png,1000,,,0,3506,997,meters,jsons/MX_seq19_2_VE1000.json,268444,786612,32,Woman
53,550027,final-intermixed-textured,v2,jsons/MX_seq19_2_VE1000.json,http://54.235.29.9/FacialAge/BNav_EC2/DepthDuration/MX_fS_VE_MTurk/MX_fS_HTML.html#171,171,1280,679,1280,800,1-8-2024,13-57-12,54,VR_target_stimuli/s48_0.75x_2.55_243_BC.png,1000,0.75x,2.55,6,3669,1001,meters,jsons/MX_seq19_2_VE1000.json,268444,786612,32,Woman
54,550027,final-intermixed-textured,v2,jsons/MX_seq19_2_VE1000.json,http://54.235.29.9/FacialAge/BNav_EC2/DepthDuration/MX_fS_VE_MTurk/MX_fS_HTML.html#171,171,1280,679,1280,800,1-8-2024,13-57-12,55,VR_target_stimuli/s19_1.3x_1.21_270.png,1000,1.3x,1.21,2,3837,1003,meters,jsons/MX_seq19_2_VE1000.json,268444,786612,32,Woman
55,550027,final-intermixed-textured,v2,jsons/MX_seq19_2_VE1000.json,http://54.235.29.9/FacialAge/BNav_EC2/DepthDuration/MX_fS_VE_MTurk/MX_fS_HTML.html#171,171,1280,679,1280,800,1-8-2024,13-57-12,56,VR_target_stimuli/s21_1x_4.22_379.png,1000,1x,4.22,7,4714,1004,meters,jsons/MX_seq19_2_VE1000.json,268444,786612,32,Woman
56,550027,final-intermixed-textured,v2,jsons/MX_seq19_2_VE1000.json,http://54.235.29.9/FacialAge/BNav_EC2/DepthDuration/MX_fS_VE_MTurk/MX_fS_HTML.html#171,171,1280,679,1280,800,1-8-2024,13-57-12,57,VR_target_stimuli/s8_0.75x_3.1_325.png,1000,0.75x,3.1,5,2936,1001,meters,jsons/MX_seq19_2_VE1000.json,268444,786612,32,Woman
57,550027,final-intermixed-textured,v2,jsons/MX_seq19_2_VE1000.json,http://54.235.29.9/FacialAge/BNav_EC2/DepthDuration/MX_fS_VE_MTurk/MX_fS_HTML.html#171,171,1280,679,1280,800,1-8-2024,13-57-12,58,VR_target_stimuli/s27_0.75x_1.76_243_BC.png,1000,0.75x,1.76,4,3594,998,meters,jsons/MX_seq19_2_VE1000.json,268444,786612,32,Woman
58,550027,final-intermixed-textured,v2,jsons/MX_seq19_2_VE1000.json,http://54.235.29.9/FacialAge/BNav_EC2/DepthDuration/MX_fS_VE_MTurk/MX_fS_HTML.html#171,171,1280,679,1280,800,1-8-2024,13-57-12,59,VR_target_stimuli/s15_1.3x_4.2_389_BC.png,1000,1.3x,4.2,6,2854,1001,meters,jsons/MX_seq19_2_VE1000.json,268444,786612,32,Woman
59,550027,final-intermixed-textured,v2,jsons/MX_seq19_2_VE1000.json,http://54.235.29.9/FacialAge/BNav_EC2/DepthDuration/MX_fS_VE_MTurk/MX_fS_HTML.html#171,171,1280,679,1280,800,1-8-2024,13-57-12,60,VR_target_stimuli/s4_1x_1.4_313_BC.png,1000,1x,1.4,4,2859,1004,meters,jsons/MX_seq19_2_VE1000.json,268444,786612,32,Woman
