,subjID,experimentName,versionName,sequenceName,url,selected_row,windowWidth,windowHeight,screenWidth,screenHeight,startDate,startTime,trial,stimulus,duration,scale,actual_depth,depth_estimate,trial_RT,log_sceneDuration,unitSelection,seq_filepath,experimentTime,totalTime,age,gender
0,552800,final-intermixed-textured,v2,jsons/MX_seq33_1_VE1000.json,http://54.235.29.9/FacialAge/BNav_EC2/DepthDuration/MX_fS_VE_MTurk/MX_fS_HTML.html#313,313,1366,645,1366,768,1-8-2024,22-36-31,1,VR_target_stimuli/s36_1.3x_4.1_442.png,1000,1.3x,4.1,5,4090,995,meters,jsons/MX_seq33_1_VE1000.json,231890,391018,23,Woman
1,552800,final-intermixed-textured,v2,jsons/MX_seq33_1_VE1000.json,http://54.235.29.9/FacialAge/BNav_EC2/DepthDuration/MX_fS_VE_MTurk/MX_fS_HTML.html#313,313,1366,645,1366,768,1-8-2024,22-36-31,2,VR_target_stimuli/s40_0.75x_1.2_308_BC.png,1000,0.75x,1.2,3,3828,996,meters,jsons/MX_seq33_1_VE1000.json,231890,391018,23,Woman
2,552800,final-intermixed-textured,v2,jsons/MX_seq33_1_VE1000.json,http://54.235.29.9/FacialAge/BNav_EC2/DepthDuration/MX_fS_VE_MTurk/MX_fS_HTML.html#313,313,1366,645,1366,768,1-8-2024,22-36-31,3,VR_target_stimuli/s41_1x_2.1_286_BC.png,1000,1x,2.1,4,3611,993,meters,jsons/MX_seq33_1_VE1000.json,231890,391018,23,Woman
3,552800,final-intermixed-textured,v2,jsons/MX_seq33_1_VE1000.json,http://54.235.29.9/FacialAge/BNav_EC2/DepthDuration/MX_fS_VE_MTurk/MX_fS_HTML.html#313,313,1366,645,1366,768,1-8-2024,22-36-31,4,VR_target_stimuli/s45_0.75x_3.5_362.png,1000,0.75x,3.5,5,3478,996,meters,jsons/MX_seq33_1_VE1000.json,231890,391018,23,Woman
4,552800,final-intermixed-textured,v2,jsons/MX_seq33_1_VE1000.json,http://54.235.29.9/FacialAge/BNav_EC2/DepthDuration/MX_fS_VE_MTurk/MX_fS_HTML.html#313,313,1366,645,1366,768,1-8-2024,22-36-31,5,VR_target_stimuli/s23_1.3x_3.65_354_BC.png,1000,1.3x,3.65,3,3237,996,meters,jsons/MX_seq33_1_VE1000.json,231890,391018,23,Woman
5,552800,final-intermixed-textured,v2,jsons/MX_seq33_1_VE1000.json,http://54.235.29.9/FacialAge/BNav_EC2/DepthDuration/MX_fS_VE_MTurk/MX_fS_HTML.html#313,313,1366,645,1366,768,1-8-2024,22-36-31,6,VR_target_stimuli/s26_1x_4_433.png,1000,1x,4.0,4,3222,1004,meters,jsons/MX_seq33_1_VE1000.json,231890,391018,23,Woman
6,552800,final-intermixed-textured,v2,jsons/MX_seq33_1_VE1000.json,http://54.235.29.9/FacialAge/BNav_EC2/DepthDuration/MX_fS_VE_MTurk/MX_fS_HTML.html#313,313,1366,645,1366,768,1-8-2024,22-36-31,7,catch_stimuli/c0.png,1000,,,0,2958,999,meters,jsons/MX_seq33_1_VE1000.json,231890,391018,23,Woman
7,552800,final-intermixed-textured,v2,jsons/MX_seq33_1_VE1000.json,http://54.235.29.9/FacialAge/BNav_EC2/DepthDuration/MX_fS_VE_MTurk/MX_fS_HTML.html#313,313,1366,645,1366,768,1-8-2024,22-36-31,8,VR_target_stimuli/s12_1x_3.1_372.png,1000,1x,3.1,5,3090,1001,meters,jsons/MX_seq33_1_VE1000.json,231890,391018,23,Woman
8,552800,final-intermixed-textured,v2,jsons/MX_seq33_1_VE1000.json,http://54.235.29.9/FacialAge/BNav_EC2/DepthDuration/MX_fS_VE_MTurk/MX_fS_HTML.html#313,313,1366,645,1366,768,1-8-2024,22-36-31,9,VR_target_stimuli/s30_0.75x_2.3_332.png,1000,0.75x,2.3,4,3089,992,meters,jsons/MX_seq33_1_VE1000.json,231890,391018,23,Woman
9,552800,final-intermixed-textured,v2,jsons/MX_seq33_1_VE1000.json,http://54.235.29.9/FacialAge/BNav_EC2/DepthDuration/MX_fS_VE_MTurk/MX_fS_HTML.html#313,313,1366,645,1366,768,1-8-2024,22-36-31,10,VR_target_stimuli/s16_1.3x_1_223.png,1000,1.3x,1.0,2,3226,994,meters,jsons/MX_seq33_1_VE1000.json,231890,391018,23,Woman
10,552800,final-intermixed-textured,v2,jsons/MX_seq33_1_VE1000.json,http://54.235.29.9/FacialAge/BNav_EC2/DepthDuration/MX_fS_VE_MTurk/MX_fS_HTML.html#313,313,1366,645,1366,768,1-8-2024,22-36-31,11,VR_target_stimuli/s17_0.75x_1.8_285_BC.png,1000,0.75x,1.8,3,3353,1000,meters,jsons/MX_seq33_1_VE1000.json,231890,391018,23,Woman
11,552800,final-intermixed-textured,v2,jsons/MX_seq33_1_VE1000.json,http://54.235.29.9/FacialAge/BNav_EC2/DepthDuration/MX_fS_VE_MTurk/MX_fS_HTML.html#313,313,1366,645,1366,768,1-8-2024,22-36-31,12,VR_target_stimuli/s5_1x_4_378_BC.png,1000,1x,4.0,4,3533,1013,meters,jsons/MX_seq33_1_VE1000.json,231890,391018,23,Woman
12,552800,final-intermixed-textured,v2,jsons/MX_seq33_1_VE1000.json,http://54.235.29.9/FacialAge/BNav_EC2/DepthDuration/MX_fS_VE_MTurk/MX_fS_HTML.html#313,313,1366,645,1366,768,1-8-2024,22-36-31,13,VR_target_stimuli/s37_1.3x_3.3_555_BC.png,1000,1.3x,3.3,4,3477,996,meters,jsons/MX_seq33_1_VE1000.json,231890,391018,23,Woman
13,552800,final-intermixed-textured,v2,jsons/MX_seq33_1_VE1000.json,http://54.235.29.9/FacialAge/BNav_EC2/DepthDuration/MX_fS_VE_MTurk/MX_fS_HTML.html#313,313,1366,645,1366,768,1-8-2024,22-36-31,14,VR_target_stimuli/s46_1x_2.42_348.png,1000,1x,2.42,5,3018,992,meters,jsons/MX_seq33_1_VE1000.json,231890,391018,23,Woman
14,552800,final-intermixed-textured,v2,jsons/MX_seq33_1_VE1000.json,http://54.235.29.9/FacialAge/BNav_EC2/DepthDuration/MX_fS_VE_MTurk/MX_fS_HTML.html#313,313,1366,645,1366,768,1-8-2024,22-36-31,15,VR_target_stimuli/s22_0.75x_4.29_348_BC.png,1000,0.75x,4.29,6,3379,1011,meters,jsons/MX_seq33_1_VE1000.json,231890,391018,23,Woman
15,552800,final-intermixed-textured,v2,jsons/MX_seq33_1_VE1000.json,http://54.235.29.9/FacialAge/BNav_EC2/DepthDuration/MX_fS_VE_MTurk/MX_fS_HTML.html#313,313,1366,645,1366,768,1-8-2024,22-36-31,16,VR_target_stimuli/s42_1.3x_3.2_305.png,1000,1.3x,3.2,6,3195,997,meters,jsons/MX_seq33_1_VE1000.json,231890,391018,23,Woman
16,552800,final-intermixed-textured,v2,jsons/MX_seq33_1_VE1000.json,http://54.235.29.9/FacialAge/BNav_EC2/DepthDuration/MX_fS_VE_MTurk/MX_fS_HTML.html#313,313,1366,645,1366,768,1-8-2024,22-36-31,17,catch_stimuli/c1.png,1000,,,0,2997,999,meters,jsons/MX_seq33_1_VE1000.json,231890,391018,23,Woman
17,552800,final-intermixed-textured,v2,jsons/MX_seq33_1_VE1000.json,http://54.235.29.9/FacialAge/BNav_EC2/DepthDuration/MX_fS_VE_MTurk/MX_fS_HTML.html#313,313,1366,645,1366,768,1-8-2024,22-36-31,18,VR_target_stimuli/s25_1.3x_1.4_299_BC.png,1000,1.3x,1.4,3,4469,996,meters,jsons/MX_seq33_1_VE1000.json,231890,391018,23,Woman
18,552800,final-intermixed-textured,v2,jsons/MX_seq33_1_VE1000.json,http://54.235.29.9/FacialAge/BNav_EC2/DepthDuration/MX_fS_VE_MTurk/MX_fS_HTML.html#313,313,1366,645,1366,768,1-8-2024,22-36-31,19,VR_target_stimuli/s50_1x_4.53_518_BC.png,1000,1x,4.53,4,3210,999,meters,jsons/MX_seq33_1_VE1000.json,231890,391018,23,Woman
19,552800,final-intermixed-textured,v2,jsons/MX_seq33_1_VE1000.json,http://54.235.29.9/FacialAge/BNav_EC2/DepthDuration/MX_fS_VE_MTurk/MX_fS_HTML.html#313,313,1366,645,1366,768,1-8-2024,22-36-31,20,VR_target_stimuli/s53_0.75x_1.6_403.png,1000,0.75x,1.6,2,3225,1000,meters,jsons/MX_seq33_1_VE1000.json,231890,391018,23,Woman
20,552800,final-intermixed-textured,v2,jsons/MX_seq33_1_VE1000.json,http://54.235.29.9/FacialAge/BNav_EC2/DepthDuration/MX_fS_VE_MTurk/MX_fS_HTML.html#313,313,1366,645,1366,768,1-8-2024,22-36-31,21,VR_target_stimuli/s38_1x_3.55_353_BC.png,1000,1x,3.55,4,3703,995,meters,jsons/MX_seq33_1_VE1000.json,231890,391018,23,Woman
21,552800,final-intermixed-textured,v2,jsons/MX_seq33_1_VE1000.json,http://54.235.29.9/FacialAge/BNav_EC2/DepthDuration/MX_fS_VE_MTurk/MX_fS_HTML.html#313,313,1366,645,1366,768,1-8-2024,22-36-31,22,VR_target_stimuli/s9_1.3x_1.2_276_BC.png,1000,1.3x,1.2,2,3141,999,meters,jsons/MX_seq33_1_VE1000.json,231890,391018,23,Woman
22,552800,final-intermixed-textured,v2,jsons/MX_seq33_1_VE1000.json,http://54.235.29.9/FacialAge/BNav_EC2/DepthDuration/MX_fS_VE_MTurk/MX_fS_HTML.html#313,313,1366,645,1366,768,1-8-2024,22-36-31,23,VR_target_stimuli/s44_0.75x_4.4_314_BC.png,1000,0.75x,4.4,6,3949,995,meters,jsons/MX_seq33_1_VE1000.json,231890,391018,23,Woman
23,552800,final-intermixed-textured,v2,jsons/MX_seq33_1_VE1000.json,http://54.235.29.9/FacialAge/BNav_EC2/DepthDuration/MX_fS_VE_MTurk/MX_fS_HTML.html#313,313,1366,645,1366,768,1-8-2024,22-36-31,24,VR_target_stimuli/s3_1.3x_5_390.png,1000,1.3x,5.0,6,3141,991,meters,jsons/MX_seq33_1_VE1000.json,231890,391018,23,Woman
24,552800,final-intermixed-textured,v2,jsons/MX_seq33_1_VE1000.json,http://54.235.29.9/FacialAge/BNav_EC2/DepthDuration/MX_fS_VE_MTurk/MX_fS_HTML.html#313,313,1366,645,1366,768,1-8-2024,22-36-31,25,VR_target_stimuli/s1_1x_1.7_262.png,1000,1x,1.7,4,4154,1010,meters,jsons/MX_seq33_1_VE1000.json,231890,391018,23,Woman
25,552800,final-intermixed-textured,v2,jsons/MX_seq33_1_VE1000.json,http://54.235.29.9/FacialAge/BNav_EC2/DepthDuration/MX_fS_VE_MTurk/MX_fS_HTML.html#313,313,1366,645,1366,768,1-8-2024,22-36-31,26,catch_stimuli/c2.png,1000,,,0,2875,997,meters,jsons/MX_seq33_1_VE1000.json,231890,391018,23,Woman
26,552800,final-intermixed-textured,v2,jsons/MX_seq33_1_VE1000.json,http://54.235.29.9/FacialAge/BNav_EC2/DepthDuration/MX_fS_VE_MTurk/MX_fS_HTML.html#313,313,1366,645,1366,768,1-8-2024,22-36-31,27,VR_target_stimuli/s11_0.75x_5_359.png,1000,0.75x,5.0,6,3813,1000,meters,jsons/MX_seq33_1_VE1000.json,231890,391018,23,Woman
27,552800,final-intermixed-textured,v2,jsons/MX_seq33_1_VE1000.json,http://54.235.29.9/FacialAge/BNav_EC2/DepthDuration/MX_fS_VE_MTurk/MX_fS_HTML.html#313,313,1366,645,1366,768,1-8-2024,22-36-31,28,VR_target_stimuli/s2_0.75x_2.7_384.png,1000,0.75x,2.7,4,2985,1001,meters,jsons/MX_seq33_1_VE1000.json,231890,391018,23,Woman
28,552800,final-intermixed-textured,v2,jsons/MX_seq33_1_VE1000.json,http://54.235.29.9/FacialAge/BNav_EC2/DepthDuration/MX_fS_VE_MTurk/MX_fS_HTML.html#313,313,1366,645,1366,768,1-8-2024,22-36-31,29,VR_target_stimuli/s6_1.3x_2.1_298_BC.png,1000,1.3x,2.1,4,3047,993,meters,jsons/MX_seq33_1_VE1000.json,231890,391018,23,Woman
29,552800,final-intermixed-textured,v2,jsons/MX_seq33_1_VE1000.json,http://54.235.29.9/FacialAge/BNav_EC2/DepthDuration/MX_fS_VE_MTurk/MX_fS_HTML.html#313,313,1366,645,1366,768,1-8-2024,22-36-31,30,VR_target_stimuli/s0_1x_2.6_351_BC.png,1000,1x,2.6,4,2972,998,meters,jsons/MX_seq33_1_VE1000.json,231890,391018,23,Woman
30,552800,final-intermixed-textured,v2,jsons/MX_seq33_1_VE1000.json,http://54.235.29.9/FacialAge/BNav_EC2/DepthDuration/MX_fS_VE_MTurk/MX_fS_HTML.html#313,313,1366,645,1366,768,1-8-2024,22-36-31,31,VR_target_stimuli/s34_0.75x_2.8_269_BC.png,1000,0.75x,2.8,5,3051,988,meters,jsons/MX_seq33_1_VE1000.json,231890,391018,23,Woman
31,552800,final-intermixed-textured,v2,jsons/MX_seq33_1_VE1000.json,http://54.235.29.9/FacialAge/BNav_EC2/DepthDuration/MX_fS_VE_MTurk/MX_fS_HTML.html#313,313,1366,645,1366,768,1-8-2024,22-36-31,32,VR_target_stimuli/s13_1x_2.4_310.png,1000,1x,2.4,4,2969,998,meters,jsons/MX_seq33_1_VE1000.json,231890,391018,23,Woman
32,552800,final-intermixed-textured,v2,jsons/MX_seq33_1_VE1000.json,http://54.235.29.9/FacialAge/BNav_EC2/DepthDuration/MX_fS_VE_MTurk/MX_fS_HTML.html#313,313,1366,645,1366,768,1-8-2024,22-36-31,33,VR_target_stimuli/s14_1.3x_3.83_359.png,1000,1.3x,3.83,4,3105,1012,meters,jsons/MX_seq33_1_VE1000.json,231890,391018,23,Woman
33,552800,final-intermixed-textured,v2,jsons/MX_seq33_1_VE1000.json,http://54.235.29.9/FacialAge/BNav_EC2/DepthDuration/MX_fS_VE_MTurk/MX_fS_HTML.html#313,313,1366,645,1366,768,1-8-2024,22-36-31,34,catch_stimuli/c3.png,1000,,,0,2857,1001,meters,jsons/MX_seq33_1_VE1000.json,231890,391018,23,Woman
34,552800,final-intermixed-textured,v2,jsons/MX_seq33_1_VE1000.json,http://54.235.29.9/FacialAge/BNav_EC2/DepthDuration/MX_fS_VE_MTurk/MX_fS_HTML.html#313,313,1366,645,1366,768,1-8-2024,22-36-31,35,VR_target_stimuli/s47_1x_3.45_370_BC.png,1000,1x,3.45,4,3015,1011,meters,jsons/MX_seq33_1_VE1000.json,231890,391018,23,Woman
35,552800,final-intermixed-textured,v2,jsons/MX_seq33_1_VE1000.json,http://54.235.29.9/FacialAge/BNav_EC2/DepthDuration/MX_fS_VE_MTurk/MX_fS_HTML.html#313,313,1366,645,1366,768,1-8-2024,22-36-31,36,VR_target_stimuli/s29_0.75x_1.3_246_BC.png,1000,0.75x,1.3,3,3568,997,meters,jsons/MX_seq33_1_VE1000.json,231890,391018,23,Woman
36,552800,final-intermixed-textured,v2,jsons/MX_seq33_1_VE1000.json,http://54.235.29.9/FacialAge/BNav_EC2/DepthDuration/MX_fS_VE_MTurk/MX_fS_HTML.html#313,313,1366,645,1366,768,1-8-2024,22-36-31,37,VR_target_stimuli/s28_1.3x_3.2_365_BC.png,1000,1.3x,3.2,5,3006,1008,meters,jsons/MX_seq33_1_VE1000.json,231890,391018,23,Woman
37,552800,final-intermixed-textured,v2,jsons/MX_seq33_1_VE1000.json,http://54.235.29.9/FacialAge/BNav_EC2/DepthDuration/MX_fS_VE_MTurk/MX_fS_HTML.html#313,313,1366,645,1366,768,1-8-2024,22-36-31,38,VR_target_stimuli/s48_1.3x_2.55_255.png,1000,1.3x,2.55,5,3043,1002,meters,jsons/MX_seq33_1_VE1000.json,231890,391018,23,Woman
38,552800,final-intermixed-textured,v2,jsons/MX_seq33_1_VE1000.json,http://54.235.29.9/FacialAge/BNav_EC2/DepthDuration/MX_fS_VE_MTurk/MX_fS_HTML.html#313,313,1366,645,1366,768,1-8-2024,22-36-31,39,VR_target_stimuli/s19_1x_1.21_263.png,1000,1x,1.21,3,3104,999,meters,jsons/MX_seq33_1_VE1000.json,231890,391018,23,Woman
39,552800,final-intermixed-textured,v2,jsons/MX_seq33_1_VE1000.json,http://54.235.29.9/FacialAge/BNav_EC2/DepthDuration/MX_fS_VE_MTurk/MX_fS_HTML.html#313,313,1366,645,1366,768,1-8-2024,22-36-31,40,VR_target_stimuli/s21_0.75x_4.22_374.png,1000,0.75x,4.22,6,3369,999,meters,jsons/MX_seq33_1_VE1000.json,231890,391018,23,Woman
40,552800,final-intermixed-textured,v2,jsons/MX_seq33_1_VE1000.json,http://54.235.29.9/FacialAge/BNav_EC2/DepthDuration/MX_fS_VE_MTurk/MX_fS_HTML.html#313,313,1366,645,1366,768,1-8-2024,22-36-31,41,VR_target_stimuli/s8_1x_3.1_332.png,1000,1x,3.1,5,2901,996,meters,jsons/MX_seq33_1_VE1000.json,231890,391018,23,Woman
41,552800,final-intermixed-textured,v2,jsons/MX_seq33_1_VE1000.json,http://54.235.29.9/FacialAge/BNav_EC2/DepthDuration/MX_fS_VE_MTurk/MX_fS_HTML.html#313,313,1366,645,1366,768,1-8-2024,22-36-31,42,VR_target_stimuli/s27_1.3x_1.76_250_BC.png,1000,1.3x,1.76,4,2925,1009,meters,jsons/MX_seq33_1_VE1000.json,231890,391018,23,Woman
42,552800,final-intermixed-textured,v2,jsons/MX_seq33_1_VE1000.json,http://54.235.29.9/FacialAge/BNav_EC2/DepthDuration/MX_fS_VE_MTurk/MX_fS_HTML.html#313,313,1366,645,1366,768,1-8-2024,22-36-31,43,VR_target_stimuli/s15_0.75x_4.2_388.png,1000,0.75x,4.2,5,2984,1003,meters,jsons/MX_seq33_1_VE1000.json,231890,391018,23,Woman
43,552800,final-intermixed-textured,v2,jsons/MX_seq33_1_VE1000.json,http://54.235.29.9/FacialAge/BNav_EC2/DepthDuration/MX_fS_VE_MTurk/MX_fS_HTML.html#313,313,1366,645,1366,768,1-8-2024,22-36-31,44,VR_target_stimuli/s4_1.3x_1.4_328.png,1000,1.3x,1.4,2,3336,991,meters,jsons/MX_seq33_1_VE1000.json,231890,391018,23,Woman
44,552800,final-intermixed-textured,v2,jsons/MX_seq33_1_VE1000.json,http://54.235.29.9/FacialAge/BNav_EC2/DepthDuration/MX_fS_VE_MTurk/MX_fS_HTML.html#313,313,1366,645,1366,768,1-8-2024,22-36-31,45,catch_stimuli/c4.png,1000,,,0,2768,998,meters,jsons/MX_seq33_1_VE1000.json,231890,391018,23,Woman
45,552800,final-intermixed-textured,v2,jsons/MX_seq33_1_VE1000.json,http://54.235.29.9/FacialAge/BNav_EC2/DepthDuration/MX_fS_VE_MTurk/MX_fS_HTML.html#313,313,1366,645,1366,768,1-8-2024,22-36-31,46,VR_target_stimuli/s35_1x_2_331_BC.png,1000,1x,2.0,3,4333,1000,meters,jsons/MX_seq33_1_VE1000.json,231890,391018,23,Woman
46,552800,final-intermixed-textured,v2,jsons/MX_seq33_1_VE1000.json,http://54.235.29.9/FacialAge/BNav_EC2/DepthDuration/MX_fS_VE_MTurk/MX_fS_HTML.html#313,313,1366,645,1366,768,1-8-2024,22-36-31,47,VR_target_stimuli/s49_0.75x_4.67_328_BC.png,1000,0.75x,4.67,5,5310,987,meters,jsons/MX_seq33_1_VE1000.json,231890,391018,23,Woman
47,552800,final-intermixed-textured,v2,jsons/MX_seq33_1_VE1000.json,http://54.235.29.9/FacialAge/BNav_EC2/DepthDuration/MX_fS_VE_MTurk/MX_fS_HTML.html#313,313,1366,645,1366,768,1-8-2024,22-36-31,48,VR_target_stimuli/s7_0.75x_1.5_253.png,1000,0.75x,1.5,4,2906,1006,meters,jsons/MX_seq33_1_VE1000.json,231890,391018,23,Woman
48,552800,final-intermixed-textured,v2,jsons/MX_seq33_1_VE1000.json,http://54.235.29.9/FacialAge/BNav_EC2/DepthDuration/MX_fS_VE_MTurk/MX_fS_HTML.html#313,313,1366,645,1366,768,1-8-2024,22-36-31,49,VR_target_stimuli/s20_1.3x_4.99_412_BC.png,1000,1.3x,4.99,5,3200,991,meters,jsons/MX_seq33_1_VE1000.json,231890,391018,23,Woman
49,552800,final-intermixed-textured,v2,jsons/MX_seq33_1_VE1000.json,http://54.235.29.9/FacialAge/BNav_EC2/DepthDuration/MX_fS_VE_MTurk/MX_fS_HTML.html#313,313,1366,645,1366,768,1-8-2024,22-36-31,50,VR_target_stimuli/s31_1x_4.96_333_BC.png,1000,1x,4.96,4,3519,998,meters,jsons/MX_seq33_1_VE1000.json,231890,391018,23,Woman
50,552800,final-intermixed-textured,v2,jsons/MX_seq33_1_VE1000.json,http://54.235.29.9/FacialAge/BNav_EC2/DepthDuration/MX_fS_VE_MTurk/MX_fS_HTML.html#313,313,1366,645,1366,768,1-8-2024,22-36-31,51,VR_target_stimuli/s33_1.3x_3.1_378.png,1000,1.3x,3.1,5,2960,1006,meters,jsons/MX_seq33_1_VE1000.json,231890,391018,23,Woman
51,552800,final-intermixed-textured,v2,jsons/MX_seq33_1_VE1000.json,http://54.235.29.9/FacialAge/BNav_EC2/DepthDuration/MX_fS_VE_MTurk/MX_fS_HTML.html#313,313,1366,645,1366,768,1-8-2024,22-36-31,52,VR_target_stimuli/s52_0.75x_3.2_270_BC.png,1000,0.75x,3.2,5,2984,1000,meters,jsons/MX_seq33_1_VE1000.json,231890,391018,23,Woman
52,552800,final-intermixed-textured,v2,jsons/MX_seq33_1_VE1000.json,http://54.235.29.9/FacialAge/BNav_EC2/DepthDuration/MX_fS_VE_MTurk/MX_fS_HTML.html#313,313,1366,645,1366,768,1-8-2024,22-36-31,53,catch_stimuli/c5.png,1000,,,0,3119,1005,meters,jsons/MX_seq33_1_VE1000.json,231890,391018,23,Woman
53,552800,final-intermixed-textured,v2,jsons/MX_seq33_1_VE1000.json,http://54.235.29.9/FacialAge/BNav_EC2/DepthDuration/MX_fS_VE_MTurk/MX_fS_HTML.html#313,313,1366,645,1366,768,1-8-2024,22-36-31,54,VR_target_stimuli/s32_1x_1.5_218.png,1000,1x,1.5,4,4600,998,meters,jsons/MX_seq33_1_VE1000.json,231890,391018,23,Woman
54,552800,final-intermixed-textured,v2,jsons/MX_seq33_1_VE1000.json,http://54.235.29.9/FacialAge/BNav_EC2/DepthDuration/MX_fS_VE_MTurk/MX_fS_HTML.html#313,313,1366,645,1366,768,1-8-2024,22-36-31,55,VR_target_stimuli/s18_0.75x_2.25_341_BC.png,1000,0.75x,2.25,4,5027,1007,meters,jsons/MX_seq33_1_VE1000.json,231890,391018,23,Woman
55,552800,final-intermixed-textured,v2,jsons/MX_seq33_1_VE1000.json,http://54.235.29.9/FacialAge/BNav_EC2/DepthDuration/MX_fS_VE_MTurk/MX_fS_HTML.html#313,313,1366,645,1366,768,1-8-2024,22-36-31,56,VR_target_stimuli/s39_1.3x_1_208.png,1000,1.3x,1.0,2,3457,1011,meters,jsons/MX_seq33_1_VE1000.json,231890,391018,23,Woman
56,552800,final-intermixed-textured,v2,jsons/MX_seq33_1_VE1000.json,http://54.235.29.9/FacialAge/BNav_EC2/DepthDuration/MX_fS_VE_MTurk/MX_fS_HTML.html#313,313,1366,645,1366,768,1-8-2024,22-36-31,57,VR_target_stimuli/s51_1x_3.64_461.png,1000,1x,3.64,4,3144,1008,meters,jsons/MX_seq33_1_VE1000.json,231890,391018,23,Woman
57,552800,final-intermixed-textured,v2,jsons/MX_seq33_1_VE1000.json,http://54.235.29.9/FacialAge/BNav_EC2/DepthDuration/MX_fS_VE_MTurk/MX_fS_HTML.html#313,313,1366,645,1366,768,1-8-2024,22-36-31,58,VR_target_stimuli/s43_1x_2.2_354_BC.png,1000,1x,2.2,4,2852,1014,meters,jsons/MX_seq33_1_VE1000.json,231890,391018,23,Woman
58,552800,final-intermixed-textured,v2,jsons/MX_seq33_1_VE1000.json,http://54.235.29.9/FacialAge/BNav_EC2/DepthDuration/MX_fS_VE_MTurk/MX_fS_HTML.html#313,313,1366,645,1366,768,1-8-2024,22-36-31,59,VR_target_stimuli/s24_0.75x_3.3_344.png,1000,0.75x,3.3,5,3539,1008,meters,jsons/MX_seq33_1_VE1000.json,231890,391018,23,Woman
59,552800,final-intermixed-textured,v2,jsons/MX_seq33_1_VE1000.json,http://54.235.29.9/FacialAge/BNav_EC2/DepthDuration/MX_fS_VE_MTurk/MX_fS_HTML.html#313,313,1366,645,1366,768,1-8-2024,22-36-31,60,VR_target_stimuli/s10_1.3x_2.7_325_BC.png,1000,1.3x,2.7,5,3064,999,meters,jsons/MX_seq33_1_VE1000.json,231890,391018,23,Woman
