,subjID,experimentName,versionName,sequenceName,url,selected_row,windowWidth,windowHeight,screenWidth,screenHeight,startDate,startTime,trial,stimulus,duration,scale,actual_depth,depth_estimate,trial_RT,log_sceneDuration,unitSelection,seq_filepath,experimentTime,totalTime,age,gender
0,553094,final-intermixed-textured,v2,jsons/MX_seq7_2_VE1000.json,http://54.235.29.9/FacialAge/BNav_EC2/DepthDuration/MX_fS_VE_MTurk/MX_fS_HTML.html#291,291,1144,750,1152,864,1-8-2024,15-46-10,1,VR_target_stimuli/s13_1x_2.4_310_BC.png,1000,1x,2.4,4,5528,1007,meters,jsons/MX_seq7_2_VE1000.json,351634,1061695,29,Woman
1,553094,final-intermixed-textured,v2,jsons/MX_seq7_2_VE1000.json,http://54.235.29.9/FacialAge/BNav_EC2/DepthDuration/MX_fS_VE_MTurk/MX_fS_HTML.html#291,291,1144,750,1152,864,1-8-2024,15-46-10,2,VR_target_stimuli/s14_1.3x_3.83_359.png,1000,1.3x,3.83,0,4428,995,meters,jsons/MX_seq7_2_VE1000.json,351634,1061695,29,Woman
2,553094,final-intermixed-textured,v2,jsons/MX_seq7_2_VE1000.json,http://54.235.29.9/FacialAge/BNav_EC2/DepthDuration/MX_fS_VE_MTurk/MX_fS_HTML.html#291,291,1144,750,1152,864,1-8-2024,15-46-10,3,VR_target_stimuli/s47_0.75x_3.45_366_BC.png,1000,0.75x,3.45,3,13901,1001,meters,jsons/MX_seq7_2_VE1000.json,351634,1061695,29,Woman
3,553094,final-intermixed-textured,v2,jsons/MX_seq7_2_VE1000.json,http://54.235.29.9/FacialAge/BNav_EC2/DepthDuration/MX_fS_VE_MTurk/MX_fS_HTML.html#291,291,1144,750,1152,864,1-8-2024,15-46-10,4,VR_target_stimuli/s29_1.3x_1.3_253_BC.png,1000,1.3x,1.3,0,4005,1000,meters,jsons/MX_seq7_2_VE1000.json,351634,1061695,29,Woman
4,553094,final-intermixed-textured,v2,jsons/MX_seq7_2_VE1000.json,http://54.235.29.9/FacialAge/BNav_EC2/DepthDuration/MX_fS_VE_MTurk/MX_fS_HTML.html#291,291,1144,750,1152,864,1-8-2024,15-46-10,5,VR_target_stimuli/s28_1x_3.2_362.png,1000,1x,3.2,2,6813,1000,meters,jsons/MX_seq7_2_VE1000.json,351634,1061695,29,Woman
5,553094,final-intermixed-textured,v2,jsons/MX_seq7_2_VE1000.json,http://54.235.29.9/FacialAge/BNav_EC2/DepthDuration/MX_fS_VE_MTurk/MX_fS_HTML.html#291,291,1144,750,1152,864,1-8-2024,15-46-10,6,VR_target_stimuli/s48_0.75x_2.55_243.png,1000,0.75x,2.55,2,6221,985,meters,jsons/MX_seq7_2_VE1000.json,351634,1061695,29,Woman
6,553094,final-intermixed-textured,v2,jsons/MX_seq7_2_VE1000.json,http://54.235.29.9/FacialAge/BNav_EC2/DepthDuration/MX_fS_VE_MTurk/MX_fS_HTML.html#291,291,1144,750,1152,864,1-8-2024,15-46-10,7,catch_stimuli/c0.png,1000,,,0,3959,1002,meters,jsons/MX_seq7_2_VE1000.json,351634,1061695,29,Woman
7,553094,final-intermixed-textured,v2,jsons/MX_seq7_2_VE1000.json,http://54.235.29.9/FacialAge/BNav_EC2/DepthDuration/MX_fS_VE_MTurk/MX_fS_HTML.html#291,291,1144,750,1152,864,1-8-2024,15-46-10,8,VR_target_stimuli/s19_0.75x_1.21_257_BC.png,1000,0.75x,1.21,1,4134,1011,meters,jsons/MX_seq7_2_VE1000.json,351634,1061695,29,Woman
8,553094,final-intermixed-textured,v2,jsons/MX_seq7_2_VE1000.json,http://54.235.29.9/FacialAge/BNav_EC2/DepthDuration/MX_fS_VE_MTurk/MX_fS_HTML.html#291,291,1144,750,1152,864,1-8-2024,15-46-10,9,VR_target_stimuli/s21_1.3x_4.22_384_BC.png,1000,1.3x,4.22,2,4336,1002,meters,jsons/MX_seq7_2_VE1000.json,351634,1061695,29,Woman
9,553094,final-intermixed-textured,v2,jsons/MX_seq7_2_VE1000.json,http://54.235.29.9/FacialAge/BNav_EC2/DepthDuration/MX_fS_VE_MTurk/MX_fS_HTML.html#291,291,1144,750,1152,864,1-8-2024,15-46-10,10,VR_target_stimuli/s8_1x_3.1_332_BC.png,1000,1x,3.1,3,5475,1001,meters,jsons/MX_seq7_2_VE1000.json,351634,1061695,29,Woman
10,553094,final-intermixed-textured,v2,jsons/MX_seq7_2_VE1000.json,http://54.235.29.9/FacialAge/BNav_EC2/DepthDuration/MX_fS_VE_MTurk/MX_fS_HTML.html#291,291,1144,750,1152,864,1-8-2024,15-46-10,11,VR_target_stimuli/s27_1.3x_1.76_250.png,1000,1.3x,1.76,3,3628,1015,meters,jsons/MX_seq7_2_VE1000.json,351634,1061695,29,Woman
11,553094,final-intermixed-textured,v2,jsons/MX_seq7_2_VE1000.json,http://54.235.29.9/FacialAge/BNav_EC2/DepthDuration/MX_fS_VE_MTurk/MX_fS_HTML.html#291,291,1144,750,1152,864,1-8-2024,15-46-10,12,VR_target_stimuli/s15_0.75x_4.2_388.png,1000,0.75x,4.2,4,3634,1002,meters,jsons/MX_seq7_2_VE1000.json,351634,1061695,29,Woman
12,553094,final-intermixed-textured,v2,jsons/MX_seq7_2_VE1000.json,http://54.235.29.9/FacialAge/BNav_EC2/DepthDuration/MX_fS_VE_MTurk/MX_fS_HTML.html#291,291,1144,750,1152,864,1-8-2024,15-46-10,13,VR_target_stimuli/s4_1x_1.4_313.png,1000,1x,1.4,2,3989,1002,meters,jsons/MX_seq7_2_VE1000.json,351634,1061695,29,Woman
13,553094,final-intermixed-textured,v2,jsons/MX_seq7_2_VE1000.json,http://54.235.29.9/FacialAge/BNav_EC2/DepthDuration/MX_fS_VE_MTurk/MX_fS_HTML.html#291,291,1144,750,1152,864,1-8-2024,15-46-10,14,VR_target_stimuli/s35_0.75x_2_323.png,1000,0.75x,2.0,2,3579,1001,meters,jsons/MX_seq7_2_VE1000.json,351634,1061695,29,Woman
14,553094,final-intermixed-textured,v2,jsons/MX_seq7_2_VE1000.json,http://54.235.29.9/FacialAge/BNav_EC2/DepthDuration/MX_fS_VE_MTurk/MX_fS_HTML.html#291,291,1144,750,1152,864,1-8-2024,15-46-10,15,VR_target_stimuli/s49_1.3x_4.67_354.png,1000,1.3x,4.67,3,6094,1006,meters,jsons/MX_seq7_2_VE1000.json,351634,1061695,29,Woman
15,553094,final-intermixed-textured,v2,jsons/MX_seq7_2_VE1000.json,http://54.235.29.9/FacialAge/BNav_EC2/DepthDuration/MX_fS_VE_MTurk/MX_fS_HTML.html#291,291,1144,750,1152,864,1-8-2024,15-46-10,16,VR_target_stimuli/s7_1x_1.5_255_BC.png,1000,1x,1.5,1,3357,987,meters,jsons/MX_seq7_2_VE1000.json,351634,1061695,29,Woman
16,553094,final-intermixed-textured,v2,jsons/MX_seq7_2_VE1000.json,http://54.235.29.9/FacialAge/BNav_EC2/DepthDuration/MX_fS_VE_MTurk/MX_fS_HTML.html#291,291,1144,750,1152,864,1-8-2024,15-46-10,17,catch_stimuli/c1.png,1000,,,0,4758,986,meters,jsons/MX_seq7_2_VE1000.json,351634,1061695,29,Woman
17,553094,final-intermixed-textured,v2,jsons/MX_seq7_2_VE1000.json,http://54.235.29.9/FacialAge/BNav_EC2/DepthDuration/MX_fS_VE_MTurk/MX_fS_HTML.html#291,291,1144,750,1152,864,1-8-2024,15-46-10,18,VR_target_stimuli/s20_1x_4.99_398.png,1000,1x,4.99,2,3669,1001,meters,jsons/MX_seq7_2_VE1000.json,351634,1061695,29,Woman
18,553094,final-intermixed-textured,v2,jsons/MX_seq7_2_VE1000.json,http://54.235.29.9/FacialAge/BNav_EC2/DepthDuration/MX_fS_VE_MTurk/MX_fS_HTML.html#291,291,1144,750,1152,864,1-8-2024,15-46-10,19,VR_target_stimuli/s31_0.75x_4.96_329_BC.png,1000,0.75x,4.96,1,5804,1003,meters,jsons/MX_seq7_2_VE1000.json,351634,1061695,29,Woman
19,553094,final-intermixed-textured,v2,jsons/MX_seq7_2_VE1000.json,http://54.235.29.9/FacialAge/BNav_EC2/DepthDuration/MX_fS_VE_MTurk/MX_fS_HTML.html#291,291,1144,750,1152,864,1-8-2024,15-46-10,20,VR_target_stimuli/s33_1.3x_3.1_378_BC.png,1000,1.3x,3.1,2,3908,992,meters,jsons/MX_seq7_2_VE1000.json,351634,1061695,29,Woman
20,553094,final-intermixed-textured,v2,jsons/MX_seq7_2_VE1000.json,http://54.235.29.9/FacialAge/BNav_EC2/DepthDuration/MX_fS_VE_MTurk/MX_fS_HTML.html#291,291,1144,750,1152,864,1-8-2024,15-46-10,21,VR_target_stimuli/s52_0.75x_3.2_270_BC.png,1000,0.75x,3.2,2,4214,1002,meters,jsons/MX_seq7_2_VE1000.json,351634,1061695,29,Woman
21,553094,final-intermixed-textured,v2,jsons/MX_seq7_2_VE1000.json,http://54.235.29.9/FacialAge/BNav_EC2/DepthDuration/MX_fS_VE_MTurk/MX_fS_HTML.html#291,291,1144,750,1152,864,1-8-2024,15-46-10,22,VR_target_stimuli/s32_1x_1.5_218_BC.png,1000,1x,1.5,1,2863,1002,meters,jsons/MX_seq7_2_VE1000.json,351634,1061695,29,Woman
22,553094,final-intermixed-textured,v2,jsons/MX_seq7_2_VE1000.json,http://54.235.29.9/FacialAge/BNav_EC2/DepthDuration/MX_fS_VE_MTurk/MX_fS_HTML.html#291,291,1144,750,1152,864,1-8-2024,15-46-10,23,VR_target_stimuli/s18_1.3x_2.25_368.png,1000,1.3x,2.25,1,3228,980,meters,jsons/MX_seq7_2_VE1000.json,351634,1061695,29,Woman
23,553094,final-intermixed-textured,v2,jsons/MX_seq7_2_VE1000.json,http://54.235.29.9/FacialAge/BNav_EC2/DepthDuration/MX_fS_VE_MTurk/MX_fS_HTML.html#291,291,1144,750,1152,864,1-8-2024,15-46-10,24,VR_target_stimuli/s39_1x_1_207.png,1000,1x,1.0,1,3438,1001,meters,jsons/MX_seq7_2_VE1000.json,351634,1061695,29,Woman
24,553094,final-intermixed-textured,v2,jsons/MX_seq7_2_VE1000.json,http://54.235.29.9/FacialAge/BNav_EC2/DepthDuration/MX_fS_VE_MTurk/MX_fS_HTML.html#291,291,1144,750,1152,864,1-8-2024,15-46-10,25,VR_target_stimuli/s51_0.75x_3.64_460.png,1000,0.75x,3.64,1,2667,1002,meters,jsons/MX_seq7_2_VE1000.json,351634,1061695,29,Woman
25,553094,final-intermixed-textured,v2,jsons/MX_seq7_2_VE1000.json,http://54.235.29.9/FacialAge/BNav_EC2/DepthDuration/MX_fS_VE_MTurk/MX_fS_HTML.html#291,291,1144,750,1152,864,1-8-2024,15-46-10,26,catch_stimuli/c2.png,1000,,,0,3496,995,meters,jsons/MX_seq7_2_VE1000.json,351634,1061695,29,Woman
26,553094,final-intermixed-textured,v2,jsons/MX_seq7_2_VE1000.json,http://54.235.29.9/FacialAge/BNav_EC2/DepthDuration/MX_fS_VE_MTurk/MX_fS_HTML.html#291,291,1144,750,1152,864,1-8-2024,15-46-10,27,VR_target_stimuli/s43_1.3x_2.2_363_BC.png,1000,1.3x,2.2,2,3104,1004,meters,jsons/MX_seq7_2_VE1000.json,351634,1061695,29,Woman
27,553094,final-intermixed-textured,v2,jsons/MX_seq7_2_VE1000.json,http://54.235.29.9/FacialAge/BNav_EC2/DepthDuration/MX_fS_VE_MTurk/MX_fS_HTML.html#291,291,1144,750,1152,864,1-8-2024,15-46-10,28,VR_target_stimuli/s24_1.3x_3.3_352_BC.png,1000,1.3x,3.3,2,3370,1002,meters,jsons/MX_seq7_2_VE1000.json,351634,1061695,29,Woman
28,553094,final-intermixed-textured,v2,jsons/MX_seq7_2_VE1000.json,http://54.235.29.9/FacialAge/BNav_EC2/DepthDuration/MX_fS_VE_MTurk/MX_fS_HTML.html#291,291,1144,750,1152,864,1-8-2024,15-46-10,29,VR_target_stimuli/s10_1x_2.7_324_BC.png,1000,1x,2.7,1,3468,1002,meters,jsons/MX_seq7_2_VE1000.json,351634,1061695,29,Woman
29,553094,final-intermixed-textured,v2,jsons/MX_seq7_2_VE1000.json,http://54.235.29.9/FacialAge/BNav_EC2/DepthDuration/MX_fS_VE_MTurk/MX_fS_HTML.html#291,291,1144,750,1152,864,1-8-2024,15-46-10,30,VR_target_stimuli/s36_0.75x_4.1_407_BC.png,1000,0.75x,4.1,2,2880,1001,meters,jsons/MX_seq7_2_VE1000.json,351634,1061695,29,Woman
30,553094,final-intermixed-textured,v2,jsons/MX_seq7_2_VE1000.json,http://54.235.29.9/FacialAge/BNav_EC2/DepthDuration/MX_fS_VE_MTurk/MX_fS_HTML.html#291,291,1144,750,1152,864,1-8-2024,15-46-10,31,VR_target_stimuli/s40_1.3x_1.2_332.png,1000,1.3x,1.2,1,3198,1001,meters,jsons/MX_seq7_2_VE1000.json,351634,1061695,29,Woman
31,553094,final-intermixed-textured,v2,jsons/MX_seq7_2_VE1000.json,http://54.235.29.9/FacialAge/BNav_EC2/DepthDuration/MX_fS_VE_MTurk/MX_fS_HTML.html#291,291,1144,750,1152,864,1-8-2024,15-46-10,32,VR_target_stimuli/s41_0.75x_2.1_281.png,1000,0.75x,2.1,1,4471,1001,meters,jsons/MX_seq7_2_VE1000.json,351634,1061695,29,Woman
32,553094,final-intermixed-textured,v2,jsons/MX_seq7_2_VE1000.json,http://54.235.29.9/FacialAge/BNav_EC2/DepthDuration/MX_fS_VE_MTurk/MX_fS_HTML.html#291,291,1144,750,1152,864,1-8-2024,15-46-10,33,VR_target_stimuli/s45_1x_3.5_368.png,1000,1x,3.5,1,3969,1002,meters,jsons/MX_seq7_2_VE1000.json,351634,1061695,29,Woman
33,553094,final-intermixed-textured,v2,jsons/MX_seq7_2_VE1000.json,http://54.235.29.9/FacialAge/BNav_EC2/DepthDuration/MX_fS_VE_MTurk/MX_fS_HTML.html#291,291,1144,750,1152,864,1-8-2024,15-46-10,34,catch_stimuli/c3.png,1000,,,0,12833,1005,meters,jsons/MX_seq7_2_VE1000.json,351634,1061695,29,Woman
34,553094,final-intermixed-textured,v2,jsons/MX_seq7_2_VE1000.json,http://54.235.29.9/FacialAge/BNav_EC2/DepthDuration/MX_fS_VE_MTurk/MX_fS_HTML.html#291,291,1144,750,1152,864,1-8-2024,15-46-10,35,VR_target_stimuli/s23_0.75x_3.65_351_BC.png,1000,0.75x,3.65,1,4044,986,meters,jsons/MX_seq7_2_VE1000.json,351634,1061695,29,Woman
35,553094,final-intermixed-textured,v2,jsons/MX_seq7_2_VE1000.json,http://54.235.29.9/FacialAge/BNav_EC2/DepthDuration/MX_fS_VE_MTurk/MX_fS_HTML.html#291,291,1144,750,1152,864,1-8-2024,15-46-10,36,VR_target_stimuli/s26_1.3x_4_441.png,1000,1.3x,4.0,0,3810,1002,meters,jsons/MX_seq7_2_VE1000.json,351634,1061695,29,Woman
36,553094,final-intermixed-textured,v2,jsons/MX_seq7_2_VE1000.json,http://54.235.29.9/FacialAge/BNav_EC2/DepthDuration/MX_fS_VE_MTurk/MX_fS_HTML.html#291,291,1144,750,1152,864,1-8-2024,15-46-10,37,VR_target_stimuli/s12_1x_3.1_372.png,1000,1x,3.1,2,3385,987,meters,jsons/MX_seq7_2_VE1000.json,351634,1061695,29,Woman
37,553094,final-intermixed-textured,v2,jsons/MX_seq7_2_VE1000.json,http://54.235.29.9/FacialAge/BNav_EC2/DepthDuration/MX_fS_VE_MTurk/MX_fS_HTML.html#291,291,1144,750,1152,864,1-8-2024,15-46-10,38,VR_target_stimuli/s30_1x_2.3_334_BC.png,1000,1x,2.3,2,2975,1001,meters,jsons/MX_seq7_2_VE1000.json,351634,1061695,29,Woman
38,553094,final-intermixed-textured,v2,jsons/MX_seq7_2_VE1000.json,http://54.235.29.9/FacialAge/BNav_EC2/DepthDuration/MX_fS_VE_MTurk/MX_fS_HTML.html#291,291,1144,750,1152,864,1-8-2024,15-46-10,39,VR_target_stimuli/s16_0.75x_1_217.png,1000,0.75x,1.0,1,2873,994,meters,jsons/MX_seq7_2_VE1000.json,351634,1061695,29,Woman
39,553094,final-intermixed-textured,v2,jsons/MX_seq7_2_VE1000.json,http://54.235.29.9/FacialAge/BNav_EC2/DepthDuration/MX_fS_VE_MTurk/MX_fS_HTML.html#291,291,1144,750,1152,864,1-8-2024,15-46-10,40,VR_target_stimuli/s17_1.3x_1.8_300_BC.png,1000,1.3x,1.8,1,2639,1003,meters,jsons/MX_seq7_2_VE1000.json,351634,1061695,29,Woman
40,553094,final-intermixed-textured,v2,jsons/MX_seq7_2_VE1000.json,http://54.235.29.9/FacialAge/BNav_EC2/DepthDuration/MX_fS_VE_MTurk/MX_fS_HTML.html#291,291,1144,750,1152,864,1-8-2024,15-46-10,41,VR_target_stimuli/s5_0.75x_4_375.png,1000,0.75x,4.0,2,2670,1001,meters,jsons/MX_seq7_2_VE1000.json,351634,1061695,29,Woman
41,553094,final-intermixed-textured,v2,jsons/MX_seq7_2_VE1000.json,http://54.235.29.9/FacialAge/BNav_EC2/DepthDuration/MX_fS_VE_MTurk/MX_fS_HTML.html#291,291,1144,750,1152,864,1-8-2024,15-46-10,42,VR_target_stimuli/s37_1x_3.3_563.png,1000,1x,3.3,1,2904,1002,meters,jsons/MX_seq7_2_VE1000.json,351634,1061695,29,Woman
42,553094,final-intermixed-textured,v2,jsons/MX_seq7_2_VE1000.json,http://54.235.29.9/FacialAge/BNav_EC2/DepthDuration/MX_fS_VE_MTurk/MX_fS_HTML.html#291,291,1144,750,1152,864,1-8-2024,15-46-10,43,VR_target_stimuli/s46_1.3x_2.42_354.png,1000,1.3x,2.42,1,2631,1002,meters,jsons/MX_seq7_2_VE1000.json,351634,1061695,29,Woman
43,553094,final-intermixed-textured,v2,jsons/MX_seq7_2_VE1000.json,http://54.235.29.9/FacialAge/BNav_EC2/DepthDuration/MX_fS_VE_MTurk/MX_fS_HTML.html#291,291,1144,750,1152,864,1-8-2024,15-46-10,44,VR_target_stimuli/s22_1x_4.29_354_BC.png,1000,1x,4.29,2,2699,1002,meters,jsons/MX_seq7_2_VE1000.json,351634,1061695,29,Woman
44,553094,final-intermixed-textured,v2,jsons/MX_seq7_2_VE1000.json,http://54.235.29.9/FacialAge/BNav_EC2/DepthDuration/MX_fS_VE_MTurk/MX_fS_HTML.html#291,291,1144,750,1152,864,1-8-2024,15-46-10,45,catch_stimuli/c4.png,1000,,,0,3025,991,meters,jsons/MX_seq7_2_VE1000.json,351634,1061695,29,Woman
45,553094,final-intermixed-textured,v2,jsons/MX_seq7_2_VE1000.json,http://54.235.29.9/FacialAge/BNav_EC2/DepthDuration/MX_fS_VE_MTurk/MX_fS_HTML.html#291,291,1144,750,1152,864,1-8-2024,15-46-10,46,VR_target_stimuli/s42_0.75x_3.2_301_BC.png,1000,0.75x,3.2,1,3068,1011,meters,jsons/MX_seq7_2_VE1000.json,351634,1061695,29,Woman
46,553094,final-intermixed-textured,v2,jsons/MX_seq7_2_VE1000.json,http://54.235.29.9/FacialAge/BNav_EC2/DepthDuration/MX_fS_VE_MTurk/MX_fS_HTML.html#291,291,1144,750,1152,864,1-8-2024,15-46-10,47,VR_target_stimuli/s25_1.3x_1.4_299_BC.png,1000,1.3x,1.4,1,2604,1004,meters,jsons/MX_seq7_2_VE1000.json,351634,1061695,29,Woman
47,553094,final-intermixed-textured,v2,jsons/MX_seq7_2_VE1000.json,http://54.235.29.9/FacialAge/BNav_EC2/DepthDuration/MX_fS_VE_MTurk/MX_fS_HTML.html#291,291,1144,750,1152,864,1-8-2024,15-46-10,48,VR_target_stimuli/s50_1.3x_4.53_518.png,1000,1.3x,4.53,2,3358,1009,meters,jsons/MX_seq7_2_VE1000.json,351634,1061695,29,Woman
48,553094,final-intermixed-textured,v2,jsons/MX_seq7_2_VE1000.json,http://54.235.29.9/FacialAge/BNav_EC2/DepthDuration/MX_fS_VE_MTurk/MX_fS_HTML.html#291,291,1144,750,1152,864,1-8-2024,15-46-10,49,VR_target_stimuli/s53_1x_1.6_387_BC.png,1000,1x,1.6,1,2789,1002,meters,jsons/MX_seq7_2_VE1000.json,351634,1061695,29,Woman
49,553094,final-intermixed-textured,v2,jsons/MX_seq7_2_VE1000.json,http://54.235.29.9/FacialAge/BNav_EC2/DepthDuration/MX_fS_VE_MTurk/MX_fS_HTML.html#291,291,1144,750,1152,864,1-8-2024,15-46-10,50,VR_target_stimuli/s38_0.75x_3.55_346_BC.png,1000,0.75x,3.55,1,3141,985,meters,jsons/MX_seq7_2_VE1000.json,351634,1061695,29,Woman
50,553094,final-intermixed-textured,v2,jsons/MX_seq7_2_VE1000.json,http://54.235.29.9/FacialAge/BNav_EC2/DepthDuration/MX_fS_VE_MTurk/MX_fS_HTML.html#291,291,1144,750,1152,864,1-8-2024,15-46-10,51,VR_target_stimuli/s9_1x_1.2_263.png,1000,1x,1.2,1,84426,990,meters,jsons/MX_seq7_2_VE1000.json,351634,1061695,29,Woman
51,553094,final-intermixed-textured,v2,jsons/MX_seq7_2_VE1000.json,http://54.235.29.9/FacialAge/BNav_EC2/DepthDuration/MX_fS_VE_MTurk/MX_fS_HTML.html#291,291,1144,750,1152,864,1-8-2024,15-46-10,52,VR_target_stimuli/s44_1.3x_4.4_325_BC.png,1000,1.3x,4.4,0,3587,1002,meters,jsons/MX_seq7_2_VE1000.json,351634,1061695,29,Woman
52,553094,final-intermixed-textured,v2,jsons/MX_seq7_2_VE1000.json,http://54.235.29.9/FacialAge/BNav_EC2/DepthDuration/MX_fS_VE_MTurk/MX_fS_HTML.html#291,291,1144,750,1152,864,1-8-2024,15-46-10,53,catch_stimuli/c5.png,1000,,,0,2652,1004,meters,jsons/MX_seq7_2_VE1000.json,351634,1061695,29,Woman
53,553094,final-intermixed-textured,v2,jsons/MX_seq7_2_VE1000.json,http://54.235.29.9/FacialAge/BNav_EC2/DepthDuration/MX_fS_VE_MTurk/MX_fS_HTML.html#291,291,1144,750,1152,864,1-8-2024,15-46-10,54,VR_target_stimuli/s3_0.75x_5_381.png,1000,0.75x,5.0,2,3418,994,meters,jsons/MX_seq7_2_VE1000.json,351634,1061695,29,Woman
54,553094,final-intermixed-textured,v2,jsons/MX_seq7_2_VE1000.json,http://54.235.29.9/FacialAge/BNav_EC2/DepthDuration/MX_fS_VE_MTurk/MX_fS_HTML.html#291,291,1144,750,1152,864,1-8-2024,15-46-10,55,VR_target_stimuli/s1_1.3x_1.7_261.png,1000,1.3x,1.7,1,3282,1004,meters,jsons/MX_seq7_2_VE1000.json,351634,1061695,29,Woman
55,553094,final-intermixed-textured,v2,jsons/MX_seq7_2_VE1000.json,http://54.235.29.9/FacialAge/BNav_EC2/DepthDuration/MX_fS_VE_MTurk/MX_fS_HTML.html#291,291,1144,750,1152,864,1-8-2024,15-46-10,56,VR_target_stimuli/s11_1x_5_361_BC.png,1000,1x,5.0,4,4222,1001,meters,jsons/MX_seq7_2_VE1000.json,351634,1061695,29,Woman
56,553094,final-intermixed-textured,v2,jsons/MX_seq7_2_VE1000.json,http://54.235.29.9/FacialAge/BNav_EC2/DepthDuration/MX_fS_VE_MTurk/MX_fS_HTML.html#291,291,1144,750,1152,864,1-8-2024,15-46-10,57,VR_target_stimuli/s2_0.75x_2.7_384.png,1000,0.75x,2.7,2,3014,1005,meters,jsons/MX_seq7_2_VE1000.json,351634,1061695,29,Woman
57,553094,final-intermixed-textured,v2,jsons/MX_seq7_2_VE1000.json,http://54.235.29.9/FacialAge/BNav_EC2/DepthDuration/MX_fS_VE_MTurk/MX_fS_HTML.html#291,291,1144,750,1152,864,1-8-2024,15-46-10,58,VR_target_stimuli/s6_0.75x_2.1_290_BC.png,1000,0.75x,2.1,1,3722,987,meters,jsons/MX_seq7_2_VE1000.json,351634,1061695,29,Woman
58,553094,final-intermixed-textured,v2,jsons/MX_seq7_2_VE1000.json,http://54.235.29.9/FacialAge/BNav_EC2/DepthDuration/MX_fS_VE_MTurk/MX_fS_HTML.html#291,291,1144,750,1152,864,1-8-2024,15-46-10,59,VR_target_stimuli/s0_1.3x_2.6_356_BC.png,1000,1.3x,2.6,1,2657,998,meters,jsons/MX_seq7_2_VE1000.json,351634,1061695,29,Woman
59,553094,final-intermixed-textured,v2,jsons/MX_seq7_2_VE1000.json,http://54.235.29.9/FacialAge/BNav_EC2/DepthDuration/MX_fS_VE_MTurk/MX_fS_HTML.html#291,291,1144,750,1152,864,1-8-2024,15-46-10,60,VR_target_stimuli/s34_1x_2.8_283.png,1000,1x,2.8,2,3117,997,meters,jsons/MX_seq7_2_VE1000.json,351634,1061695,29,Woman
