,subjID,experimentName,versionName,sequenceName,url,selected_row,windowWidth,windowHeight,screenWidth,screenHeight,startDate,startTime,trial,stimulus,duration,scale,actual_depth,depth_estimate,trial_RT,log_sceneDuration,unitSelection,seq_filepath,experimentTime,totalTime,age,gender
0,565332,final-intermixed-textured,v2,jsons/MX_seq17_2_VE1000.json,http://54.235.29.9/FacialAge/BNav_EC2/DepthDuration/MX_fS_VE_MTurk/MX_fS_HTML.html#311,311,2560,1325,2560,1440,1-8-2024,15-50-4,1,VR_target_stimuli/s15_1x_4.2_390.png,1000,1x,4.2,6,5116,1003,meters,jsons/MX_seq17_2_VE1000.json,293038,626198,32,Man
1,565332,final-intermixed-textured,v2,jsons/MX_seq17_2_VE1000.json,http://54.235.29.9/FacialAge/BNav_EC2/DepthDuration/MX_fS_VE_MTurk/MX_fS_HTML.html#311,311,2560,1325,2560,1440,1-8-2024,15-50-4,2,VR_target_stimuli/s4_1.3x_1.4_328_BC.png,1000,1.3x,1.4,1,4067,1005,meters,jsons/MX_seq17_2_VE1000.json,293038,626198,32,Man
2,565332,final-intermixed-textured,v2,jsons/MX_seq17_2_VE1000.json,http://54.235.29.9/FacialAge/BNav_EC2/DepthDuration/MX_fS_VE_MTurk/MX_fS_HTML.html#311,311,2560,1325,2560,1440,1-8-2024,15-50-4,3,VR_target_stimuli/s35_0.75x_2_323_BC.png,1000,0.75x,2.0,2,4375,1004,meters,jsons/MX_seq17_2_VE1000.json,293038,626198,32,Man
3,565332,final-intermixed-textured,v2,jsons/MX_seq17_2_VE1000.json,http://54.235.29.9/FacialAge/BNav_EC2/DepthDuration/MX_fS_VE_MTurk/MX_fS_HTML.html#311,311,2560,1325,2560,1440,1-8-2024,15-50-4,4,VR_target_stimuli/s49_1.3x_4.67_354.png,1000,1.3x,4.67,4,4150,1004,meters,jsons/MX_seq17_2_VE1000.json,293038,626198,32,Man
4,565332,final-intermixed-textured,v2,jsons/MX_seq17_2_VE1000.json,http://54.235.29.9/FacialAge/BNav_EC2/DepthDuration/MX_fS_VE_MTurk/MX_fS_HTML.html#311,311,2560,1325,2560,1440,1-8-2024,15-50-4,5,VR_target_stimuli/s7_1x_1.5_255_BC.png,1000,1x,1.5,2,3290,1004,meters,jsons/MX_seq17_2_VE1000.json,293038,626198,32,Man
5,565332,final-intermixed-textured,v2,jsons/MX_seq17_2_VE1000.json,http://54.235.29.9/FacialAge/BNav_EC2/DepthDuration/MX_fS_VE_MTurk/MX_fS_HTML.html#311,311,2560,1325,2560,1440,1-8-2024,15-50-4,6,VR_target_stimuli/s20_0.75x_4.99_390.png,1000,0.75x,4.99,5,4207,999,meters,jsons/MX_seq17_2_VE1000.json,293038,626198,32,Man
6,565332,final-intermixed-textured,v2,jsons/MX_seq17_2_VE1000.json,http://54.235.29.9/FacialAge/BNav_EC2/DepthDuration/MX_fS_VE_MTurk/MX_fS_HTML.html#311,311,2560,1325,2560,1440,1-8-2024,15-50-4,7,catch_stimuli/c0.png,1000,,,0,4405,999,meters,jsons/MX_seq17_2_VE1000.json,293038,626198,32,Man
7,565332,final-intermixed-textured,v2,jsons/MX_seq17_2_VE1000.json,http://54.235.29.9/FacialAge/BNav_EC2/DepthDuration/MX_fS_VE_MTurk/MX_fS_HTML.html#311,311,2560,1325,2560,1440,1-8-2024,15-50-4,8,VR_target_stimuli/s31_0.75x_4.96_329_BC.png,1000,0.75x,4.96,3,4221,1004,meters,jsons/MX_seq17_2_VE1000.json,293038,626198,32,Man
8,565332,final-intermixed-textured,v2,jsons/MX_seq17_2_VE1000.json,http://54.235.29.9/FacialAge/BNav_EC2/DepthDuration/MX_fS_VE_MTurk/MX_fS_HTML.html#311,311,2560,1325,2560,1440,1-8-2024,15-50-4,9,VR_target_stimuli/s33_1.3x_3.1_378.png,1000,1.3x,3.1,4,4274,1001,meters,jsons/MX_seq17_2_VE1000.json,293038,626198,32,Man
9,565332,final-intermixed-textured,v2,jsons/MX_seq17_2_VE1000.json,http://54.235.29.9/FacialAge/BNav_EC2/DepthDuration/MX_fS_VE_MTurk/MX_fS_HTML.html#311,311,2560,1325,2560,1440,1-8-2024,15-50-4,10,VR_target_stimuli/s52_1x_3.2_275_BC.png,1000,1x,3.2,6,4061,1003,meters,jsons/MX_seq17_2_VE1000.json,293038,626198,32,Man
10,565332,final-intermixed-textured,v2,jsons/MX_seq17_2_VE1000.json,http://54.235.29.9/FacialAge/BNav_EC2/DepthDuration/MX_fS_VE_MTurk/MX_fS_HTML.html#311,311,2560,1325,2560,1440,1-8-2024,15-50-4,11,VR_target_stimuli/s32_1.3x_1.5_224_BC.png,1000,1.3x,1.5,3,3972,1000,meters,jsons/MX_seq17_2_VE1000.json,293038,626198,32,Man
11,565332,final-intermixed-textured,v2,jsons/MX_seq17_2_VE1000.json,http://54.235.29.9/FacialAge/BNav_EC2/DepthDuration/MX_fS_VE_MTurk/MX_fS_HTML.html#311,311,2560,1325,2560,1440,1-8-2024,15-50-4,12,VR_target_stimuli/s18_0.75x_2.25_341.png,1000,0.75x,2.25,3,3732,1002,meters,jsons/MX_seq17_2_VE1000.json,293038,626198,32,Man
12,565332,final-intermixed-textured,v2,jsons/MX_seq17_2_VE1000.json,http://54.235.29.9/FacialAge/BNav_EC2/DepthDuration/MX_fS_VE_MTurk/MX_fS_HTML.html#311,311,2560,1325,2560,1440,1-8-2024,15-50-4,13,VR_target_stimuli/s39_1x_1_207.png,1000,1x,1.0,1,3829,1000,meters,jsons/MX_seq17_2_VE1000.json,293038,626198,32,Man
13,565332,final-intermixed-textured,v2,jsons/MX_seq17_2_VE1000.json,http://54.235.29.9/FacialAge/BNav_EC2/DepthDuration/MX_fS_VE_MTurk/MX_fS_HTML.html#311,311,2560,1325,2560,1440,1-8-2024,15-50-4,14,VR_target_stimuli/s51_0.75x_3.64_460_BC.png,1000,0.75x,3.64,3,3875,999,meters,jsons/MX_seq17_2_VE1000.json,293038,626198,32,Man
14,565332,final-intermixed-textured,v2,jsons/MX_seq17_2_VE1000.json,http://54.235.29.9/FacialAge/BNav_EC2/DepthDuration/MX_fS_VE_MTurk/MX_fS_HTML.html#311,311,2560,1325,2560,1440,1-8-2024,15-50-4,15,VR_target_stimuli/s43_1.3x_2.2_363_BC.png,1000,1.3x,2.2,2,5180,1002,meters,jsons/MX_seq17_2_VE1000.json,293038,626198,32,Man
15,565332,final-intermixed-textured,v2,jsons/MX_seq17_2_VE1000.json,http://54.235.29.9/FacialAge/BNav_EC2/DepthDuration/MX_fS_VE_MTurk/MX_fS_HTML.html#311,311,2560,1325,2560,1440,1-8-2024,15-50-4,16,VR_target_stimuli/s24_1x_3.3_349.png,1000,1x,3.3,5,3889,1001,meters,jsons/MX_seq17_2_VE1000.json,293038,626198,32,Man
16,565332,final-intermixed-textured,v2,jsons/MX_seq17_2_VE1000.json,http://54.235.29.9/FacialAge/BNav_EC2/DepthDuration/MX_fS_VE_MTurk/MX_fS_HTML.html#311,311,2560,1325,2560,1440,1-8-2024,15-50-4,17,catch_stimuli/c1.png,1000,,,0,4366,1002,meters,jsons/MX_seq17_2_VE1000.json,293038,626198,32,Man
17,565332,final-intermixed-textured,v2,jsons/MX_seq17_2_VE1000.json,http://54.235.29.9/FacialAge/BNav_EC2/DepthDuration/MX_fS_VE_MTurk/MX_fS_HTML.html#311,311,2560,1325,2560,1440,1-8-2024,15-50-4,18,VR_target_stimuli/s10_1x_2.7_324_BC.png,1000,1x,2.7,3,6179,1000,meters,jsons/MX_seq17_2_VE1000.json,293038,626198,32,Man
18,565332,final-intermixed-textured,v2,jsons/MX_seq17_2_VE1000.json,http://54.235.29.9/FacialAge/BNav_EC2/DepthDuration/MX_fS_VE_MTurk/MX_fS_HTML.html#311,311,2560,1325,2560,1440,1-8-2024,15-50-4,19,VR_target_stimuli/s36_0.75x_4.1_407.png,1000,0.75x,4.1,6,4472,999,meters,jsons/MX_seq17_2_VE1000.json,293038,626198,32,Man
19,565332,final-intermixed-textured,v2,jsons/MX_seq17_2_VE1000.json,http://54.235.29.9/FacialAge/BNav_EC2/DepthDuration/MX_fS_VE_MTurk/MX_fS_HTML.html#311,311,2560,1325,2560,1440,1-8-2024,15-50-4,20,VR_target_stimuli/s40_1.3x_1.2_332.png,1000,1.3x,1.2,1,3540,1000,meters,jsons/MX_seq17_2_VE1000.json,293038,626198,32,Man
20,565332,final-intermixed-textured,v2,jsons/MX_seq17_2_VE1000.json,http://54.235.29.9/FacialAge/BNav_EC2/DepthDuration/MX_fS_VE_MTurk/MX_fS_HTML.html#311,311,2560,1325,2560,1440,1-8-2024,15-50-4,21,VR_target_stimuli/s41_0.75x_2.1_281.png,1000,0.75x,2.1,2,3441,1001,meters,jsons/MX_seq17_2_VE1000.json,293038,626198,32,Man
21,565332,final-intermixed-textured,v2,jsons/MX_seq17_2_VE1000.json,http://54.235.29.9/FacialAge/BNav_EC2/DepthDuration/MX_fS_VE_MTurk/MX_fS_HTML.html#311,311,2560,1325,2560,1440,1-8-2024,15-50-4,22,VR_target_stimuli/s45_1x_3.5_368.png,1000,1x,3.5,4,3741,1003,meters,jsons/MX_seq17_2_VE1000.json,293038,626198,32,Man
22,565332,final-intermixed-textured,v2,jsons/MX_seq17_2_VE1000.json,http://54.235.29.9/FacialAge/BNav_EC2/DepthDuration/MX_fS_VE_MTurk/MX_fS_HTML.html#311,311,2560,1325,2560,1440,1-8-2024,15-50-4,23,VR_target_stimuli/s23_1.3x_3.65_354_BC.png,1000,1.3x,3.65,3,5708,998,meters,jsons/MX_seq17_2_VE1000.json,293038,626198,32,Man
23,565332,final-intermixed-textured,v2,jsons/MX_seq17_2_VE1000.json,http://54.235.29.9/FacialAge/BNav_EC2/DepthDuration/MX_fS_VE_MTurk/MX_fS_HTML.html#311,311,2560,1325,2560,1440,1-8-2024,15-50-4,24,VR_target_stimuli/s26_1x_4_433_BC.png,1000,1x,4.0,4,5217,1002,meters,jsons/MX_seq17_2_VE1000.json,293038,626198,32,Man
24,565332,final-intermixed-textured,v2,jsons/MX_seq17_2_VE1000.json,http://54.235.29.9/FacialAge/BNav_EC2/DepthDuration/MX_fS_VE_MTurk/MX_fS_HTML.html#311,311,2560,1325,2560,1440,1-8-2024,15-50-4,25,VR_target_stimuli/s12_0.75x_3.1_364_BC.png,1000,0.75x,3.1,3,3659,997,meters,jsons/MX_seq17_2_VE1000.json,293038,626198,32,Man
25,565332,final-intermixed-textured,v2,jsons/MX_seq17_2_VE1000.json,http://54.235.29.9/FacialAge/BNav_EC2/DepthDuration/MX_fS_VE_MTurk/MX_fS_HTML.html#311,311,2560,1325,2560,1440,1-8-2024,15-50-4,26,catch_stimuli/c2.png,1000,,,0,3894,1002,meters,jsons/MX_seq17_2_VE1000.json,293038,626198,32,Man
26,565332,final-intermixed-textured,v2,jsons/MX_seq17_2_VE1000.json,http://54.235.29.9/FacialAge/BNav_EC2/DepthDuration/MX_fS_VE_MTurk/MX_fS_HTML.html#311,311,2560,1325,2560,1440,1-8-2024,15-50-4,27,VR_target_stimuli/s30_1.3x_2.3_337.png,1000,1.3x,2.3,3,3365,995,meters,jsons/MX_seq17_2_VE1000.json,293038,626198,32,Man
27,565332,final-intermixed-textured,v2,jsons/MX_seq17_2_VE1000.json,http://54.235.29.9/FacialAge/BNav_EC2/DepthDuration/MX_fS_VE_MTurk/MX_fS_HTML.html#311,311,2560,1325,2560,1440,1-8-2024,15-50-4,28,VR_target_stimuli/s16_1.3x_1_223.png,1000,1.3x,1.0,1,3702,999,meters,jsons/MX_seq17_2_VE1000.json,293038,626198,32,Man
28,565332,final-intermixed-textured,v2,jsons/MX_seq17_2_VE1000.json,http://54.235.29.9/FacialAge/BNav_EC2/DepthDuration/MX_fS_VE_MTurk/MX_fS_HTML.html#311,311,2560,1325,2560,1440,1-8-2024,15-50-4,29,VR_target_stimuli/s17_1x_1.8_291.png,1000,1x,1.8,2,3186,995,meters,jsons/MX_seq17_2_VE1000.json,293038,626198,32,Man
29,565332,final-intermixed-textured,v2,jsons/MX_seq17_2_VE1000.json,http://54.235.29.9/FacialAge/BNav_EC2/DepthDuration/MX_fS_VE_MTurk/MX_fS_HTML.html#311,311,2560,1325,2560,1440,1-8-2024,15-50-4,30,VR_target_stimuli/s5_0.75x_4_375_BC.png,1000,0.75x,4.0,3,6378,1002,meters,jsons/MX_seq17_2_VE1000.json,293038,626198,32,Man
30,565332,final-intermixed-textured,v2,jsons/MX_seq17_2_VE1000.json,http://54.235.29.9/FacialAge/BNav_EC2/DepthDuration/MX_fS_VE_MTurk/MX_fS_HTML.html#311,311,2560,1325,2560,1440,1-8-2024,15-50-4,31,VR_target_stimuli/s37_1.3x_3.3_555_BC.png,1000,1.3x,3.3,5,5911,1003,meters,jsons/MX_seq17_2_VE1000.json,293038,626198,32,Man
31,565332,final-intermixed-textured,v2,jsons/MX_seq17_2_VE1000.json,http://54.235.29.9/FacialAge/BNav_EC2/DepthDuration/MX_fS_VE_MTurk/MX_fS_HTML.html#311,311,2560,1325,2560,1440,1-8-2024,15-50-4,32,VR_target_stimuli/s46_0.75x_2.42_343.png,1000,0.75x,2.42,2,5601,1001,meters,jsons/MX_seq17_2_VE1000.json,293038,626198,32,Man
32,565332,final-intermixed-textured,v2,jsons/MX_seq17_2_VE1000.json,http://54.235.29.9/FacialAge/BNav_EC2/DepthDuration/MX_fS_VE_MTurk/MX_fS_HTML.html#311,311,2560,1325,2560,1440,1-8-2024,15-50-4,33,VR_target_stimuli/s22_1x_4.29_354_BC.png,1000,1x,4.29,5,4148,1001,meters,jsons/MX_seq17_2_VE1000.json,293038,626198,32,Man
33,565332,final-intermixed-textured,v2,jsons/MX_seq17_2_VE1000.json,http://54.235.29.9/FacialAge/BNav_EC2/DepthDuration/MX_fS_VE_MTurk/MX_fS_HTML.html#311,311,2560,1325,2560,1440,1-8-2024,15-50-4,34,catch_stimuli/c3.png,1000,,,0,3943,1002,meters,jsons/MX_seq17_2_VE1000.json,293038,626198,32,Man
34,565332,final-intermixed-textured,v2,jsons/MX_seq17_2_VE1000.json,http://54.235.29.9/FacialAge/BNav_EC2/DepthDuration/MX_fS_VE_MTurk/MX_fS_HTML.html#311,311,2560,1325,2560,1440,1-8-2024,15-50-4,35,VR_target_stimuli/s42_0.75x_3.2_301.png,1000,0.75x,3.2,4,4308,1002,meters,jsons/MX_seq17_2_VE1000.json,293038,626198,32,Man
35,565332,final-intermixed-textured,v2,jsons/MX_seq17_2_VE1000.json,http://54.235.29.9/FacialAge/BNav_EC2/DepthDuration/MX_fS_VE_MTurk/MX_fS_HTML.html#311,311,2560,1325,2560,1440,1-8-2024,15-50-4,36,VR_target_stimuli/s25_1.3x_1.4_299.png,1000,1.3x,1.4,1,3583,996,meters,jsons/MX_seq17_2_VE1000.json,293038,626198,32,Man
36,565332,final-intermixed-textured,v2,jsons/MX_seq17_2_VE1000.json,http://54.235.29.9/FacialAge/BNav_EC2/DepthDuration/MX_fS_VE_MTurk/MX_fS_HTML.html#311,311,2560,1325,2560,1440,1-8-2024,15-50-4,37,VR_target_stimuli/s50_1x_4.53_518_BC.png,1000,1x,4.53,2,3656,1002,meters,jsons/MX_seq17_2_VE1000.json,293038,626198,32,Man
37,565332,final-intermixed-textured,v2,jsons/MX_seq17_2_VE1000.json,http://54.235.29.9/FacialAge/BNav_EC2/DepthDuration/MX_fS_VE_MTurk/MX_fS_HTML.html#311,311,2560,1325,2560,1440,1-8-2024,15-50-4,38,VR_target_stimuli/s53_1x_1.6_387.png,1000,1x,1.6,1,3798,1010,meters,jsons/MX_seq17_2_VE1000.json,293038,626198,32,Man
38,565332,final-intermixed-textured,v2,jsons/MX_seq17_2_VE1000.json,http://54.235.29.9/FacialAge/BNav_EC2/DepthDuration/MX_fS_VE_MTurk/MX_fS_HTML.html#311,311,2560,1325,2560,1440,1-8-2024,15-50-4,39,VR_target_stimuli/s38_0.75x_3.55_346_BC.png,1000,0.75x,3.55,5,6576,1000,meters,jsons/MX_seq17_2_VE1000.json,293038,626198,32,Man
39,565332,final-intermixed-textured,v2,jsons/MX_seq17_2_VE1000.json,http://54.235.29.9/FacialAge/BNav_EC2/DepthDuration/MX_fS_VE_MTurk/MX_fS_HTML.html#311,311,2560,1325,2560,1440,1-8-2024,15-50-4,40,VR_target_stimuli/s9_1.3x_1.2_276_BC.png,1000,1.3x,1.2,1,3313,1000,meters,jsons/MX_seq17_2_VE1000.json,293038,626198,32,Man
40,565332,final-intermixed-textured,v2,jsons/MX_seq17_2_VE1000.json,http://54.235.29.9/FacialAge/BNav_EC2/DepthDuration/MX_fS_VE_MTurk/MX_fS_HTML.html#311,311,2560,1325,2560,1440,1-8-2024,15-50-4,41,VR_target_stimuli/s44_0.75x_4.4_314_BC.png,1000,0.75x,4.4,5,4479,1002,meters,jsons/MX_seq17_2_VE1000.json,293038,626198,32,Man
41,565332,final-intermixed-textured,v2,jsons/MX_seq17_2_VE1000.json,http://54.235.29.9/FacialAge/BNav_EC2/DepthDuration/MX_fS_VE_MTurk/MX_fS_HTML.html#311,311,2560,1325,2560,1440,1-8-2024,15-50-4,42,VR_target_stimuli/s3_1x_5_385.png,1000,1x,5.0,5,4367,1004,meters,jsons/MX_seq17_2_VE1000.json,293038,626198,32,Man
42,565332,final-intermixed-textured,v2,jsons/MX_seq17_2_VE1000.json,http://54.235.29.9/FacialAge/BNav_EC2/DepthDuration/MX_fS_VE_MTurk/MX_fS_HTML.html#311,311,2560,1325,2560,1440,1-8-2024,15-50-4,43,VR_target_stimuli/s1_1.3x_1.7_261.png,1000,1.3x,1.7,2,3785,999,meters,jsons/MX_seq17_2_VE1000.json,293038,626198,32,Man
43,565332,final-intermixed-textured,v2,jsons/MX_seq17_2_VE1000.json,http://54.235.29.9/FacialAge/BNav_EC2/DepthDuration/MX_fS_VE_MTurk/MX_fS_HTML.html#311,311,2560,1325,2560,1440,1-8-2024,15-50-4,44,VR_target_stimuli/s11_1x_5_361_BC.png,1000,1x,5.0,7,4412,999,meters,jsons/MX_seq17_2_VE1000.json,293038,626198,32,Man
44,565332,final-intermixed-textured,v2,jsons/MX_seq17_2_VE1000.json,http://54.235.29.9/FacialAge/BNav_EC2/DepthDuration/MX_fS_VE_MTurk/MX_fS_HTML.html#311,311,2560,1325,2560,1440,1-8-2024,15-50-4,45,catch_stimuli/c4.png,1000,,,0,3585,1004,meters,jsons/MX_seq17_2_VE1000.json,293038,626198,32,Man
45,565332,final-intermixed-textured,v2,jsons/MX_seq17_2_VE1000.json,http://54.235.29.9/FacialAge/BNav_EC2/DepthDuration/MX_fS_VE_MTurk/MX_fS_HTML.html#311,311,2560,1325,2560,1440,1-8-2024,15-50-4,46,VR_target_stimuli/s2_0.75x_2.7_384.png,1000,0.75x,2.7,2,6071,1002,meters,jsons/MX_seq17_2_VE1000.json,293038,626198,32,Man
46,565332,final-intermixed-textured,v2,jsons/MX_seq17_2_VE1000.json,http://54.235.29.9/FacialAge/BNav_EC2/DepthDuration/MX_fS_VE_MTurk/MX_fS_HTML.html#311,311,2560,1325,2560,1440,1-8-2024,15-50-4,47,VR_target_stimuli/s6_1.3x_2.1_298_BC.png,1000,1.3x,2.1,3,3516,1003,meters,jsons/MX_seq17_2_VE1000.json,293038,626198,32,Man
47,565332,final-intermixed-textured,v2,jsons/MX_seq17_2_VE1000.json,http://54.235.29.9/FacialAge/BNav_EC2/DepthDuration/MX_fS_VE_MTurk/MX_fS_HTML.html#311,311,2560,1325,2560,1440,1-8-2024,15-50-4,48,VR_target_stimuli/s0_1.3x_2.6_356_BC.png,1000,1.3x,2.6,2,5314,1000,meters,jsons/MX_seq17_2_VE1000.json,293038,626198,32,Man
48,565332,final-intermixed-textured,v2,jsons/MX_seq17_2_VE1000.json,http://54.235.29.9/FacialAge/BNav_EC2/DepthDuration/MX_fS_VE_MTurk/MX_fS_HTML.html#311,311,2560,1325,2560,1440,1-8-2024,15-50-4,49,VR_target_stimuli/s34_1x_2.8_283.png,1000,1x,2.8,4,5348,1000,meters,jsons/MX_seq17_2_VE1000.json,293038,626198,32,Man
49,565332,final-intermixed-textured,v2,jsons/MX_seq17_2_VE1000.json,http://54.235.29.9/FacialAge/BNav_EC2/DepthDuration/MX_fS_VE_MTurk/MX_fS_HTML.html#311,311,2560,1325,2560,1440,1-8-2024,15-50-4,50,VR_target_stimuli/s13_0.75x_2.4_308.png,1000,0.75x,2.4,3,5698,1000,meters,jsons/MX_seq17_2_VE1000.json,293038,626198,32,Man
50,565332,final-intermixed-textured,v2,jsons/MX_seq17_2_VE1000.json,http://54.235.29.9/FacialAge/BNav_EC2/DepthDuration/MX_fS_VE_MTurk/MX_fS_HTML.html#311,311,2560,1325,2560,1440,1-8-2024,15-50-4,51,VR_target_stimuli/s14_1x_ 3.83_357_BC.png,1000,1x,3.83,3,4979,1001,meters,jsons/MX_seq17_2_VE1000.json,293038,626198,32,Man
51,565332,final-intermixed-textured,v2,jsons/MX_seq17_2_VE1000.json,http://54.235.29.9/FacialAge/BNav_EC2/DepthDuration/MX_fS_VE_MTurk/MX_fS_HTML.html#311,311,2560,1325,2560,1440,1-8-2024,15-50-4,52,VR_target_stimuli/s47_1.3x_3.45_373.png,1000,1.3x,3.45,0,3972,1001,meters,jsons/MX_seq17_2_VE1000.json,293038,626198,32,Man
52,565332,final-intermixed-textured,v2,jsons/MX_seq17_2_VE1000.json,http://54.235.29.9/FacialAge/BNav_EC2/DepthDuration/MX_fS_VE_MTurk/MX_fS_HTML.html#311,311,2560,1325,2560,1440,1-8-2024,15-50-4,53,catch_stimuli/c5.png,1000,,,0,4284,1004,meters,jsons/MX_seq17_2_VE1000.json,293038,626198,32,Man
53,565332,final-intermixed-textured,v2,jsons/MX_seq17_2_VE1000.json,http://54.235.29.9/FacialAge/BNav_EC2/DepthDuration/MX_fS_VE_MTurk/MX_fS_HTML.html#311,311,2560,1325,2560,1440,1-8-2024,15-50-4,54,VR_target_stimuli/s29_0.75x_1.3_246_BC.png,1000,0.75x,1.3,2,4473,1005,meters,jsons/MX_seq17_2_VE1000.json,293038,626198,32,Man
54,565332,final-intermixed-textured,v2,jsons/MX_seq17_2_VE1000.json,http://54.235.29.9/FacialAge/BNav_EC2/DepthDuration/MX_fS_VE_MTurk/MX_fS_HTML.html#311,311,2560,1325,2560,1440,1-8-2024,15-50-4,55,VR_target_stimuli/s28_1.3x_3.2_365.png,1000,1.3x,3.2,3,3964,1003,meters,jsons/MX_seq17_2_VE1000.json,293038,626198,32,Man
55,565332,final-intermixed-textured,v2,jsons/MX_seq17_2_VE1000.json,http://54.235.29.9/FacialAge/BNav_EC2/DepthDuration/MX_fS_VE_MTurk/MX_fS_HTML.html#311,311,2560,1325,2560,1440,1-8-2024,15-50-4,56,VR_target_stimuli/s48_1x_2.55_256_BC.png,1000,1x,2.55,2,5139,1001,meters,jsons/MX_seq17_2_VE1000.json,293038,626198,32,Man
56,565332,final-intermixed-textured,v2,jsons/MX_seq17_2_VE1000.json,http://54.235.29.9/FacialAge/BNav_EC2/DepthDuration/MX_fS_VE_MTurk/MX_fS_HTML.html#311,311,2560,1325,2560,1440,1-8-2024,15-50-4,57,VR_target_stimuli/s19_0.75x_1.21_257_BC.png,1000,0.75x,1.21,2,4407,1000,meters,jsons/MX_seq17_2_VE1000.json,293038,626198,32,Man
57,565332,final-intermixed-textured,v2,jsons/MX_seq17_2_VE1000.json,http://54.235.29.9/FacialAge/BNav_EC2/DepthDuration/MX_fS_VE_MTurk/MX_fS_HTML.html#311,311,2560,1325,2560,1440,1-8-2024,15-50-4,58,VR_target_stimuli/s21_0.75x_4.22_374.png,1000,0.75x,4.22,7,4759,1000,meters,jsons/MX_seq17_2_VE1000.json,293038,626198,32,Man
58,565332,final-intermixed-textured,v2,jsons/MX_seq17_2_VE1000.json,http://54.235.29.9/FacialAge/BNav_EC2/DepthDuration/MX_fS_VE_MTurk/MX_fS_HTML.html#311,311,2560,1325,2560,1440,1-8-2024,15-50-4,59,VR_target_stimuli/s8_1.3x_3.1_345_BC.png,1000,1.3x,3.1,3,4566,1001,meters,jsons/MX_seq17_2_VE1000.json,293038,626198,32,Man
59,565332,final-intermixed-textured,v2,jsons/MX_seq17_2_VE1000.json,http://54.235.29.9/FacialAge/BNav_EC2/DepthDuration/MX_fS_VE_MTurk/MX_fS_HTML.html#311,311,2560,1325,2560,1440,1-8-2024,15-50-4,60,VR_target_stimuli/s27_1x_1.76_248.png,1000,1x,1.76,2,3425,1003,meters,jsons/MX_seq17_2_VE1000.json,293038,626198,32,Man
