,subjID,experimentName,versionName,sequenceName,url,selected_row,windowWidth,windowHeight,screenWidth,screenHeight,startDate,startTime,trial,stimulus,duration,scale,actual_depth,depth_estimate,trial_RT,log_sceneDuration,unitSelection,seq_filepath,experimentTime,totalTime,age,gender
0,617451,final-intermixed-textured,v2,jsons/MX_seq3_1_VE1000.json,http://54.235.29.9/FacialAge/BNav_EC2/DepthDuration/MX_fS_VE_MTurk/MX_fS_HTML.html#189,189,1232,572,1280,720,1-8-2024,14-58-3,1,VR_target_stimuli/s2_1.3x_2.7_397_BC.png,1000,1.3x,2.7,5,5586,996,meters,jsons/MX_seq3_1_VE1000.json,322294,1827608,40,Woman
1,617451,final-intermixed-textured,v2,jsons/MX_seq3_1_VE1000.json,http://54.235.29.9/FacialAge/BNav_EC2/DepthDuration/MX_fS_VE_MTurk/MX_fS_HTML.html#189,189,1232,572,1280,720,1-8-2024,14-58-3,2,VR_target_stimuli/s6_0.75x_2.1_290_BC.png,1000,0.75x,2.1,4,4225,1000,meters,jsons/MX_seq3_1_VE1000.json,322294,1827608,40,Woman
2,617451,final-intermixed-textured,v2,jsons/MX_seq3_1_VE1000.json,http://54.235.29.9/FacialAge/BNav_EC2/DepthDuration/MX_fS_VE_MTurk/MX_fS_HTML.html#189,189,1232,572,1280,720,1-8-2024,14-58-3,3,VR_target_stimuli/s0_1x_2.6_351.png,1000,1x,2.6,4,4505,1000,meters,jsons/MX_seq3_1_VE1000.json,322294,1827608,40,Woman
3,617451,final-intermixed-textured,v2,jsons/MX_seq3_1_VE1000.json,http://54.235.29.9/FacialAge/BNav_EC2/DepthDuration/MX_fS_VE_MTurk/MX_fS_HTML.html#189,189,1232,572,1280,720,1-8-2024,14-58-3,4,VR_target_stimuli/s34_0.75x_2.8_269.png,1000,0.75x,2.8,5,4600,999,meters,jsons/MX_seq3_1_VE1000.json,322294,1827608,40,Woman
4,617451,final-intermixed-textured,v2,jsons/MX_seq3_1_VE1000.json,http://54.235.29.9/FacialAge/BNav_EC2/DepthDuration/MX_fS_VE_MTurk/MX_fS_HTML.html#189,189,1232,572,1280,720,1-8-2024,14-58-3,5,VR_target_stimuli/s13_1.3x_2.4_313.png,1000,1.3x,2.4,5,4917,1002,meters,jsons/MX_seq3_1_VE1000.json,322294,1827608,40,Woman
5,617451,final-intermixed-textured,v2,jsons/MX_seq3_1_VE1000.json,http://54.235.29.9/FacialAge/BNav_EC2/DepthDuration/MX_fS_VE_MTurk/MX_fS_HTML.html#189,189,1232,572,1280,720,1-8-2024,14-58-3,6,VR_target_stimuli/s14_1x_ 3.83_357_BC.png,1000,1x,3.83,6,3665,996,meters,jsons/MX_seq3_1_VE1000.json,322294,1827608,40,Woman
6,617451,final-intermixed-textured,v2,jsons/MX_seq3_1_VE1000.json,http://54.235.29.9/FacialAge/BNav_EC2/DepthDuration/MX_fS_VE_MTurk/MX_fS_HTML.html#189,189,1232,572,1280,720,1-8-2024,14-58-3,7,catch_stimuli/c0.png,1000,,,0,5598,995,meters,jsons/MX_seq3_1_VE1000.json,322294,1827608,40,Woman
7,617451,final-intermixed-textured,v2,jsons/MX_seq3_1_VE1000.json,http://54.235.29.9/FacialAge/BNav_EC2/DepthDuration/MX_fS_VE_MTurk/MX_fS_HTML.html#189,189,1232,572,1280,720,1-8-2024,14-58-3,8,VR_target_stimuli/s47_1x_3.45_370_BC.png,1000,1x,3.45,7,7182,991,meters,jsons/MX_seq3_1_VE1000.json,322294,1827608,40,Woman
8,617451,final-intermixed-textured,v2,jsons/MX_seq3_1_VE1000.json,http://54.235.29.9/FacialAge/BNav_EC2/DepthDuration/MX_fS_VE_MTurk/MX_fS_HTML.html#189,189,1232,572,1280,720,1-8-2024,14-58-3,9,VR_target_stimuli/s29_0.75x_1.3_246.png,1000,0.75x,1.3,3,5296,995,meters,jsons/MX_seq3_1_VE1000.json,322294,1827608,40,Woman
9,617451,final-intermixed-textured,v2,jsons/MX_seq3_1_VE1000.json,http://54.235.29.9/FacialAge/BNav_EC2/DepthDuration/MX_fS_VE_MTurk/MX_fS_HTML.html#189,189,1232,572,1280,720,1-8-2024,14-58-3,10,VR_target_stimuli/s28_1.3x_3.2_365_BC.png,1000,1.3x,3.2,6,4923,993,meters,jsons/MX_seq3_1_VE1000.json,322294,1827608,40,Woman
10,617451,final-intermixed-textured,v2,jsons/MX_seq3_1_VE1000.json,http://54.235.29.9/FacialAge/BNav_EC2/DepthDuration/MX_fS_VE_MTurk/MX_fS_HTML.html#189,189,1232,572,1280,720,1-8-2024,14-58-3,11,VR_target_stimuli/s48_0.75x_2.55_243_BC.png,1000,0.75x,2.55,4,4649,993,meters,jsons/MX_seq3_1_VE1000.json,322294,1827608,40,Woman
11,617451,final-intermixed-textured,v2,jsons/MX_seq3_1_VE1000.json,http://54.235.29.9/FacialAge/BNav_EC2/DepthDuration/MX_fS_VE_MTurk/MX_fS_HTML.html#189,189,1232,572,1280,720,1-8-2024,14-58-3,12,VR_target_stimuli/s19_1x_1.21_263.png,1000,1x,1.21,3,4732,998,meters,jsons/MX_seq3_1_VE1000.json,322294,1827608,40,Woman
12,617451,final-intermixed-textured,v2,jsons/MX_seq3_1_VE1000.json,http://54.235.29.9/FacialAge/BNav_EC2/DepthDuration/MX_fS_VE_MTurk/MX_fS_HTML.html#189,189,1232,572,1280,720,1-8-2024,14-58-3,13,VR_target_stimuli/s21_1.3x_4.22_384.png,1000,1.3x,4.22,7,4675,996,meters,jsons/MX_seq3_1_VE1000.json,322294,1827608,40,Woman
13,617451,final-intermixed-textured,v2,jsons/MX_seq3_1_VE1000.json,http://54.235.29.9/FacialAge/BNav_EC2/DepthDuration/MX_fS_VE_MTurk/MX_fS_HTML.html#189,189,1232,572,1280,720,1-8-2024,14-58-3,14,VR_target_stimuli/s8_1x_3.1_332.png,1000,1x,3.1,7,4236,999,meters,jsons/MX_seq3_1_VE1000.json,322294,1827608,40,Woman
14,617451,final-intermixed-textured,v2,jsons/MX_seq3_1_VE1000.json,http://54.235.29.9/FacialAge/BNav_EC2/DepthDuration/MX_fS_VE_MTurk/MX_fS_HTML.html#189,189,1232,572,1280,720,1-8-2024,14-58-3,15,VR_target_stimuli/s27_0.75x_1.76_243.png,1000,0.75x,1.76,4,5514,997,meters,jsons/MX_seq3_1_VE1000.json,322294,1827608,40,Woman
15,617451,final-intermixed-textured,v2,jsons/MX_seq3_1_VE1000.json,http://54.235.29.9/FacialAge/BNav_EC2/DepthDuration/MX_fS_VE_MTurk/MX_fS_HTML.html#189,189,1232,572,1280,720,1-8-2024,14-58-3,16,VR_target_stimuli/s15_1.3x_4.2_389.png,1000,1.3x,4.2,8,3939,999,meters,jsons/MX_seq3_1_VE1000.json,322294,1827608,40,Woman
16,617451,final-intermixed-textured,v2,jsons/MX_seq3_1_VE1000.json,http://54.235.29.9/FacialAge/BNav_EC2/DepthDuration/MX_fS_VE_MTurk/MX_fS_HTML.html#189,189,1232,572,1280,720,1-8-2024,14-58-3,17,catch_stimuli/c1.png,1000,,,0,4222,997,meters,jsons/MX_seq3_1_VE1000.json,322294,1827608,40,Woman
17,617451,final-intermixed-textured,v2,jsons/MX_seq3_1_VE1000.json,http://54.235.29.9/FacialAge/BNav_EC2/DepthDuration/MX_fS_VE_MTurk/MX_fS_HTML.html#189,189,1232,572,1280,720,1-8-2024,14-58-3,18,VR_target_stimuli/s4_1.3x_1.4_328_BC.png,1000,1.3x,1.4,3,5319,993,meters,jsons/MX_seq3_1_VE1000.json,322294,1827608,40,Woman
18,617451,final-intermixed-textured,v2,jsons/MX_seq3_1_VE1000.json,http://54.235.29.9/FacialAge/BNav_EC2/DepthDuration/MX_fS_VE_MTurk/MX_fS_HTML.html#189,189,1232,572,1280,720,1-8-2024,14-58-3,19,VR_target_stimuli/s35_1x_2_331_BC.png,1000,1x,2.0,6,4447,993,meters,jsons/MX_seq3_1_VE1000.json,322294,1827608,40,Woman
19,617451,final-intermixed-textured,v2,jsons/MX_seq3_1_VE1000.json,http://54.235.29.9/FacialAge/BNav_EC2/DepthDuration/MX_fS_VE_MTurk/MX_fS_HTML.html#189,189,1232,572,1280,720,1-8-2024,14-58-3,20,VR_target_stimuli/s49_0.75x_4.67_328_BC.png,1000,0.75x,4.67,8,5883,992,meters,jsons/MX_seq3_1_VE1000.json,322294,1827608,40,Woman
20,617451,final-intermixed-textured,v2,jsons/MX_seq3_1_VE1000.json,http://54.235.29.9/FacialAge/BNav_EC2/DepthDuration/MX_fS_VE_MTurk/MX_fS_HTML.html#189,189,1232,572,1280,720,1-8-2024,14-58-3,21,VR_target_stimuli/s7_1x_1.5_255_BC.png,1000,1x,1.5,4,5484,995,meters,jsons/MX_seq3_1_VE1000.json,322294,1827608,40,Woman
21,617451,final-intermixed-textured,v2,jsons/MX_seq3_1_VE1000.json,http://54.235.29.9/FacialAge/BNav_EC2/DepthDuration/MX_fS_VE_MTurk/MX_fS_HTML.html#189,189,1232,572,1280,720,1-8-2024,14-58-3,22,VR_target_stimuli/s20_1.3x_4.99_412.png,1000,1.3x,4.99,8,4570,997,meters,jsons/MX_seq3_1_VE1000.json,322294,1827608,40,Woman
22,617451,final-intermixed-textured,v2,jsons/MX_seq3_1_VE1000.json,http://54.235.29.9/FacialAge/BNav_EC2/DepthDuration/MX_fS_VE_MTurk/MX_fS_HTML.html#189,189,1232,572,1280,720,1-8-2024,14-58-3,23,VR_target_stimuli/s31_0.75x_4.96_329_BC.png,1000,0.75x,4.96,6,4465,998,meters,jsons/MX_seq3_1_VE1000.json,322294,1827608,40,Woman
23,617451,final-intermixed-textured,v2,jsons/MX_seq3_1_VE1000.json,http://54.235.29.9/FacialAge/BNav_EC2/DepthDuration/MX_fS_VE_MTurk/MX_fS_HTML.html#189,189,1232,572,1280,720,1-8-2024,14-58-3,24,VR_target_stimuli/s33_1.3x_3.1_378_BC.png,1000,1.3x,3.1,8,5234,998,meters,jsons/MX_seq3_1_VE1000.json,322294,1827608,40,Woman
24,617451,final-intermixed-textured,v2,jsons/MX_seq3_1_VE1000.json,http://54.235.29.9/FacialAge/BNav_EC2/DepthDuration/MX_fS_VE_MTurk/MX_fS_HTML.html#189,189,1232,572,1280,720,1-8-2024,14-58-3,25,VR_target_stimuli/s52_1x_3.2_275.png,1000,1x,3.2,8,4222,993,meters,jsons/MX_seq3_1_VE1000.json,322294,1827608,40,Woman
25,617451,final-intermixed-textured,v2,jsons/MX_seq3_1_VE1000.json,http://54.235.29.9/FacialAge/BNav_EC2/DepthDuration/MX_fS_VE_MTurk/MX_fS_HTML.html#189,189,1232,572,1280,720,1-8-2024,14-58-3,26,catch_stimuli/c2.png,1000,,,0,4296,994,meters,jsons/MX_seq3_1_VE1000.json,322294,1827608,40,Woman
26,617451,final-intermixed-textured,v2,jsons/MX_seq3_1_VE1000.json,http://54.235.29.9/FacialAge/BNav_EC2/DepthDuration/MX_fS_VE_MTurk/MX_fS_HTML.html#189,189,1232,572,1280,720,1-8-2024,14-58-3,27,VR_target_stimuli/s32_0.75x_1.5_213.png,1000,0.75x,1.5,4,5504,996,meters,jsons/MX_seq3_1_VE1000.json,322294,1827608,40,Woman
27,617451,final-intermixed-textured,v2,jsons/MX_seq3_1_VE1000.json,http://54.235.29.9/FacialAge/BNav_EC2/DepthDuration/MX_fS_VE_MTurk/MX_fS_HTML.html#189,189,1232,572,1280,720,1-8-2024,14-58-3,28,VR_target_stimuli/s18_0.75x_2.25_341_BC.png,1000,0.75x,2.25,6,4549,987,meters,jsons/MX_seq3_1_VE1000.json,322294,1827608,40,Woman
28,617451,final-intermixed-textured,v2,jsons/MX_seq3_1_VE1000.json,http://54.235.29.9/FacialAge/BNav_EC2/DepthDuration/MX_fS_VE_MTurk/MX_fS_HTML.html#189,189,1232,572,1280,720,1-8-2024,14-58-3,29,VR_target_stimuli/s39_1.3x_1_208.png,1000,1.3x,1.0,2,4107,995,meters,jsons/MX_seq3_1_VE1000.json,322294,1827608,40,Woman
29,617451,final-intermixed-textured,v2,jsons/MX_seq3_1_VE1000.json,http://54.235.29.9/FacialAge/BNav_EC2/DepthDuration/MX_fS_VE_MTurk/MX_fS_HTML.html#189,189,1232,572,1280,720,1-8-2024,14-58-3,30,VR_target_stimuli/s51_1x_3.64_461.png,1000,1x,3.64,3,5181,994,meters,jsons/MX_seq3_1_VE1000.json,322294,1827608,40,Woman
30,617451,final-intermixed-textured,v2,jsons/MX_seq3_1_VE1000.json,http://54.235.29.9/FacialAge/BNav_EC2/DepthDuration/MX_fS_VE_MTurk/MX_fS_HTML.html#189,189,1232,572,1280,720,1-8-2024,14-58-3,31,VR_target_stimuli/s43_0.75x_2.2_348.png,1000,0.75x,2.2,5,3920,995,meters,jsons/MX_seq3_1_VE1000.json,322294,1827608,40,Woman
31,617451,final-intermixed-textured,v2,jsons/MX_seq3_1_VE1000.json,http://54.235.29.9/FacialAge/BNav_EC2/DepthDuration/MX_fS_VE_MTurk/MX_fS_HTML.html#189,189,1232,572,1280,720,1-8-2024,14-58-3,32,VR_target_stimuli/s24_1x_3.3_349_BC.png,1000,1x,3.3,5,3924,1005,meters,jsons/MX_seq3_1_VE1000.json,322294,1827608,40,Woman
32,617451,final-intermixed-textured,v2,jsons/MX_seq3_1_VE1000.json,http://54.235.29.9/FacialAge/BNav_EC2/DepthDuration/MX_fS_VE_MTurk/MX_fS_HTML.html#189,189,1232,572,1280,720,1-8-2024,14-58-3,33,VR_target_stimuli/s10_1.3x_2.7_325_BC.png,1000,1.3x,2.7,5,7567,995,meters,jsons/MX_seq3_1_VE1000.json,322294,1827608,40,Woman
33,617451,final-intermixed-textured,v2,jsons/MX_seq3_1_VE1000.json,http://54.235.29.9/FacialAge/BNav_EC2/DepthDuration/MX_fS_VE_MTurk/MX_fS_HTML.html#189,189,1232,572,1280,720,1-8-2024,14-58-3,34,catch_stimuli/c3.png,1000,,,0,4227,991,meters,jsons/MX_seq3_1_VE1000.json,322294,1827608,40,Woman
34,617451,final-intermixed-textured,v2,jsons/MX_seq3_1_VE1000.json,http://54.235.29.9/FacialAge/BNav_EC2/DepthDuration/MX_fS_VE_MTurk/MX_fS_HTML.html#189,189,1232,572,1280,720,1-8-2024,14-58-3,35,VR_target_stimuli/s36_1x_4.1_423.png,1000,1x,4.1,9,4160,999,meters,jsons/MX_seq3_1_VE1000.json,322294,1827608,40,Woman
35,617451,final-intermixed-textured,v2,jsons/MX_seq3_1_VE1000.json,http://54.235.29.9/FacialAge/BNav_EC2/DepthDuration/MX_fS_VE_MTurk/MX_fS_HTML.html#189,189,1232,572,1280,720,1-8-2024,14-58-3,36,VR_target_stimuli/s40_0.75x_1.2_308_BC.png,1000,0.75x,1.2,4,4731,990,meters,jsons/MX_seq3_1_VE1000.json,322294,1827608,40,Woman
36,617451,final-intermixed-textured,v2,jsons/MX_seq3_1_VE1000.json,http://54.235.29.9/FacialAge/BNav_EC2/DepthDuration/MX_fS_VE_MTurk/MX_fS_HTML.html#189,189,1232,572,1280,720,1-8-2024,14-58-3,37,VR_target_stimuli/s41_1.3x_2.1_294_BC.png,1000,1.3x,2.1,4,4277,996,meters,jsons/MX_seq3_1_VE1000.json,322294,1827608,40,Woman
37,617451,final-intermixed-textured,v2,jsons/MX_seq3_1_VE1000.json,http://54.235.29.9/FacialAge/BNav_EC2/DepthDuration/MX_fS_VE_MTurk/MX_fS_HTML.html#189,189,1232,572,1280,720,1-8-2024,14-58-3,38,VR_target_stimuli/s45_1.3x_3.5_377.png,1000,1.3x,3.5,6,4383,994,meters,jsons/MX_seq3_1_VE1000.json,322294,1827608,40,Woman
38,617451,final-intermixed-textured,v2,jsons/MX_seq3_1_VE1000.json,http://54.235.29.9/FacialAge/BNav_EC2/DepthDuration/MX_fS_VE_MTurk/MX_fS_HTML.html#189,189,1232,572,1280,720,1-8-2024,14-58-3,39,VR_target_stimuli/s23_1x_3.65_353_BC.png,1000,1x,3.65,6,4133,1009,meters,jsons/MX_seq3_1_VE1000.json,322294,1827608,40,Woman
39,617451,final-intermixed-textured,v2,jsons/MX_seq3_1_VE1000.json,http://54.235.29.9/FacialAge/BNav_EC2/DepthDuration/MX_fS_VE_MTurk/MX_fS_HTML.html#189,189,1232,572,1280,720,1-8-2024,14-58-3,40,VR_target_stimuli/s26_0.75x_4_430.png,1000,0.75x,4.0,6,4090,993,meters,jsons/MX_seq3_1_VE1000.json,322294,1827608,40,Woman
40,617451,final-intermixed-textured,v2,jsons/MX_seq3_1_VE1000.json,http://54.235.29.9/FacialAge/BNav_EC2/DepthDuration/MX_fS_VE_MTurk/MX_fS_HTML.html#189,189,1232,572,1280,720,1-8-2024,14-58-3,41,VR_target_stimuli/s12_1x_3.1_372_BC.png,1000,1x,3.1,6,4865,998,meters,jsons/MX_seq3_1_VE1000.json,322294,1827608,40,Woman
41,617451,final-intermixed-textured,v2,jsons/MX_seq3_1_VE1000.json,http://54.235.29.9/FacialAge/BNav_EC2/DepthDuration/MX_fS_VE_MTurk/MX_fS_HTML.html#189,189,1232,572,1280,720,1-8-2024,14-58-3,42,VR_target_stimuli/s30_1.3x_2.3_337.png,1000,1.3x,2.3,5,5476,990,meters,jsons/MX_seq3_1_VE1000.json,322294,1827608,40,Woman
42,617451,final-intermixed-textured,v2,jsons/MX_seq3_1_VE1000.json,http://54.235.29.9/FacialAge/BNav_EC2/DepthDuration/MX_fS_VE_MTurk/MX_fS_HTML.html#189,189,1232,572,1280,720,1-8-2024,14-58-3,43,VR_target_stimuli/s16_0.75x_1_217.png,1000,0.75x,1.0,3,5531,998,meters,jsons/MX_seq3_1_VE1000.json,322294,1827608,40,Woman
43,617451,final-intermixed-textured,v2,jsons/MX_seq3_1_VE1000.json,http://54.235.29.9/FacialAge/BNav_EC2/DepthDuration/MX_fS_VE_MTurk/MX_fS_HTML.html#189,189,1232,572,1280,720,1-8-2024,14-58-3,44,VR_target_stimuli/s17_1.3x_1.8_300_BC.png,1000,1.3x,1.8,6,4941,996,meters,jsons/MX_seq3_1_VE1000.json,322294,1827608,40,Woman
44,617451,final-intermixed-textured,v2,jsons/MX_seq3_1_VE1000.json,http://54.235.29.9/FacialAge/BNav_EC2/DepthDuration/MX_fS_VE_MTurk/MX_fS_HTML.html#189,189,1232,572,1280,720,1-8-2024,14-58-3,45,catch_stimuli/c4.png,1000,,,0,4010,993,meters,jsons/MX_seq3_1_VE1000.json,322294,1827608,40,Woman
45,617451,final-intermixed-textured,v2,jsons/MX_seq3_1_VE1000.json,http://54.235.29.9/FacialAge/BNav_EC2/DepthDuration/MX_fS_VE_MTurk/MX_fS_HTML.html#189,189,1232,572,1280,720,1-8-2024,14-58-3,46,VR_target_stimuli/s5_1x_4_378.png,1000,1x,4.0,9,3781,991,meters,jsons/MX_seq3_1_VE1000.json,322294,1827608,40,Woman
46,617451,final-intermixed-textured,v2,jsons/MX_seq3_1_VE1000.json,http://54.235.29.9/FacialAge/BNav_EC2/DepthDuration/MX_fS_VE_MTurk/MX_fS_HTML.html#189,189,1232,572,1280,720,1-8-2024,14-58-3,47,VR_target_stimuli/s37_0.75x_3.3_567_BC.png,1000,0.75x,3.3,9,4237,996,meters,jsons/MX_seq3_1_VE1000.json,322294,1827608,40,Woman
47,617451,final-intermixed-textured,v2,jsons/MX_seq3_1_VE1000.json,http://54.235.29.9/FacialAge/BNav_EC2/DepthDuration/MX_fS_VE_MTurk/MX_fS_HTML.html#189,189,1232,572,1280,720,1-8-2024,14-58-3,48,VR_target_stimuli/s46_0.75x_2.42_343.png,1000,0.75x,2.42,7,6216,1984,meters,jsons/MX_seq3_1_VE1000.json,322294,1827608,40,Woman
48,617451,final-intermixed-textured,v2,jsons/MX_seq3_1_VE1000.json,http://54.235.29.9/FacialAge/BNav_EC2/DepthDuration/MX_fS_VE_MTurk/MX_fS_HTML.html#189,189,1232,572,1280,720,1-8-2024,14-58-3,49,VR_target_stimuli/s22_1.3x_4.29_364_BC.png,1000,1.3x,4.29,7,4420,997,meters,jsons/MX_seq3_1_VE1000.json,322294,1827608,40,Woman
49,617451,final-intermixed-textured,v2,jsons/MX_seq3_1_VE1000.json,http://54.235.29.9/FacialAge/BNav_EC2/DepthDuration/MX_fS_VE_MTurk/MX_fS_HTML.html#189,189,1232,572,1280,720,1-8-2024,14-58-3,50,VR_target_stimuli/s42_1x_3.2_303_BC.png,1000,1x,3.2,9,4135,996,meters,jsons/MX_seq3_1_VE1000.json,322294,1827608,40,Woman
50,617451,final-intermixed-textured,v2,jsons/MX_seq3_1_VE1000.json,http://54.235.29.9/FacialAge/BNav_EC2/DepthDuration/MX_fS_VE_MTurk/MX_fS_HTML.html#189,189,1232,572,1280,720,1-8-2024,14-58-3,51,VR_target_stimuli/s25_1.3x_1.4_299.png,1000,1.3x,1.4,6,4300,1002,meters,jsons/MX_seq3_1_VE1000.json,322294,1827608,40,Woman
51,617451,final-intermixed-textured,v2,jsons/MX_seq3_1_VE1000.json,http://54.235.29.9/FacialAge/BNav_EC2/DepthDuration/MX_fS_VE_MTurk/MX_fS_HTML.html#189,189,1232,572,1280,720,1-8-2024,14-58-3,52,VR_target_stimuli/s50_0.75x_4.53_517_BC.png,1000,0.75x,4.53,9,4240,996,meters,jsons/MX_seq3_1_VE1000.json,322294,1827608,40,Woman
52,617451,final-intermixed-textured,v2,jsons/MX_seq3_1_VE1000.json,http://54.235.29.9/FacialAge/BNav_EC2/DepthDuration/MX_fS_VE_MTurk/MX_fS_HTML.html#189,189,1232,572,1280,720,1-8-2024,14-58-3,53,catch_stimuli/c5.png,1000,,,9,5552,1001,meters,jsons/MX_seq3_1_VE1000.json,322294,1827608,40,Woman
53,617451,final-intermixed-textured,v2,jsons/MX_seq3_1_VE1000.json,http://54.235.29.9/FacialAge/BNav_EC2/DepthDuration/MX_fS_VE_MTurk/MX_fS_HTML.html#189,189,1232,572,1280,720,1-8-2024,14-58-3,54,VR_target_stimuli/s53_1x_1.6_387.png,1000,1x,1.6,0,5365,1097,meters,jsons/MX_seq3_1_VE1000.json,322294,1827608,40,Woman
54,617451,final-intermixed-textured,v2,jsons/MX_seq3_1_VE1000.json,http://54.235.29.9/FacialAge/BNav_EC2/DepthDuration/MX_fS_VE_MTurk/MX_fS_HTML.html#189,189,1232,572,1280,720,1-8-2024,14-58-3,55,VR_target_stimuli/s38_0.75x_3.55_346.png,1000,0.75x,3.55,1,5860,987,meters,jsons/MX_seq3_1_VE1000.json,322294,1827608,40,Woman
55,617451,final-intermixed-textured,v2,jsons/MX_seq3_1_VE1000.json,http://54.235.29.9/FacialAge/BNav_EC2/DepthDuration/MX_fS_VE_MTurk/MX_fS_HTML.html#189,189,1232,572,1280,720,1-8-2024,14-58-3,56,VR_target_stimuli/s9_1.3x_1.2_276_BC.png,1000,1.3x,1.2,5,4581,993,meters,jsons/MX_seq3_1_VE1000.json,322294,1827608,40,Woman
56,617451,final-intermixed-textured,v2,jsons/MX_seq3_1_VE1000.json,http://54.235.29.9/FacialAge/BNav_EC2/DepthDuration/MX_fS_VE_MTurk/MX_fS_HTML.html#189,189,1232,572,1280,720,1-8-2024,14-58-3,57,VR_target_stimuli/s44_1x_4.4_317_BC.png,1000,1x,4.4,9,6838,994,meters,jsons/MX_seq3_1_VE1000.json,322294,1827608,40,Woman
57,617451,final-intermixed-textured,v2,jsons/MX_seq3_1_VE1000.json,http://54.235.29.9/FacialAge/BNav_EC2/DepthDuration/MX_fS_VE_MTurk/MX_fS_HTML.html#189,189,1232,572,1280,720,1-8-2024,14-58-3,58,VR_target_stimuli/s3_1x_5_385.png,1000,1x,5.0,10,4457,997,meters,jsons/MX_seq3_1_VE1000.json,322294,1827608,40,Woman
58,617451,final-intermixed-textured,v2,jsons/MX_seq3_1_VE1000.json,http://54.235.29.9/FacialAge/BNav_EC2/DepthDuration/MX_fS_VE_MTurk/MX_fS_HTML.html#189,189,1232,572,1280,720,1-8-2024,14-58-3,59,VR_target_stimuli/s1_0.75x_1.7_265_BC.png,1000,0.75x,1.7,4,5190,1001,meters,jsons/MX_seq3_1_VE1000.json,322294,1827608,40,Woman
59,617451,final-intermixed-textured,v2,jsons/MX_seq3_1_VE1000.json,http://54.235.29.9/FacialAge/BNav_EC2/DepthDuration/MX_fS_VE_MTurk/MX_fS_HTML.html#189,189,1232,572,1280,720,1-8-2024,14-58-3,60,VR_target_stimuli/s11_1.3x_5_363.png,1000,1.3x,5.0,6,6560,998,meters,jsons/MX_seq3_1_VE1000.json,322294,1827608,40,Woman
