,subjID,experimentName,versionName,sequenceName,url,selected_row,windowWidth,windowHeight,screenWidth,screenHeight,startDate,startTime,trial,stimulus,duration,scale,actual_depth,depth_estimate,trial_RT,log_sceneDuration,unitSelection,seq_filepath,experimentTime,totalTime,age,gender
0,627264,final-intermixed-textured,v2,jsons/MX_seq26_0_VE1000.json,http://54.235.29.9/FacialAge/BNav_EC2/DepthDuration/MX_fS_VE_MTurk/MX_fS_HTML.html#186,186,1680,963,1680,1050,1-8-2024,19-36-55,1,VR_target_stimuli/s32_0.75x_1.5_213_BC.png,1000,0.75x,1.5,4.0,3949,1000,meters,jsons/MX_seq26_0_VE1000.json,259184,456215,34,Woman
1,627264,final-intermixed-textured,v2,jsons/MX_seq26_0_VE1000.json,http://54.235.29.9/FacialAge/BNav_EC2/DepthDuration/MX_fS_VE_MTurk/MX_fS_HTML.html#186,186,1680,963,1680,1050,1-8-2024,19-36-55,2,VR_target_stimuli/s18_1x_2.25_353.png,1000,1x,2.25,3.0,5223,998,meters,jsons/MX_seq26_0_VE1000.json,259184,456215,34,Woman
2,627264,final-intermixed-textured,v2,jsons/MX_seq26_0_VE1000.json,http://54.235.29.9/FacialAge/BNav_EC2/DepthDuration/MX_fS_VE_MTurk/MX_fS_HTML.html#186,186,1680,963,1680,1050,1-8-2024,19-36-55,3,VR_target_stimuli/s39_1.3x_1_208.png,1000,1.3x,1.0,3.2,7279,1002,meters,jsons/MX_seq26_0_VE1000.json,259184,456215,34,Woman
3,627264,final-intermixed-textured,v2,jsons/MX_seq26_0_VE1000.json,http://54.235.29.9/FacialAge/BNav_EC2/DepthDuration/MX_fS_VE_MTurk/MX_fS_HTML.html#186,186,1680,963,1680,1050,1-8-2024,19-36-55,4,VR_target_stimuli/s51_1x_3.64_461_BC.png,1000,1x,3.64,4.0,3004,1003,meters,jsons/MX_seq26_0_VE1000.json,259184,456215,34,Woman
4,627264,final-intermixed-textured,v2,jsons/MX_seq26_0_VE1000.json,http://54.235.29.9/FacialAge/BNav_EC2/DepthDuration/MX_fS_VE_MTurk/MX_fS_HTML.html#186,186,1680,963,1680,1050,1-8-2024,19-36-55,5,VR_target_stimuli/s43_0.75x_2.2_348.png,1000,0.75x,2.2,5.0,2941,1000,meters,jsons/MX_seq26_0_VE1000.json,259184,456215,34,Woman
5,627264,final-intermixed-textured,v2,jsons/MX_seq26_0_VE1000.json,http://54.235.29.9/FacialAge/BNav_EC2/DepthDuration/MX_fS_VE_MTurk/MX_fS_HTML.html#186,186,1680,963,1680,1050,1-8-2024,19-36-55,6,VR_target_stimuli/s24_1.3x_3.3_352_BC.png,1000,1.3x,3.3,6.0,3029,1002,meters,jsons/MX_seq26_0_VE1000.json,259184,456215,34,Woman
6,627264,final-intermixed-textured,v2,jsons/MX_seq26_0_VE1000.json,http://54.235.29.9/FacialAge/BNav_EC2/DepthDuration/MX_fS_VE_MTurk/MX_fS_HTML.html#186,186,1680,963,1680,1050,1-8-2024,19-36-55,7,catch_stimuli/c0.png,1000,,,0.0,3224,1002,meters,jsons/MX_seq26_0_VE1000.json,259184,456215,34,Woman
7,627264,final-intermixed-textured,v2,jsons/MX_seq26_0_VE1000.json,http://54.235.29.9/FacialAge/BNav_EC2/DepthDuration/MX_fS_VE_MTurk/MX_fS_HTML.html#186,186,1680,963,1680,1050,1-8-2024,19-36-55,8,VR_target_stimuli/s10_1.3x_2.7_325_BC.png,1000,1.3x,2.7,4.0,3546,999,meters,jsons/MX_seq26_0_VE1000.json,259184,456215,34,Woman
8,627264,final-intermixed-textured,v2,jsons/MX_seq26_0_VE1000.json,http://54.235.29.9/FacialAge/BNav_EC2/DepthDuration/MX_fS_VE_MTurk/MX_fS_HTML.html#186,186,1680,963,1680,1050,1-8-2024,19-36-55,9,VR_target_stimuli/s36_1x_4.1_423.png,1000,1x,4.1,5.0,3179,1002,meters,jsons/MX_seq26_0_VE1000.json,259184,456215,34,Woman
9,627264,final-intermixed-textured,v2,jsons/MX_seq26_0_VE1000.json,http://54.235.29.9/FacialAge/BNav_EC2/DepthDuration/MX_fS_VE_MTurk/MX_fS_HTML.html#186,186,1680,963,1680,1050,1-8-2024,19-36-55,10,VR_target_stimuli/s40_0.75x_1.2_308.png,1000,0.75x,1.2,2.0,3787,1001,meters,jsons/MX_seq26_0_VE1000.json,259184,456215,34,Woman
10,627264,final-intermixed-textured,v2,jsons/MX_seq26_0_VE1000.json,http://54.235.29.9/FacialAge/BNav_EC2/DepthDuration/MX_fS_VE_MTurk/MX_fS_HTML.html#186,186,1680,963,1680,1050,1-8-2024,19-36-55,11,VR_target_stimuli/s41_1x_2.1_286_BC.png,1000,1x,2.1,3.0,2953,996,meters,jsons/MX_seq26_0_VE1000.json,259184,456215,34,Woman
11,627264,final-intermixed-textured,v2,jsons/MX_seq26_0_VE1000.json,http://54.235.29.9/FacialAge/BNav_EC2/DepthDuration/MX_fS_VE_MTurk/MX_fS_HTML.html#186,186,1680,963,1680,1050,1-8-2024,19-36-55,12,VR_target_stimuli/s45_1.3x_3.5_377.png,1000,1.3x,3.5,3.5,3699,1001,meters,jsons/MX_seq26_0_VE1000.json,259184,456215,34,Woman
12,627264,final-intermixed-textured,v2,jsons/MX_seq26_0_VE1000.json,http://54.235.29.9/FacialAge/BNav_EC2/DepthDuration/MX_fS_VE_MTurk/MX_fS_HTML.html#186,186,1680,963,1680,1050,1-8-2024,19-36-55,13,VR_target_stimuli/s23_0.75x_3.65_351_BC.png,1000,0.75x,3.65,4.0,3000,995,meters,jsons/MX_seq26_0_VE1000.json,259184,456215,34,Woman
13,627264,final-intermixed-textured,v2,jsons/MX_seq26_0_VE1000.json,http://54.235.29.9/FacialAge/BNav_EC2/DepthDuration/MX_fS_VE_MTurk/MX_fS_HTML.html#186,186,1680,963,1680,1050,1-8-2024,19-36-55,14,VR_target_stimuli/s26_1.3x_4_441_BC.png,1000,1.3x,4.0,4.5,3710,1003,meters,jsons/MX_seq26_0_VE1000.json,259184,456215,34,Woman
14,627264,final-intermixed-textured,v2,jsons/MX_seq26_0_VE1000.json,http://54.235.29.9/FacialAge/BNav_EC2/DepthDuration/MX_fS_VE_MTurk/MX_fS_HTML.html#186,186,1680,963,1680,1050,1-8-2024,19-36-55,15,VR_target_stimuli/s12_1x_3.1_372.png,1000,1x,3.1,4.0,3603,1002,meters,jsons/MX_seq26_0_VE1000.json,259184,456215,34,Woman
15,627264,final-intermixed-textured,v2,jsons/MX_seq26_0_VE1000.json,http://54.235.29.9/FacialAge/BNav_EC2/DepthDuration/MX_fS_VE_MTurk/MX_fS_HTML.html#186,186,1680,963,1680,1050,1-8-2024,19-36-55,16,VR_target_stimuli/s30_0.75x_2.3_332.png,1000,0.75x,2.3,4.0,3594,994,meters,jsons/MX_seq26_0_VE1000.json,259184,456215,34,Woman
16,627264,final-intermixed-textured,v2,jsons/MX_seq26_0_VE1000.json,http://54.235.29.9/FacialAge/BNav_EC2/DepthDuration/MX_fS_VE_MTurk/MX_fS_HTML.html#186,186,1680,963,1680,1050,1-8-2024,19-36-55,17,catch_stimuli/c1.png,1000,,,0.0,4401,1001,meters,jsons/MX_seq26_0_VE1000.json,259184,456215,34,Woman
17,627264,final-intermixed-textured,v2,jsons/MX_seq26_0_VE1000.json,http://54.235.29.9/FacialAge/BNav_EC2/DepthDuration/MX_fS_VE_MTurk/MX_fS_HTML.html#186,186,1680,963,1680,1050,1-8-2024,19-36-55,18,VR_target_stimuli/s16_0.75x_1_217_BC.png,1000,0.75x,1.0,2.0,3262,1002,meters,jsons/MX_seq26_0_VE1000.json,259184,456215,34,Woman
18,627264,final-intermixed-textured,v2,jsons/MX_seq26_0_VE1000.json,http://54.235.29.9/FacialAge/BNav_EC2/DepthDuration/MX_fS_VE_MTurk/MX_fS_HTML.html#186,186,1680,963,1680,1050,1-8-2024,19-36-55,19,VR_target_stimuli/s17_1.3x_1.8_300.png,1000,1.3x,1.8,2.0,4294,1001,meters,jsons/MX_seq26_0_VE1000.json,259184,456215,34,Woman
19,627264,final-intermixed-textured,v2,jsons/MX_seq26_0_VE1000.json,http://54.235.29.9/FacialAge/BNav_EC2/DepthDuration/MX_fS_VE_MTurk/MX_fS_HTML.html#186,186,1680,963,1680,1050,1-8-2024,19-36-55,20,VR_target_stimuli/s5_1x_4_378_BC.png,1000,1x,4.0,3.0,3042,1003,meters,jsons/MX_seq26_0_VE1000.json,259184,456215,34,Woman
20,627264,final-intermixed-textured,v2,jsons/MX_seq26_0_VE1000.json,http://54.235.29.9/FacialAge/BNav_EC2/DepthDuration/MX_fS_VE_MTurk/MX_fS_HTML.html#186,186,1680,963,1680,1050,1-8-2024,19-36-55,21,VR_target_stimuli/s37_1.3x_3.3_555.png,1000,1.3x,3.3,3.0,3739,1003,meters,jsons/MX_seq26_0_VE1000.json,259184,456215,34,Woman
21,627264,final-intermixed-textured,v2,jsons/MX_seq26_0_VE1000.json,http://54.235.29.9/FacialAge/BNav_EC2/DepthDuration/MX_fS_VE_MTurk/MX_fS_HTML.html#186,186,1680,963,1680,1050,1-8-2024,19-36-55,22,VR_target_stimuli/s46_0.75x_2.42_343.png,1000,0.75x,2.42,4.0,3401,1004,meters,jsons/MX_seq26_0_VE1000.json,259184,456215,34,Woman
22,627264,final-intermixed-textured,v2,jsons/MX_seq26_0_VE1000.json,http://54.235.29.9/FacialAge/BNav_EC2/DepthDuration/MX_fS_VE_MTurk/MX_fS_HTML.html#186,186,1680,963,1680,1050,1-8-2024,19-36-55,23,VR_target_stimuli/s22_1x_4.29_354_BC.png,1000,1x,4.29,4.0,3204,1002,meters,jsons/MX_seq26_0_VE1000.json,259184,456215,34,Woman
23,627264,final-intermixed-textured,v2,jsons/MX_seq26_0_VE1000.json,http://54.235.29.9/FacialAge/BNav_EC2/DepthDuration/MX_fS_VE_MTurk/MX_fS_HTML.html#186,186,1680,963,1680,1050,1-8-2024,19-36-55,24,VR_target_stimuli/s42_0.75x_3.2_301_BC.png,1000,0.75x,3.2,4.0,3588,1003,meters,jsons/MX_seq26_0_VE1000.json,259184,456215,34,Woman
24,627264,final-intermixed-textured,v2,jsons/MX_seq26_0_VE1000.json,http://54.235.29.9/FacialAge/BNav_EC2/DepthDuration/MX_fS_VE_MTurk/MX_fS_HTML.html#186,186,1680,963,1680,1050,1-8-2024,19-36-55,25,VR_target_stimuli/s25_1.3x_1.4_299_BC.png,1000,1.3x,1.4,2.0,4054,1001,meters,jsons/MX_seq26_0_VE1000.json,259184,456215,34,Woman
25,627264,final-intermixed-textured,v2,jsons/MX_seq26_0_VE1000.json,http://54.235.29.9/FacialAge/BNav_EC2/DepthDuration/MX_fS_VE_MTurk/MX_fS_HTML.html#186,186,1680,963,1680,1050,1-8-2024,19-36-55,26,catch_stimuli/c2.png,1000,,,0.0,3202,999,meters,jsons/MX_seq26_0_VE1000.json,259184,456215,34,Woman
26,627264,final-intermixed-textured,v2,jsons/MX_seq26_0_VE1000.json,http://54.235.29.9/FacialAge/BNav_EC2/DepthDuration/MX_fS_VE_MTurk/MX_fS_HTML.html#186,186,1680,963,1680,1050,1-8-2024,19-36-55,27,VR_target_stimuli/s50_1x_4.53_518.png,1000,1x,4.53,2.5,4813,1002,meters,jsons/MX_seq26_0_VE1000.json,259184,456215,34,Woman
27,627264,final-intermixed-textured,v2,jsons/MX_seq26_0_VE1000.json,http://54.235.29.9/FacialAge/BNav_EC2/DepthDuration/MX_fS_VE_MTurk/MX_fS_HTML.html#186,186,1680,963,1680,1050,1-8-2024,19-36-55,28,VR_target_stimuli/s53_1x_1.6_387.png,1000,1x,1.6,2.0,3825,998,meters,jsons/MX_seq26_0_VE1000.json,259184,456215,34,Woman
28,627264,final-intermixed-textured,v2,jsons/MX_seq26_0_VE1000.json,http://54.235.29.9/FacialAge/BNav_EC2/DepthDuration/MX_fS_VE_MTurk/MX_fS_HTML.html#186,186,1680,963,1680,1050,1-8-2024,19-36-55,29,VR_target_stimuli/s38_0.75x_3.55_346_BC.png,1000,0.75x,3.55,3.5,4207,995,meters,jsons/MX_seq26_0_VE1000.json,259184,456215,34,Woman
29,627264,final-intermixed-textured,v2,jsons/MX_seq26_0_VE1000.json,http://54.235.29.9/FacialAge/BNav_EC2/DepthDuration/MX_fS_VE_MTurk/MX_fS_HTML.html#186,186,1680,963,1680,1050,1-8-2024,19-36-55,30,VR_target_stimuli/s9_1.3x_1.2_276_BC.png,1000,1.3x,1.2,1.5,4190,995,meters,jsons/MX_seq26_0_VE1000.json,259184,456215,34,Woman
30,627264,final-intermixed-textured,v2,jsons/MX_seq26_0_VE1000.json,http://54.235.29.9/FacialAge/BNav_EC2/DepthDuration/MX_fS_VE_MTurk/MX_fS_HTML.html#186,186,1680,963,1680,1050,1-8-2024,19-36-55,31,VR_target_stimuli/s44_1x_4.4_317_BC.png,1000,1x,4.4,4.0,5575,1001,meters,jsons/MX_seq26_0_VE1000.json,259184,456215,34,Woman
31,627264,final-intermixed-textured,v2,jsons/MX_seq26_0_VE1000.json,http://54.235.29.9/FacialAge/BNav_EC2/DepthDuration/MX_fS_VE_MTurk/MX_fS_HTML.html#186,186,1680,963,1680,1050,1-8-2024,19-36-55,32,VR_target_stimuli/s3_1.3x_5_390.png,1000,1.3x,5.0,5.0,3317,1000,meters,jsons/MX_seq26_0_VE1000.json,259184,456215,34,Woman
32,627264,final-intermixed-textured,v2,jsons/MX_seq26_0_VE1000.json,http://54.235.29.9/FacialAge/BNav_EC2/DepthDuration/MX_fS_VE_MTurk/MX_fS_HTML.html#186,186,1680,963,1680,1050,1-8-2024,19-36-55,33,VR_target_stimuli/s1_0.75x_1.7_265.png,1000,0.75x,1.7,2.0,3956,1002,meters,jsons/MX_seq26_0_VE1000.json,259184,456215,34,Woman
33,627264,final-intermixed-textured,v2,jsons/MX_seq26_0_VE1000.json,http://54.235.29.9/FacialAge/BNav_EC2/DepthDuration/MX_fS_VE_MTurk/MX_fS_HTML.html#186,186,1680,963,1680,1050,1-8-2024,19-36-55,34,catch_stimuli/c3.png,1000,,,0.0,4061,1000,meters,jsons/MX_seq26_0_VE1000.json,259184,456215,34,Woman
34,627264,final-intermixed-textured,v2,jsons/MX_seq26_0_VE1000.json,http://54.235.29.9/FacialAge/BNav_EC2/DepthDuration/MX_fS_VE_MTurk/MX_fS_HTML.html#186,186,1680,963,1680,1050,1-8-2024,19-36-55,35,VR_target_stimuli/s11_1.3x_5_363_BC.png,1000,1.3x,5.0,3.5,4657,1001,meters,jsons/MX_seq26_0_VE1000.json,259184,456215,34,Woman
35,627264,final-intermixed-textured,v2,jsons/MX_seq26_0_VE1000.json,http://54.235.29.9/FacialAge/BNav_EC2/DepthDuration/MX_fS_VE_MTurk/MX_fS_HTML.html#186,186,1680,963,1680,1050,1-8-2024,19-36-55,36,VR_target_stimuli/s2_1x_2.7_390_BC.png,1000,1x,2.7,3.0,3470,998,meters,jsons/MX_seq26_0_VE1000.json,259184,456215,34,Woman
36,627264,final-intermixed-textured,v2,jsons/MX_seq26_0_VE1000.json,http://54.235.29.9/FacialAge/BNav_EC2/DepthDuration/MX_fS_VE_MTurk/MX_fS_HTML.html#186,186,1680,963,1680,1050,1-8-2024,19-36-55,37,VR_target_stimuli/s6_0.75x_2.1_290.png,1000,0.75x,2.1,4.0,4549,997,meters,jsons/MX_seq26_0_VE1000.json,259184,456215,34,Woman
37,627264,final-intermixed-textured,v2,jsons/MX_seq26_0_VE1000.json,http://54.235.29.9/FacialAge/BNav_EC2/DepthDuration/MX_fS_VE_MTurk/MX_fS_HTML.html#186,186,1680,963,1680,1050,1-8-2024,19-36-55,38,VR_target_stimuli/s0_0.75x_2.6_345_BC.png,1000,0.75x,2.6,3.0,4361,998,meters,jsons/MX_seq26_0_VE1000.json,259184,456215,34,Woman
38,627264,final-intermixed-textured,v2,jsons/MX_seq26_0_VE1000.json,http://54.235.29.9/FacialAge/BNav_EC2/DepthDuration/MX_fS_VE_MTurk/MX_fS_HTML.html#186,186,1680,963,1680,1050,1-8-2024,19-36-55,39,VR_target_stimuli/s34_1.3x_2.8_294.png,1000,1.3x,2.8,3.0,4234,1003,meters,jsons/MX_seq26_0_VE1000.json,259184,456215,34,Woman
39,627264,final-intermixed-textured,v2,jsons/MX_seq26_0_VE1000.json,http://54.235.29.9/FacialAge/BNav_EC2/DepthDuration/MX_fS_VE_MTurk/MX_fS_HTML.html#186,186,1680,963,1680,1050,1-8-2024,19-36-55,40,VR_target_stimuli/s13_1x_2.4_310.png,1000,1x,2.4,5.0,3750,1001,meters,jsons/MX_seq26_0_VE1000.json,259184,456215,34,Woman
40,627264,final-intermixed-textured,v2,jsons/MX_seq26_0_VE1000.json,http://54.235.29.9/FacialAge/BNav_EC2/DepthDuration/MX_fS_VE_MTurk/MX_fS_HTML.html#186,186,1680,963,1680,1050,1-8-2024,19-36-55,41,VR_target_stimuli/s14_1.3x_3.83_359.png,1000,1.3x,3.83,3.0,4336,999,meters,jsons/MX_seq26_0_VE1000.json,259184,456215,34,Woman
41,627264,final-intermixed-textured,v2,jsons/MX_seq26_0_VE1000.json,http://54.235.29.9/FacialAge/BNav_EC2/DepthDuration/MX_fS_VE_MTurk/MX_fS_HTML.html#186,186,1680,963,1680,1050,1-8-2024,19-36-55,42,VR_target_stimuli/s47_0.75x_3.45_366_BC.png,1000,0.75x,3.45,3.5,3531,997,meters,jsons/MX_seq26_0_VE1000.json,259184,456215,34,Woman
42,627264,final-intermixed-textured,v2,jsons/MX_seq26_0_VE1000.json,http://54.235.29.9/FacialAge/BNav_EC2/DepthDuration/MX_fS_VE_MTurk/MX_fS_HTML.html#186,186,1680,963,1680,1050,1-8-2024,19-36-55,43,VR_target_stimuli/s29_1x_1.3_250_BC.png,1000,1x,1.3,2.5,4034,1000,meters,jsons/MX_seq26_0_VE1000.json,259184,456215,34,Woman
43,627264,final-intermixed-textured,v2,jsons/MX_seq26_0_VE1000.json,http://54.235.29.9/FacialAge/BNav_EC2/DepthDuration/MX_fS_VE_MTurk/MX_fS_HTML.html#186,186,1680,963,1680,1050,1-8-2024,19-36-55,44,VR_target_stimuli/s28_0.75x_3.2_357.png,1000,0.75x,3.2,3.0,2950,1001,meters,jsons/MX_seq26_0_VE1000.json,259184,456215,34,Woman
44,627264,final-intermixed-textured,v2,jsons/MX_seq26_0_VE1000.json,http://54.235.29.9/FacialAge/BNav_EC2/DepthDuration/MX_fS_VE_MTurk/MX_fS_HTML.html#186,186,1680,963,1680,1050,1-8-2024,19-36-55,45,catch_stimuli/c4.png,1000,,,0.0,3952,1000,meters,jsons/MX_seq26_0_VE1000.json,259184,456215,34,Woman
45,627264,final-intermixed-textured,v2,jsons/MX_seq26_0_VE1000.json,http://54.235.29.9/FacialAge/BNav_EC2/DepthDuration/MX_fS_VE_MTurk/MX_fS_HTML.html#186,186,1680,963,1680,1050,1-8-2024,19-36-55,46,VR_target_stimuli/s48_1.3x_2.55_255_BC.png,1000,1.3x,2.55,3.0,3741,999,meters,jsons/MX_seq26_0_VE1000.json,259184,456215,34,Woman
46,627264,final-intermixed-textured,v2,jsons/MX_seq26_0_VE1000.json,http://54.235.29.9/FacialAge/BNav_EC2/DepthDuration/MX_fS_VE_MTurk/MX_fS_HTML.html#186,186,1680,963,1680,1050,1-8-2024,19-36-55,47,VR_target_stimuli/s19_1x_1.21_263.png,1000,1x,1.21,2.5,3831,995,meters,jsons/MX_seq26_0_VE1000.json,259184,456215,34,Woman
47,627264,final-intermixed-textured,v2,jsons/MX_seq26_0_VE1000.json,http://54.235.29.9/FacialAge/BNav_EC2/DepthDuration/MX_fS_VE_MTurk/MX_fS_HTML.html#186,186,1680,963,1680,1050,1-8-2024,19-36-55,48,VR_target_stimuli/s21_1x_4.22_379_BC.png,1000,1x,4.22,5.0,3545,1002,meters,jsons/MX_seq26_0_VE1000.json,259184,456215,34,Woman
48,627264,final-intermixed-textured,v2,jsons/MX_seq26_0_VE1000.json,http://54.235.29.9/FacialAge/BNav_EC2/DepthDuration/MX_fS_VE_MTurk/MX_fS_HTML.html#186,186,1680,963,1680,1050,1-8-2024,19-36-55,49,VR_target_stimuli/s8_0.75x_3.1_325.png,1000,0.75x,3.1,5.0,3645,999,meters,jsons/MX_seq26_0_VE1000.json,259184,456215,34,Woman
49,627264,final-intermixed-textured,v2,jsons/MX_seq26_0_VE1000.json,http://54.235.29.9/FacialAge/BNav_EC2/DepthDuration/MX_fS_VE_MTurk/MX_fS_HTML.html#186,186,1680,963,1680,1050,1-8-2024,19-36-55,50,VR_target_stimuli/s27_1.3x_1.76_250.png,1000,1.3x,1.76,3.0,3343,1001,meters,jsons/MX_seq26_0_VE1000.json,259184,456215,34,Woman
50,627264,final-intermixed-textured,v2,jsons/MX_seq26_0_VE1000.json,http://54.235.29.9/FacialAge/BNav_EC2/DepthDuration/MX_fS_VE_MTurk/MX_fS_HTML.html#186,186,1680,963,1680,1050,1-8-2024,19-36-55,51,VR_target_stimuli/s15_0.75x_4.2_388_BC.png,1000,0.75x,4.2,4.0,3817,1003,meters,jsons/MX_seq26_0_VE1000.json,259184,456215,34,Woman
51,627264,final-intermixed-textured,v2,jsons/MX_seq26_0_VE1000.json,http://54.235.29.9/FacialAge/BNav_EC2/DepthDuration/MX_fS_VE_MTurk/MX_fS_HTML.html#186,186,1680,963,1680,1050,1-8-2024,19-36-55,52,VR_target_stimuli/s4_1x_1.4_313.png,1000,1x,1.4,2.5,3582,1002,meters,jsons/MX_seq26_0_VE1000.json,259184,456215,34,Woman
52,627264,final-intermixed-textured,v2,jsons/MX_seq26_0_VE1000.json,http://54.235.29.9/FacialAge/BNav_EC2/DepthDuration/MX_fS_VE_MTurk/MX_fS_HTML.html#186,186,1680,963,1680,1050,1-8-2024,19-36-55,53,catch_stimuli/c5.png,1000,,,0.0,3944,1004,meters,jsons/MX_seq26_0_VE1000.json,259184,456215,34,Woman
53,627264,final-intermixed-textured,v2,jsons/MX_seq26_0_VE1000.json,http://54.235.29.9/FacialAge/BNav_EC2/DepthDuration/MX_fS_VE_MTurk/MX_fS_HTML.html#186,186,1680,963,1680,1050,1-8-2024,19-36-55,54,VR_target_stimuli/s35_1.3x_2_338_BC.png,1000,1.3x,2.0,2.5,3999,999,meters,jsons/MX_seq26_0_VE1000.json,259184,456215,34,Woman
54,627264,final-intermixed-textured,v2,jsons/MX_seq26_0_VE1000.json,http://54.235.29.9/FacialAge/BNav_EC2/DepthDuration/MX_fS_VE_MTurk/MX_fS_HTML.html#186,186,1680,963,1680,1050,1-8-2024,19-36-55,55,VR_target_stimuli/s49_1x_4.67_341.png,1000,1x,4.67,3.0,3045,1002,meters,jsons/MX_seq26_0_VE1000.json,259184,456215,34,Woman
55,627264,final-intermixed-textured,v2,jsons/MX_seq26_0_VE1000.json,http://54.235.29.9/FacialAge/BNav_EC2/DepthDuration/MX_fS_VE_MTurk/MX_fS_HTML.html#186,186,1680,963,1680,1050,1-8-2024,19-36-55,56,VR_target_stimuli/s7_0.75x_1.5_253_BC.png,1000,0.75x,1.5,3.0,5450,1003,meters,jsons/MX_seq26_0_VE1000.json,259184,456215,34,Woman
56,627264,final-intermixed-textured,v2,jsons/MX_seq26_0_VE1000.json,http://54.235.29.9/FacialAge/BNav_EC2/DepthDuration/MX_fS_VE_MTurk/MX_fS_HTML.html#186,186,1680,963,1680,1050,1-8-2024,19-36-55,57,VR_target_stimuli/s20_1.3x_4.99_412_BC.png,1000,1.3x,4.99,4.0,3054,1000,meters,jsons/MX_seq26_0_VE1000.json,259184,456215,34,Woman
57,627264,final-intermixed-textured,v2,jsons/MX_seq26_0_VE1000.json,http://54.235.29.9/FacialAge/BNav_EC2/DepthDuration/MX_fS_VE_MTurk/MX_fS_HTML.html#186,186,1680,963,1680,1050,1-8-2024,19-36-55,58,VR_target_stimuli/s31_1.3x_4.96_342.png,1000,1.3x,4.96,2.0,4001,1001,meters,jsons/MX_seq26_0_VE1000.json,259184,456215,34,Woman
58,627264,final-intermixed-textured,v2,jsons/MX_seq26_0_VE1000.json,http://54.235.29.9/FacialAge/BNav_EC2/DepthDuration/MX_fS_VE_MTurk/MX_fS_HTML.html#186,186,1680,963,1680,1050,1-8-2024,19-36-55,59,VR_target_stimuli/s33_1x_3.1_366_BC.png,1000,1x,3.1,3.0,3215,997,meters,jsons/MX_seq26_0_VE1000.json,259184,456215,34,Woman
59,627264,final-intermixed-textured,v2,jsons/MX_seq26_0_VE1000.json,http://54.235.29.9/FacialAge/BNav_EC2/DepthDuration/MX_fS_VE_MTurk/MX_fS_HTML.html#186,186,1680,963,1680,1050,1-8-2024,19-36-55,60,VR_target_stimuli/s52_0.75x_3.2_270.png,1000,0.75x,3.2,3.0,3076,1002,meters,jsons/MX_seq26_0_VE1000.json,259184,456215,34,Woman
