,subjID,experimentName,versionName,sequenceName,url,selected_row,windowWidth,windowHeight,screenWidth,screenHeight,startDate,startTime,trial,stimulus,duration,scale,actual_depth,depth_estimate,trial_RT,log_sceneDuration,unitSelection,seq_filepath,experimentTime,totalTime,age,gender
0,632547,final-intermixed-textured,v2,jsons/MX_seq11_1_VE1000.json,http://54.235.29.9/FacialAge/BNav_EC2/DepthDuration/MX_fS_VE_MTurk/MX_fS_HTML.html#115,115,1920,1080,1920,1080,1-8-2024,13-58-9,1,VR_target_stimuli/s28_1.3x_3.2_365.png,1000,1.3x,3.2,3.5,4229,1008,meters,jsons/MX_seq11_1_VE1000.json,222579,357847,23,Man
1,632547,final-intermixed-textured,v2,jsons/MX_seq11_1_VE1000.json,http://54.235.29.9/FacialAge/BNav_EC2/DepthDuration/MX_fS_VE_MTurk/MX_fS_HTML.html#115,115,1920,1080,1920,1080,1-8-2024,13-58-9,2,VR_target_stimuli/s48_0.75x_2.55_243.png,1000,0.75x,2.55,4.0,5014,995,meters,jsons/MX_seq11_1_VE1000.json,222579,357847,23,Man
2,632547,final-intermixed-textured,v2,jsons/MX_seq11_1_VE1000.json,http://54.235.29.9/FacialAge/BNav_EC2/DepthDuration/MX_fS_VE_MTurk/MX_fS_HTML.html#115,115,1920,1080,1920,1080,1-8-2024,13-58-9,3,VR_target_stimuli/s19_1x_1.21_263_BC.png,1000,1x,1.21,1.0,2440,1005,meters,jsons/MX_seq11_1_VE1000.json,222579,357847,23,Man
3,632547,final-intermixed-textured,v2,jsons/MX_seq11_1_VE1000.json,http://54.235.29.9/FacialAge/BNav_EC2/DepthDuration/MX_fS_VE_MTurk/MX_fS_HTML.html#115,115,1920,1080,1920,1080,1-8-2024,13-58-9,4,VR_target_stimuli/s21_0.75x_4.22_374_BC.png,1000,0.75x,4.22,8.0,3305,1003,meters,jsons/MX_seq11_1_VE1000.json,222579,357847,23,Man
4,632547,final-intermixed-textured,v2,jsons/MX_seq11_1_VE1000.json,http://54.235.29.9/FacialAge/BNav_EC2/DepthDuration/MX_fS_VE_MTurk/MX_fS_HTML.html#115,115,1920,1080,1920,1080,1-8-2024,13-58-9,5,VR_target_stimuli/s8_1.3x_3.1_345_BC.png,1000,1.3x,3.1,3.0,2496,1002,meters,jsons/MX_seq11_1_VE1000.json,222579,357847,23,Man
5,632547,final-intermixed-textured,v2,jsons/MX_seq11_1_VE1000.json,http://54.235.29.9/FacialAge/BNav_EC2/DepthDuration/MX_fS_VE_MTurk/MX_fS_HTML.html#115,115,1920,1080,1920,1080,1-8-2024,13-58-9,6,VR_target_stimuli/s27_1x_1.76_248.png,1000,1x,1.76,3.5,4324,1006,meters,jsons/MX_seq11_1_VE1000.json,222579,357847,23,Man
6,632547,final-intermixed-textured,v2,jsons/MX_seq11_1_VE1000.json,http://54.235.29.9/FacialAge/BNav_EC2/DepthDuration/MX_fS_VE_MTurk/MX_fS_HTML.html#115,115,1920,1080,1920,1080,1-8-2024,13-58-9,7,catch_stimuli/c0.png,1000,,,0.0,2683,992,meters,jsons/MX_seq11_1_VE1000.json,222579,357847,23,Man
7,632547,final-intermixed-textured,v2,jsons/MX_seq11_1_VE1000.json,http://54.235.29.9/FacialAge/BNav_EC2/DepthDuration/MX_fS_VE_MTurk/MX_fS_HTML.html#115,115,1920,1080,1920,1080,1-8-2024,13-58-9,8,VR_target_stimuli/s15_1x_4.2_390_BC.png,1000,1x,4.2,3.0,3357,1006,meters,jsons/MX_seq11_1_VE1000.json,222579,357847,23,Man
8,632547,final-intermixed-textured,v2,jsons/MX_seq11_1_VE1000.json,http://54.235.29.9/FacialAge/BNav_EC2/DepthDuration/MX_fS_VE_MTurk/MX_fS_HTML.html#115,115,1920,1080,1920,1080,1-8-2024,13-58-9,9,VR_target_stimuli/s4_0.75x_1.4_301_BC.png,1000,0.75x,1.4,1.0,2364,995,meters,jsons/MX_seq11_1_VE1000.json,222579,357847,23,Man
9,632547,final-intermixed-textured,v2,jsons/MX_seq11_1_VE1000.json,http://54.235.29.9/FacialAge/BNav_EC2/DepthDuration/MX_fS_VE_MTurk/MX_fS_HTML.html#115,115,1920,1080,1920,1080,1-8-2024,13-58-9,10,VR_target_stimuli/s35_1.3x_2_338.png,1000,1.3x,2.0,3.0,2313,997,meters,jsons/MX_seq11_1_VE1000.json,222579,357847,23,Man
10,632547,final-intermixed-textured,v2,jsons/MX_seq11_1_VE1000.json,http://54.235.29.9/FacialAge/BNav_EC2/DepthDuration/MX_fS_VE_MTurk/MX_fS_HTML.html#115,115,1920,1080,1920,1080,1-8-2024,13-58-9,11,VR_target_stimuli/s49_0.75x_4.67_328.png,1000,0.75x,4.67,5.0,3055,987,meters,jsons/MX_seq11_1_VE1000.json,222579,357847,23,Man
11,632547,final-intermixed-textured,v2,jsons/MX_seq11_1_VE1000.json,http://54.235.29.9/FacialAge/BNav_EC2/DepthDuration/MX_fS_VE_MTurk/MX_fS_HTML.html#115,115,1920,1080,1920,1080,1-8-2024,13-58-9,12,VR_target_stimuli/s7_1x_1.5_255.png,1000,1x,1.5,2.0,2885,994,meters,jsons/MX_seq11_1_VE1000.json,222579,357847,23,Man
12,632547,final-intermixed-textured,v2,jsons/MX_seq11_1_VE1000.json,http://54.235.29.9/FacialAge/BNav_EC2/DepthDuration/MX_fS_VE_MTurk/MX_fS_HTML.html#115,115,1920,1080,1920,1080,1-8-2024,13-58-9,13,VR_target_stimuli/s20_1.3x_4.99_412_BC.png,1000,1.3x,4.99,4.0,2689,1008,meters,jsons/MX_seq11_1_VE1000.json,222579,357847,23,Man
13,632547,final-intermixed-textured,v2,jsons/MX_seq11_1_VE1000.json,http://54.235.29.9/FacialAge/BNav_EC2/DepthDuration/MX_fS_VE_MTurk/MX_fS_HTML.html#115,115,1920,1080,1920,1080,1-8-2024,13-58-9,14,VR_target_stimuli/s31_1x_4.96_333.png,1000,1x,4.96,3.0,2608,1008,meters,jsons/MX_seq11_1_VE1000.json,222579,357847,23,Man
14,632547,final-intermixed-textured,v2,jsons/MX_seq11_1_VE1000.json,http://54.235.29.9/FacialAge/BNav_EC2/DepthDuration/MX_fS_VE_MTurk/MX_fS_HTML.html#115,115,1920,1080,1920,1080,1-8-2024,13-58-9,15,VR_target_stimuli/s33_0.75x_3.1_361.png,1000,0.75x,3.1,5.0,2188,995,meters,jsons/MX_seq11_1_VE1000.json,222579,357847,23,Man
15,632547,final-intermixed-textured,v2,jsons/MX_seq11_1_VE1000.json,http://54.235.29.9/FacialAge/BNav_EC2/DepthDuration/MX_fS_VE_MTurk/MX_fS_HTML.html#115,115,1920,1080,1920,1080,1-8-2024,13-58-9,16,VR_target_stimuli/s52_1.3x_3.2_280_BC.png,1000,1.3x,3.2,4.0,6706,1009,meters,jsons/MX_seq11_1_VE1000.json,222579,357847,23,Man
16,632547,final-intermixed-textured,v2,jsons/MX_seq11_1_VE1000.json,http://54.235.29.9/FacialAge/BNav_EC2/DepthDuration/MX_fS_VE_MTurk/MX_fS_HTML.html#115,115,1920,1080,1920,1080,1-8-2024,13-58-9,17,catch_stimuli/c1.png,1000,,,0.0,2900,992,meters,jsons/MX_seq11_1_VE1000.json,222579,357847,23,Man
17,632547,final-intermixed-textured,v2,jsons/MX_seq11_1_VE1000.json,http://54.235.29.9/FacialAge/BNav_EC2/DepthDuration/MX_fS_VE_MTurk/MX_fS_HTML.html#115,115,1920,1080,1920,1080,1-8-2024,13-58-9,18,VR_target_stimuli/s32_1.3x_1.5_224.png,1000,1.3x,1.5,3.0,2273,1010,meters,jsons/MX_seq11_1_VE1000.json,222579,357847,23,Man
18,632547,final-intermixed-textured,v2,jsons/MX_seq11_1_VE1000.json,http://54.235.29.9/FacialAge/BNav_EC2/DepthDuration/MX_fS_VE_MTurk/MX_fS_HTML.html#115,115,1920,1080,1920,1080,1-8-2024,13-58-9,19,VR_target_stimuli/s18_1x_2.25_353_BC.png,1000,1x,2.25,2.0,4635,1003,meters,jsons/MX_seq11_1_VE1000.json,222579,357847,23,Man
19,632547,final-intermixed-textured,v2,jsons/MX_seq11_1_VE1000.json,http://54.235.29.9/FacialAge/BNav_EC2/DepthDuration/MX_fS_VE_MTurk/MX_fS_HTML.html#115,115,1920,1080,1920,1080,1-8-2024,13-58-9,20,VR_target_stimuli/s39_0.75x_1_205_BC.png,1000,0.75x,1.0,2.0,2580,1000,meters,jsons/MX_seq11_1_VE1000.json,222579,357847,23,Man
20,632547,final-intermixed-textured,v2,jsons/MX_seq11_1_VE1000.json,http://54.235.29.9/FacialAge/BNav_EC2/DepthDuration/MX_fS_VE_MTurk/MX_fS_HTML.html#115,115,1920,1080,1920,1080,1-8-2024,13-58-9,21,VR_target_stimuli/s51_1x_3.64_461_BC.png,1000,1x,3.64,3.0,2304,1001,meters,jsons/MX_seq11_1_VE1000.json,222579,357847,23,Man
21,632547,final-intermixed-textured,v2,jsons/MX_seq11_1_VE1000.json,http://54.235.29.9/FacialAge/BNav_EC2/DepthDuration/MX_fS_VE_MTurk/MX_fS_HTML.html#115,115,1920,1080,1920,1080,1-8-2024,13-58-9,22,VR_target_stimuli/s43_1.3x_2.2_363_BC.png,1000,1.3x,2.2,3.0,2383,1002,meters,jsons/MX_seq11_1_VE1000.json,222579,357847,23,Man
22,632547,final-intermixed-textured,v2,jsons/MX_seq11_1_VE1000.json,http://54.235.29.9/FacialAge/BNav_EC2/DepthDuration/MX_fS_VE_MTurk/MX_fS_HTML.html#115,115,1920,1080,1920,1080,1-8-2024,13-58-9,23,VR_target_stimuli/s24_0.75x_3.3_344.png,1000,0.75x,3.3,5.0,3246,990,meters,jsons/MX_seq11_1_VE1000.json,222579,357847,23,Man
23,632547,final-intermixed-textured,v2,jsons/MX_seq11_1_VE1000.json,http://54.235.29.9/FacialAge/BNav_EC2/DepthDuration/MX_fS_VE_MTurk/MX_fS_HTML.html#115,115,1920,1080,1920,1080,1-8-2024,13-58-9,24,VR_target_stimuli/s10_1.3x_2.7_325.png,1000,1.3x,2.7,3.0,3814,998,meters,jsons/MX_seq11_1_VE1000.json,222579,357847,23,Man
24,632547,final-intermixed-textured,v2,jsons/MX_seq11_1_VE1000.json,http://54.235.29.9/FacialAge/BNav_EC2/DepthDuration/MX_fS_VE_MTurk/MX_fS_HTML.html#115,115,1920,1080,1920,1080,1-8-2024,13-58-9,25,VR_target_stimuli/s36_1x_4.1_423.png,1000,1x,4.1,4.0,2394,1005,meters,jsons/MX_seq11_1_VE1000.json,222579,357847,23,Man
25,632547,final-intermixed-textured,v2,jsons/MX_seq11_1_VE1000.json,http://54.235.29.9/FacialAge/BNav_EC2/DepthDuration/MX_fS_VE_MTurk/MX_fS_HTML.html#115,115,1920,1080,1920,1080,1-8-2024,13-58-9,26,catch_stimuli/c2.png,1000,,,0.0,2497,1007,meters,jsons/MX_seq11_1_VE1000.json,222579,357847,23,Man
26,632547,final-intermixed-textured,v2,jsons/MX_seq11_1_VE1000.json,http://54.235.29.9/FacialAge/BNav_EC2/DepthDuration/MX_fS_VE_MTurk/MX_fS_HTML.html#115,115,1920,1080,1920,1080,1-8-2024,13-58-9,27,VR_target_stimuli/s40_0.75x_1.2_308_BC.png,1000,0.75x,1.2,1.5,4083,1010,meters,jsons/MX_seq11_1_VE1000.json,222579,357847,23,Man
27,632547,final-intermixed-textured,v2,jsons/MX_seq11_1_VE1000.json,http://54.235.29.9/FacialAge/BNav_EC2/DepthDuration/MX_fS_VE_MTurk/MX_fS_HTML.html#115,115,1920,1080,1920,1080,1-8-2024,13-58-9,28,VR_target_stimuli/s41_0.75x_2.1_281_BC.png,1000,0.75x,2.1,2.5,3757,991,meters,jsons/MX_seq11_1_VE1000.json,222579,357847,23,Man
28,632547,final-intermixed-textured,v2,jsons/MX_seq11_1_VE1000.json,http://54.235.29.9/FacialAge/BNav_EC2/DepthDuration/MX_fS_VE_MTurk/MX_fS_HTML.html#115,115,1920,1080,1920,1080,1-8-2024,13-58-9,29,VR_target_stimuli/s45_1.3x_3.5_377_BC.png,1000,1.3x,3.5,3.0,2569,1011,meters,jsons/MX_seq11_1_VE1000.json,222579,357847,23,Man
29,632547,final-intermixed-textured,v2,jsons/MX_seq11_1_VE1000.json,http://54.235.29.9/FacialAge/BNav_EC2/DepthDuration/MX_fS_VE_MTurk/MX_fS_HTML.html#115,115,1920,1080,1920,1080,1-8-2024,13-58-9,30,VR_target_stimuli/s23_1x_3.65_353.png,1000,1x,3.65,6.0,4283,1007,meters,jsons/MX_seq11_1_VE1000.json,222579,357847,23,Man
30,632547,final-intermixed-textured,v2,jsons/MX_seq11_1_VE1000.json,http://54.235.29.9/FacialAge/BNav_EC2/DepthDuration/MX_fS_VE_MTurk/MX_fS_HTML.html#115,115,1920,1080,1920,1080,1-8-2024,13-58-9,31,VR_target_stimuli/s26_0.75x_4_430.png,1000,0.75x,4.0,4.0,3099,1011,meters,jsons/MX_seq11_1_VE1000.json,222579,357847,23,Man
31,632547,final-intermixed-textured,v2,jsons/MX_seq11_1_VE1000.json,http://54.235.29.9/FacialAge/BNav_EC2/DepthDuration/MX_fS_VE_MTurk/MX_fS_HTML.html#115,115,1920,1080,1920,1080,1-8-2024,13-58-9,32,VR_target_stimuli/s12_1x_3.1_372_BC.png,1000,1x,3.1,4.0,2251,1011,meters,jsons/MX_seq11_1_VE1000.json,222579,357847,23,Man
32,632547,final-intermixed-textured,v2,jsons/MX_seq11_1_VE1000.json,http://54.235.29.9/FacialAge/BNav_EC2/DepthDuration/MX_fS_VE_MTurk/MX_fS_HTML.html#115,115,1920,1080,1920,1080,1-8-2024,13-58-9,33,VR_target_stimuli/s30_1.3x_2.3_337.png,1000,1.3x,2.3,3.0,2654,1005,meters,jsons/MX_seq11_1_VE1000.json,222579,357847,23,Man
33,632547,final-intermixed-textured,v2,jsons/MX_seq11_1_VE1000.json,http://54.235.29.9/FacialAge/BNav_EC2/DepthDuration/MX_fS_VE_MTurk/MX_fS_HTML.html#115,115,1920,1080,1920,1080,1-8-2024,13-58-9,34,catch_stimuli/c3.png,1000,,,0.0,2480,993,meters,jsons/MX_seq11_1_VE1000.json,222579,357847,23,Man
34,632547,final-intermixed-textured,v2,jsons/MX_seq11_1_VE1000.json,http://54.235.29.9/FacialAge/BNav_EC2/DepthDuration/MX_fS_VE_MTurk/MX_fS_HTML.html#115,115,1920,1080,1920,1080,1-8-2024,13-58-9,35,VR_target_stimuli/s16_1x_1_219.png,1000,1x,1.0,2.0,2344,998,meters,jsons/MX_seq11_1_VE1000.json,222579,357847,23,Man
35,632547,final-intermixed-textured,v2,jsons/MX_seq11_1_VE1000.json,http://54.235.29.9/FacialAge/BNav_EC2/DepthDuration/MX_fS_VE_MTurk/MX_fS_HTML.html#115,115,1920,1080,1920,1080,1-8-2024,13-58-9,36,VR_target_stimuli/s17_0.75x_1.8_285_BC.png,1000,0.75x,1.8,3.0,2185,1007,meters,jsons/MX_seq11_1_VE1000.json,222579,357847,23,Man
36,632547,final-intermixed-textured,v2,jsons/MX_seq11_1_VE1000.json,http://54.235.29.9/FacialAge/BNav_EC2/DepthDuration/MX_fS_VE_MTurk/MX_fS_HTML.html#115,115,1920,1080,1920,1080,1-8-2024,13-58-9,37,VR_target_stimuli/s5_1.3x_4_393.png,1000,1.3x,4.0,5.0,3119,1003,meters,jsons/MX_seq11_1_VE1000.json,222579,357847,23,Man
37,632547,final-intermixed-textured,v2,jsons/MX_seq11_1_VE1000.json,http://54.235.29.9/FacialAge/BNav_EC2/DepthDuration/MX_fS_VE_MTurk/MX_fS_HTML.html#115,115,1920,1080,1920,1080,1-8-2024,13-58-9,38,VR_target_stimuli/s37_1.3x_3.3_555_BC.png,1000,1.3x,3.3,2.0,2966,992,meters,jsons/MX_seq11_1_VE1000.json,222579,357847,23,Man
38,632547,final-intermixed-textured,v2,jsons/MX_seq11_1_VE1000.json,http://54.235.29.9/FacialAge/BNav_EC2/DepthDuration/MX_fS_VE_MTurk/MX_fS_HTML.html#115,115,1920,1080,1920,1080,1-8-2024,13-58-9,39,VR_target_stimuli/s46_1x_2.42_348_BC.png,1000,1x,2.42,4.0,3047,990,meters,jsons/MX_seq11_1_VE1000.json,222579,357847,23,Man
39,632547,final-intermixed-textured,v2,jsons/MX_seq11_1_VE1000.json,http://54.235.29.9/FacialAge/BNav_EC2/DepthDuration/MX_fS_VE_MTurk/MX_fS_HTML.html#115,115,1920,1080,1920,1080,1-8-2024,13-58-9,40,VR_target_stimuli/s22_0.75x_4.29_348.png,1000,0.75x,4.29,6.0,3431,992,meters,jsons/MX_seq11_1_VE1000.json,222579,357847,23,Man
40,632547,final-intermixed-textured,v2,jsons/MX_seq11_1_VE1000.json,http://54.235.29.9/FacialAge/BNav_EC2/DepthDuration/MX_fS_VE_MTurk/MX_fS_HTML.html#115,115,1920,1080,1920,1080,1-8-2024,13-58-9,41,VR_target_stimuli/s42_1x_3.2_303_BC.png,1000,1x,3.2,4.0,4674,994,meters,jsons/MX_seq11_1_VE1000.json,222579,357847,23,Man
41,632547,final-intermixed-textured,v2,jsons/MX_seq11_1_VE1000.json,http://54.235.29.9/FacialAge/BNav_EC2/DepthDuration/MX_fS_VE_MTurk/MX_fS_HTML.html#115,115,1920,1080,1920,1080,1-8-2024,13-58-9,42,VR_target_stimuli/s25_1.3x_1.4_299.png,1000,1.3x,1.4,1.5,4453,1001,meters,jsons/MX_seq11_1_VE1000.json,222579,357847,23,Man
42,632547,final-intermixed-textured,v2,jsons/MX_seq11_1_VE1000.json,http://54.235.29.9/FacialAge/BNav_EC2/DepthDuration/MX_fS_VE_MTurk/MX_fS_HTML.html#115,115,1920,1080,1920,1080,1-8-2024,13-58-9,43,VR_target_stimuli/s50_0.75x_4.53_517_BC.png,1000,0.75x,4.53,2.5,3861,994,meters,jsons/MX_seq11_1_VE1000.json,222579,357847,23,Man
43,632547,final-intermixed-textured,v2,jsons/MX_seq11_1_VE1000.json,http://54.235.29.9/FacialAge/BNav_EC2/DepthDuration/MX_fS_VE_MTurk/MX_fS_HTML.html#115,115,1920,1080,1920,1080,1-8-2024,13-58-9,44,VR_target_stimuli/s53_1.3x_1.6_355_BC.png,1000,1.3x,1.6,1.0,2817,1004,meters,jsons/MX_seq11_1_VE1000.json,222579,357847,23,Man
44,632547,final-intermixed-textured,v2,jsons/MX_seq11_1_VE1000.json,http://54.235.29.9/FacialAge/BNav_EC2/DepthDuration/MX_fS_VE_MTurk/MX_fS_HTML.html#115,115,1920,1080,1920,1080,1-8-2024,13-58-9,45,catch_stimuli/c4.png,1000,,,0.0,3328,1001,meters,jsons/MX_seq11_1_VE1000.json,222579,357847,23,Man
45,632547,final-intermixed-textured,v2,jsons/MX_seq11_1_VE1000.json,http://54.235.29.9/FacialAge/BNav_EC2/DepthDuration/MX_fS_VE_MTurk/MX_fS_HTML.html#115,115,1920,1080,1920,1080,1-8-2024,13-58-9,46,VR_target_stimuli/s38_1x_3.55_353.png,1000,1x,3.55,3.5,5236,991,meters,jsons/MX_seq11_1_VE1000.json,222579,357847,23,Man
46,632547,final-intermixed-textured,v2,jsons/MX_seq11_1_VE1000.json,http://54.235.29.9/FacialAge/BNav_EC2/DepthDuration/MX_fS_VE_MTurk/MX_fS_HTML.html#115,115,1920,1080,1920,1080,1-8-2024,13-58-9,47,VR_target_stimuli/s9_0.75x_1.2_260.png,1000,0.75x,1.2,2.0,2537,1004,meters,jsons/MX_seq11_1_VE1000.json,222579,357847,23,Man
47,632547,final-intermixed-textured,v2,jsons/MX_seq11_1_VE1000.json,http://54.235.29.9/FacialAge/BNav_EC2/DepthDuration/MX_fS_VE_MTurk/MX_fS_HTML.html#115,115,1920,1080,1920,1080,1-8-2024,13-58-9,48,VR_target_stimuli/s44_0.75x_4.4_314.png,1000,0.75x,4.4,6.0,3056,999,meters,jsons/MX_seq11_1_VE1000.json,222579,357847,23,Man
48,632547,final-intermixed-textured,v2,jsons/MX_seq11_1_VE1000.json,http://54.235.29.9/FacialAge/BNav_EC2/DepthDuration/MX_fS_VE_MTurk/MX_fS_HTML.html#115,115,1920,1080,1920,1080,1-8-2024,13-58-9,49,VR_target_stimuli/s3_1.3x_5_390_BC.png,1000,1.3x,5.0,5.0,2980,992,meters,jsons/MX_seq11_1_VE1000.json,222579,357847,23,Man
49,632547,final-intermixed-textured,v2,jsons/MX_seq11_1_VE1000.json,http://54.235.29.9/FacialAge/BNav_EC2/DepthDuration/MX_fS_VE_MTurk/MX_fS_HTML.html#115,115,1920,1080,1920,1080,1-8-2024,13-58-9,50,VR_target_stimuli/s1_1x_1.7_262.png,1000,1x,1.7,2.0,2648,1013,meters,jsons/MX_seq11_1_VE1000.json,222579,357847,23,Man
50,632547,final-intermixed-textured,v2,jsons/MX_seq11_1_VE1000.json,http://54.235.29.9/FacialAge/BNav_EC2/DepthDuration/MX_fS_VE_MTurk/MX_fS_HTML.html#115,115,1920,1080,1920,1080,1-8-2024,13-58-9,51,VR_target_stimuli/s11_1.3x_5_363.png,1000,1.3x,5.0,4.0,3716,1008,meters,jsons/MX_seq11_1_VE1000.json,222579,357847,23,Man
51,632547,final-intermixed-textured,v2,jsons/MX_seq11_1_VE1000.json,http://54.235.29.9/FacialAge/BNav_EC2/DepthDuration/MX_fS_VE_MTurk/MX_fS_HTML.html#115,115,1920,1080,1920,1080,1-8-2024,13-58-9,52,VR_target_stimuli/s2_0.75x_2.7_384_BC.png,1000,0.75x,2.7,3.0,2287,1001,meters,jsons/MX_seq11_1_VE1000.json,222579,357847,23,Man
52,632547,final-intermixed-textured,v2,jsons/MX_seq11_1_VE1000.json,http://54.235.29.9/FacialAge/BNav_EC2/DepthDuration/MX_fS_VE_MTurk/MX_fS_HTML.html#115,115,1920,1080,1920,1080,1-8-2024,13-58-9,53,catch_stimuli/c5.png,1000,,,0.0,3332,999,meters,jsons/MX_seq11_1_VE1000.json,222579,357847,23,Man
53,632547,final-intermixed-textured,v2,jsons/MX_seq11_1_VE1000.json,http://54.235.29.9/FacialAge/BNav_EC2/DepthDuration/MX_fS_VE_MTurk/MX_fS_HTML.html#115,115,1920,1080,1920,1080,1-8-2024,13-58-9,54,VR_target_stimuli/s6_1x_2.1_293_BC.png,1000,1x,2.1,2.0,6246,1005,meters,jsons/MX_seq11_1_VE1000.json,222579,357847,23,Man
54,632547,final-intermixed-textured,v2,jsons/MX_seq11_1_VE1000.json,http://54.235.29.9/FacialAge/BNav_EC2/DepthDuration/MX_fS_VE_MTurk/MX_fS_HTML.html#115,115,1920,1080,1920,1080,1-8-2024,13-58-9,55,VR_target_stimuli/s0_0.75x_2.6_345_BC.png,1000,0.75x,2.6,3.0,2376,1004,meters,jsons/MX_seq11_1_VE1000.json,222579,357847,23,Man
55,632547,final-intermixed-textured,v2,jsons/MX_seq11_1_VE1000.json,http://54.235.29.9/FacialAge/BNav_EC2/DepthDuration/MX_fS_VE_MTurk/MX_fS_HTML.html#115,115,1920,1080,1920,1080,1-8-2024,13-58-9,56,VR_target_stimuli/s34_1.3x_2.8_294_BC.png,1000,1.3x,2.8,4.0,2422,987,meters,jsons/MX_seq11_1_VE1000.json,222579,357847,23,Man
56,632547,final-intermixed-textured,v2,jsons/MX_seq11_1_VE1000.json,http://54.235.29.9/FacialAge/BNav_EC2/DepthDuration/MX_fS_VE_MTurk/MX_fS_HTML.html#115,115,1920,1080,1920,1080,1-8-2024,13-58-9,57,VR_target_stimuli/s13_1x_2.4_310.png,1000,1x,2.4,5.0,2753,1001,meters,jsons/MX_seq11_1_VE1000.json,222579,357847,23,Man
57,632547,final-intermixed-textured,v2,jsons/MX_seq11_1_VE1000.json,http://54.235.29.9/FacialAge/BNav_EC2/DepthDuration/MX_fS_VE_MTurk/MX_fS_HTML.html#115,115,1920,1080,1920,1080,1-8-2024,13-58-9,58,VR_target_stimuli/s14_1x_ 3.83_357_BC.png,1000,1x,3.83,5.0,2670,994,meters,jsons/MX_seq11_1_VE1000.json,222579,357847,23,Man
58,632547,final-intermixed-textured,v2,jsons/MX_seq11_1_VE1000.json,http://54.235.29.9/FacialAge/BNav_EC2/DepthDuration/MX_fS_VE_MTurk/MX_fS_HTML.html#115,115,1920,1080,1920,1080,1-8-2024,13-58-9,59,VR_target_stimuli/s47_0.75x_3.45_366.png,1000,0.75x,3.45,6.0,4275,1011,meters,jsons/MX_seq11_1_VE1000.json,222579,357847,23,Man
59,632547,final-intermixed-textured,v2,jsons/MX_seq11_1_VE1000.json,http://54.235.29.9/FacialAge/BNav_EC2/DepthDuration/MX_fS_VE_MTurk/MX_fS_HTML.html#115,115,1920,1080,1920,1080,1-8-2024,13-58-9,60,VR_target_stimuli/s29_1.3x_1.3_253.png,1000,1.3x,1.3,2.0,2535,995,meters,jsons/MX_seq11_1_VE1000.json,222579,357847,23,Man
