,subjID,experimentName,versionName,sequenceName,url,selected_row,windowWidth,windowHeight,screenWidth,screenHeight,startDate,startTime,trial,stimulus,duration,scale,actual_depth,depth_estimate,trial_RT,log_sceneDuration,unitSelection,seq_filepath,experimentTime,totalTime,age,gender
0,646482,final-intermixed-textured,v2,jsons/MX_seq40_0_VE1000.json,http://54.235.29.9/FacialAge/BNav_EC2/DepthDuration/MX_fS_VE_MTurk/MX_fS_HTML.html#136,136,1536,695,1536,864,1-8-2024,14-59-45,1,VR_target_stimuli/s30_0.75x_2.3_332.png,1000,0.75x,2.3,5,4896,999,meters,jsons/MX_seq40_0_VE1000.json,275532,434109,25,Woman
1,646482,final-intermixed-textured,v2,jsons/MX_seq40_0_VE1000.json,http://54.235.29.9/FacialAge/BNav_EC2/DepthDuration/MX_fS_VE_MTurk/MX_fS_HTML.html#136,136,1536,695,1536,864,1-8-2024,14-59-45,2,VR_target_stimuli/s16_1x_1_219_BC.png,1000,1x,1.0,5,3906,994,meters,jsons/MX_seq40_0_VE1000.json,275532,434109,25,Woman
2,646482,final-intermixed-textured,v2,jsons/MX_seq40_0_VE1000.json,http://54.235.29.9/FacialAge/BNav_EC2/DepthDuration/MX_fS_VE_MTurk/MX_fS_HTML.html#136,136,1536,695,1536,864,1-8-2024,14-59-45,3,VR_target_stimuli/s17_1.3x_1.8_300_BC.png,1000,1.3x,1.8,5,3768,1006,meters,jsons/MX_seq40_0_VE1000.json,275532,434109,25,Woman
3,646482,final-intermixed-textured,v2,jsons/MX_seq40_0_VE1000.json,http://54.235.29.9/FacialAge/BNav_EC2/DepthDuration/MX_fS_VE_MTurk/MX_fS_HTML.html#136,136,1536,695,1536,864,1-8-2024,14-59-45,4,VR_target_stimuli/s5_1x_4_378.png,1000,1x,4.0,5,4310,995,meters,jsons/MX_seq40_0_VE1000.json,275532,434109,25,Woman
4,646482,final-intermixed-textured,v2,jsons/MX_seq40_0_VE1000.json,http://54.235.29.9/FacialAge/BNav_EC2/DepthDuration/MX_fS_VE_MTurk/MX_fS_HTML.html#136,136,1536,695,1536,864,1-8-2024,14-59-45,5,VR_target_stimuli/s37_0.75x_3.3_567_BC.png,1000,0.75x,3.3,0,4848,1010,meters,jsons/MX_seq40_0_VE1000.json,275532,434109,25,Woman
5,646482,final-intermixed-textured,v2,jsons/MX_seq40_0_VE1000.json,http://54.235.29.9/FacialAge/BNav_EC2/DepthDuration/MX_fS_VE_MTurk/MX_fS_HTML.html#136,136,1536,695,1536,864,1-8-2024,14-59-45,6,VR_target_stimuli/s46_1.3x_2.42_354.png,1000,1.3x,2.42,5,3712,1012,meters,jsons/MX_seq40_0_VE1000.json,275532,434109,25,Woman
6,646482,final-intermixed-textured,v2,jsons/MX_seq40_0_VE1000.json,http://54.235.29.9/FacialAge/BNav_EC2/DepthDuration/MX_fS_VE_MTurk/MX_fS_HTML.html#136,136,1536,695,1536,864,1-8-2024,14-59-45,7,catch_stimuli/c0.png,1000,,,0,6824,1013,meters,jsons/MX_seq40_0_VE1000.json,275532,434109,25,Woman
7,646482,final-intermixed-textured,v2,jsons/MX_seq40_0_VE1000.json,http://54.235.29.9/FacialAge/BNav_EC2/DepthDuration/MX_fS_VE_MTurk/MX_fS_HTML.html#136,136,1536,695,1536,864,1-8-2024,14-59-45,8,VR_target_stimuli/s22_1.3x_4.29_364.png,1000,1.3x,4.29,7,4268,1002,meters,jsons/MX_seq40_0_VE1000.json,275532,434109,25,Woman
8,646482,final-intermixed-textured,v2,jsons/MX_seq40_0_VE1000.json,http://54.235.29.9/FacialAge/BNav_EC2/DepthDuration/MX_fS_VE_MTurk/MX_fS_HTML.html#136,136,1536,695,1536,864,1-8-2024,14-59-45,9,VR_target_stimuli/s42_1x_3.2_303_BC.png,1000,1x,3.2,8,3547,1006,meters,jsons/MX_seq40_0_VE1000.json,275532,434109,25,Woman
9,646482,final-intermixed-textured,v2,jsons/MX_seq40_0_VE1000.json,http://54.235.29.9/FacialAge/BNav_EC2/DepthDuration/MX_fS_VE_MTurk/MX_fS_HTML.html#136,136,1536,695,1536,864,1-8-2024,14-59-45,10,VR_target_stimuli/s25_0.75x_1.4_281_BC.png,1000,0.75x,1.4,4,3760,1012,meters,jsons/MX_seq40_0_VE1000.json,275532,434109,25,Woman
10,646482,final-intermixed-textured,v2,jsons/MX_seq40_0_VE1000.json,http://54.235.29.9/FacialAge/BNav_EC2/DepthDuration/MX_fS_VE_MTurk/MX_fS_HTML.html#136,136,1536,695,1536,864,1-8-2024,14-59-45,11,VR_target_stimuli/s50_1x_4.53_518.png,1000,1x,4.53,7,3841,998,meters,jsons/MX_seq40_0_VE1000.json,275532,434109,25,Woman
11,646482,final-intermixed-textured,v2,jsons/MX_seq40_0_VE1000.json,http://54.235.29.9/FacialAge/BNav_EC2/DepthDuration/MX_fS_VE_MTurk/MX_fS_HTML.html#136,136,1536,695,1536,864,1-8-2024,14-59-45,12,VR_target_stimuli/s53_1.3x_1.6_355_BC.png,1000,1.3x,1.6,3,3425,1014,meters,jsons/MX_seq40_0_VE1000.json,275532,434109,25,Woman
12,646482,final-intermixed-textured,v2,jsons/MX_seq40_0_VE1000.json,http://54.235.29.9/FacialAge/BNav_EC2/DepthDuration/MX_fS_VE_MTurk/MX_fS_HTML.html#136,136,1536,695,1536,864,1-8-2024,14-59-45,13,VR_target_stimuli/s38_0.75x_3.55_346.png,1000,0.75x,3.55,5,3450,1008,meters,jsons/MX_seq40_0_VE1000.json,275532,434109,25,Woman
13,646482,final-intermixed-textured,v2,jsons/MX_seq40_0_VE1000.json,http://54.235.29.9/FacialAge/BNav_EC2/DepthDuration/MX_fS_VE_MTurk/MX_fS_HTML.html#136,136,1536,695,1536,864,1-8-2024,14-59-45,14,VR_target_stimuli/s9_1.3x_1.2_276_BC.png,1000,1.3x,1.2,3,3858,1015,meters,jsons/MX_seq40_0_VE1000.json,275532,434109,25,Woman
14,646482,final-intermixed-textured,v2,jsons/MX_seq40_0_VE1000.json,http://54.235.29.9/FacialAge/BNav_EC2/DepthDuration/MX_fS_VE_MTurk/MX_fS_HTML.html#136,136,1536,695,1536,864,1-8-2024,14-59-45,15,VR_target_stimuli/s44_1x_4.4_317_BC.png,1000,1x,4.4,5,3661,986,meters,jsons/MX_seq40_0_VE1000.json,275532,434109,25,Woman
15,646482,final-intermixed-textured,v2,jsons/MX_seq40_0_VE1000.json,http://54.235.29.9/FacialAge/BNav_EC2/DepthDuration/MX_fS_VE_MTurk/MX_fS_HTML.html#136,136,1536,695,1536,864,1-8-2024,14-59-45,16,VR_target_stimuli/s3_0.75x_5_381_BC.png,1000,0.75x,5.0,8,3600,1006,meters,jsons/MX_seq40_0_VE1000.json,275532,434109,25,Woman
16,646482,final-intermixed-textured,v2,jsons/MX_seq40_0_VE1000.json,http://54.235.29.9/FacialAge/BNav_EC2/DepthDuration/MX_fS_VE_MTurk/MX_fS_HTML.html#136,136,1536,695,1536,864,1-8-2024,14-59-45,17,catch_stimuli/c1.png,1000,,,0,3506,1008,meters,jsons/MX_seq40_0_VE1000.json,275532,434109,25,Woman
17,646482,final-intermixed-textured,v2,jsons/MX_seq40_0_VE1000.json,http://54.235.29.9/FacialAge/BNav_EC2/DepthDuration/MX_fS_VE_MTurk/MX_fS_HTML.html#136,136,1536,695,1536,864,1-8-2024,14-59-45,18,VR_target_stimuli/s1_0.75x_1.7_265.png,1000,0.75x,1.7,6,3372,999,meters,jsons/MX_seq40_0_VE1000.json,275532,434109,25,Woman
18,646482,final-intermixed-textured,v2,jsons/MX_seq40_0_VE1000.json,http://54.235.29.9/FacialAge/BNav_EC2/DepthDuration/MX_fS_VE_MTurk/MX_fS_HTML.html#136,136,1536,695,1536,864,1-8-2024,14-59-45,19,VR_target_stimuli/s11_1.3x_5_363.png,1000,1.3x,5.0,6,3514,995,meters,jsons/MX_seq40_0_VE1000.json,275532,434109,25,Woman
19,646482,final-intermixed-textured,v2,jsons/MX_seq40_0_VE1000.json,http://54.235.29.9/FacialAge/BNav_EC2/DepthDuration/MX_fS_VE_MTurk/MX_fS_HTML.html#136,136,1536,695,1536,864,1-8-2024,14-59-45,20,VR_target_stimuli/s2_1x_2.7_390.png,1000,1x,2.7,8,3388,1004,meters,jsons/MX_seq40_0_VE1000.json,275532,434109,25,Woman
20,646482,final-intermixed-textured,v2,jsons/MX_seq40_0_VE1000.json,http://54.235.29.9/FacialAge/BNav_EC2/DepthDuration/MX_fS_VE_MTurk/MX_fS_HTML.html#136,136,1536,695,1536,864,1-8-2024,14-59-45,21,VR_target_stimuli/s6_1.3x_2.1_298.png,1000,1.3x,2.1,7,4068,1007,meters,jsons/MX_seq40_0_VE1000.json,275532,434109,25,Woman
21,646482,final-intermixed-textured,v2,jsons/MX_seq40_0_VE1000.json,http://54.235.29.9/FacialAge/BNav_EC2/DepthDuration/MX_fS_VE_MTurk/MX_fS_HTML.html#136,136,1536,695,1536,864,1-8-2024,14-59-45,22,VR_target_stimuli/s0_0.75x_2.6_345_BC.png,1000,0.75x,2.6,3,3868,1000,meters,jsons/MX_seq40_0_VE1000.json,275532,434109,25,Woman
22,646482,final-intermixed-textured,v2,jsons/MX_seq40_0_VE1000.json,http://54.235.29.9/FacialAge/BNav_EC2/DepthDuration/MX_fS_VE_MTurk/MX_fS_HTML.html#136,136,1536,695,1536,864,1-8-2024,14-59-45,23,VR_target_stimuli/s34_1x_2.8_283.png,1000,1x,2.8,6,3468,995,meters,jsons/MX_seq40_0_VE1000.json,275532,434109,25,Woman
23,646482,final-intermixed-textured,v2,jsons/MX_seq40_0_VE1000.json,http://54.235.29.9/FacialAge/BNav_EC2/DepthDuration/MX_fS_VE_MTurk/MX_fS_HTML.html#136,136,1536,695,1536,864,1-8-2024,14-59-45,24,VR_target_stimuli/s13_0.75x_2.4_308.png,1000,0.75x,2.4,7,3467,998,meters,jsons/MX_seq40_0_VE1000.json,275532,434109,25,Woman
24,646482,final-intermixed-textured,v2,jsons/MX_seq40_0_VE1000.json,http://54.235.29.9/FacialAge/BNav_EC2/DepthDuration/MX_fS_VE_MTurk/MX_fS_HTML.html#136,136,1536,695,1536,864,1-8-2024,14-59-45,25,VR_target_stimuli/s14_1.3x_3.83_359_BC.png,1000,1.3x,3.83,7,3199,1008,meters,jsons/MX_seq40_0_VE1000.json,275532,434109,25,Woman
25,646482,final-intermixed-textured,v2,jsons/MX_seq40_0_VE1000.json,http://54.235.29.9/FacialAge/BNav_EC2/DepthDuration/MX_fS_VE_MTurk/MX_fS_HTML.html#136,136,1536,695,1536,864,1-8-2024,14-59-45,26,catch_stimuli/c2.png,1000,,,6,4278,1002,meters,jsons/MX_seq40_0_VE1000.json,275532,434109,25,Woman
26,646482,final-intermixed-textured,v2,jsons/MX_seq40_0_VE1000.json,http://54.235.29.9/FacialAge/BNav_EC2/DepthDuration/MX_fS_VE_MTurk/MX_fS_HTML.html#136,136,1536,695,1536,864,1-8-2024,14-59-45,27,VR_target_stimuli/s47_1x_3.45_370_BC.png,1000,1x,3.45,5,3566,1010,meters,jsons/MX_seq40_0_VE1000.json,275532,434109,25,Woman
27,646482,final-intermixed-textured,v2,jsons/MX_seq40_0_VE1000.json,http://54.235.29.9/FacialAge/BNav_EC2/DepthDuration/MX_fS_VE_MTurk/MX_fS_HTML.html#136,136,1536,695,1536,864,1-8-2024,14-59-45,28,VR_target_stimuli/s29_1x_1.3_250.png,1000,1x,1.3,3,3357,1009,meters,jsons/MX_seq40_0_VE1000.json,275532,434109,25,Woman
28,646482,final-intermixed-textured,v2,jsons/MX_seq40_0_VE1000.json,http://54.235.29.9/FacialAge/BNav_EC2/DepthDuration/MX_fS_VE_MTurk/MX_fS_HTML.html#136,136,1536,695,1536,864,1-8-2024,14-59-45,29,VR_target_stimuli/s28_0.75x_3.2_357.png,1000,0.75x,3.2,6,3606,987,meters,jsons/MX_seq40_0_VE1000.json,275532,434109,25,Woman
29,646482,final-intermixed-textured,v2,jsons/MX_seq40_0_VE1000.json,http://54.235.29.9/FacialAge/BNav_EC2/DepthDuration/MX_fS_VE_MTurk/MX_fS_HTML.html#136,136,1536,695,1536,864,1-8-2024,14-59-45,30,VR_target_stimuli/s48_1.3x_2.55_255.png,1000,1.3x,2.55,5,3508,1004,meters,jsons/MX_seq40_0_VE1000.json,275532,434109,25,Woman
30,646482,final-intermixed-textured,v2,jsons/MX_seq40_0_VE1000.json,http://54.235.29.9/FacialAge/BNav_EC2/DepthDuration/MX_fS_VE_MTurk/MX_fS_HTML.html#136,136,1536,695,1536,864,1-8-2024,14-59-45,31,VR_target_stimuli/s19_1x_1.21_263_BC.png,1000,1x,1.21,4,3305,1001,meters,jsons/MX_seq40_0_VE1000.json,275532,434109,25,Woman
31,646482,final-intermixed-textured,v2,jsons/MX_seq40_0_VE1000.json,http://54.235.29.9/FacialAge/BNav_EC2/DepthDuration/MX_fS_VE_MTurk/MX_fS_HTML.html#136,136,1536,695,1536,864,1-8-2024,14-59-45,32,VR_target_stimuli/s21_1.3x_4.22_384_BC.png,1000,1.3x,4.22,5,3999,1014,meters,jsons/MX_seq40_0_VE1000.json,275532,434109,25,Woman
32,646482,final-intermixed-textured,v2,jsons/MX_seq40_0_VE1000.json,http://54.235.29.9/FacialAge/BNav_EC2/DepthDuration/MX_fS_VE_MTurk/MX_fS_HTML.html#136,136,1536,695,1536,864,1-8-2024,14-59-45,33,VR_target_stimuli/s8_0.75x_3.1_325_BC.png,1000,0.75x,3.1,6,3244,998,meters,jsons/MX_seq40_0_VE1000.json,275532,434109,25,Woman
33,646482,final-intermixed-textured,v2,jsons/MX_seq40_0_VE1000.json,http://54.235.29.9/FacialAge/BNav_EC2/DepthDuration/MX_fS_VE_MTurk/MX_fS_HTML.html#136,136,1536,695,1536,864,1-8-2024,14-59-45,34,catch_stimuli/c3.png,1000,,,0,3284,1000,meters,jsons/MX_seq40_0_VE1000.json,275532,434109,25,Woman
34,646482,final-intermixed-textured,v2,jsons/MX_seq40_0_VE1000.json,http://54.235.29.9/FacialAge/BNav_EC2/DepthDuration/MX_fS_VE_MTurk/MX_fS_HTML.html#136,136,1536,695,1536,864,1-8-2024,14-59-45,35,VR_target_stimuli/s27_1.3x_1.76_250.png,1000,1.3x,1.76,5,3469,1008,meters,jsons/MX_seq40_0_VE1000.json,275532,434109,25,Woman
35,646482,final-intermixed-textured,v2,jsons/MX_seq40_0_VE1000.json,http://54.235.29.9/FacialAge/BNav_EC2/DepthDuration/MX_fS_VE_MTurk/MX_fS_HTML.html#136,136,1536,695,1536,864,1-8-2024,14-59-45,36,VR_target_stimuli/s15_1x_4.2_390.png,1000,1x,4.2,7,3696,1000,meters,jsons/MX_seq40_0_VE1000.json,275532,434109,25,Woman
36,646482,final-intermixed-textured,v2,jsons/MX_seq40_0_VE1000.json,http://54.235.29.9/FacialAge/BNav_EC2/DepthDuration/MX_fS_VE_MTurk/MX_fS_HTML.html#136,136,1536,695,1536,864,1-8-2024,14-59-45,37,VR_target_stimuli/s4_0.75x_1.4_301.png,1000,0.75x,1.4,5,3349,1006,meters,jsons/MX_seq40_0_VE1000.json,275532,434109,25,Woman
37,646482,final-intermixed-textured,v2,jsons/MX_seq40_0_VE1000.json,http://54.235.29.9/FacialAge/BNav_EC2/DepthDuration/MX_fS_VE_MTurk/MX_fS_HTML.html#136,136,1536,695,1536,864,1-8-2024,14-59-45,38,VR_target_stimuli/s35_0.75x_2_323_BC.png,1000,0.75x,2.0,6,4515,989,meters,jsons/MX_seq40_0_VE1000.json,275532,434109,25,Woman
38,646482,final-intermixed-textured,v2,jsons/MX_seq40_0_VE1000.json,http://54.235.29.9/FacialAge/BNav_EC2/DepthDuration/MX_fS_VE_MTurk/MX_fS_HTML.html#136,136,1536,695,1536,864,1-8-2024,14-59-45,39,VR_target_stimuli/s49_1.3x_4.67_354_BC.png,1000,1.3x,4.67,7,3563,1003,meters,jsons/MX_seq40_0_VE1000.json,275532,434109,25,Woman
39,646482,final-intermixed-textured,v2,jsons/MX_seq40_0_VE1000.json,http://54.235.29.9/FacialAge/BNav_EC2/DepthDuration/MX_fS_VE_MTurk/MX_fS_HTML.html#136,136,1536,695,1536,864,1-8-2024,14-59-45,40,VR_target_stimuli/s7_1x_1.5_255_BC.png,1000,1x,1.5,4,3573,1010,meters,jsons/MX_seq40_0_VE1000.json,275532,434109,25,Woman
40,646482,final-intermixed-textured,v2,jsons/MX_seq40_0_VE1000.json,http://54.235.29.9/FacialAge/BNav_EC2/DepthDuration/MX_fS_VE_MTurk/MX_fS_HTML.html#136,136,1536,695,1536,864,1-8-2024,14-59-45,41,VR_target_stimuli/s20_1.3x_4.99_412.png,1000,1.3x,4.99,10,4243,1003,meters,jsons/MX_seq40_0_VE1000.json,275532,434109,25,Woman
41,646482,final-intermixed-textured,v2,jsons/MX_seq40_0_VE1000.json,http://54.235.29.9/FacialAge/BNav_EC2/DepthDuration/MX_fS_VE_MTurk/MX_fS_HTML.html#136,136,1536,695,1536,864,1-8-2024,14-59-45,42,VR_target_stimuli/s31_0.75x_4.96_329_BC.png,1000,0.75x,4.96,8,3400,992,meters,jsons/MX_seq40_0_VE1000.json,275532,434109,25,Woman
42,646482,final-intermixed-textured,v2,jsons/MX_seq40_0_VE1000.json,http://54.235.29.9/FacialAge/BNav_EC2/DepthDuration/MX_fS_VE_MTurk/MX_fS_HTML.html#136,136,1536,695,1536,864,1-8-2024,14-59-45,43,VR_target_stimuli/s33_1x_3.1_366_BC.png,1000,1x,3.1,7,3350,1007,meters,jsons/MX_seq40_0_VE1000.json,275532,434109,25,Woman
43,646482,final-intermixed-textured,v2,jsons/MX_seq40_0_VE1000.json,http://54.235.29.9/FacialAge/BNav_EC2/DepthDuration/MX_fS_VE_MTurk/MX_fS_HTML.html#136,136,1536,695,1536,864,1-8-2024,14-59-45,44,VR_target_stimuli/s52_0.75x_3.2_270.png,1000,0.75x,3.2,7,3261,1005,meters,jsons/MX_seq40_0_VE1000.json,275532,434109,25,Woman
44,646482,final-intermixed-textured,v2,jsons/MX_seq40_0_VE1000.json,http://54.235.29.9/FacialAge/BNav_EC2/DepthDuration/MX_fS_VE_MTurk/MX_fS_HTML.html#136,136,1536,695,1536,864,1-8-2024,14-59-45,45,catch_stimuli/c4.png,1000,,,0,5084,998,meters,jsons/MX_seq40_0_VE1000.json,275532,434109,25,Woman
45,646482,final-intermixed-textured,v2,jsons/MX_seq40_0_VE1000.json,http://54.235.29.9/FacialAge/BNav_EC2/DepthDuration/MX_fS_VE_MTurk/MX_fS_HTML.html#136,136,1536,695,1536,864,1-8-2024,14-59-45,46,VR_target_stimuli/s32_1.3x_1.5_224_BC.png,1000,1.3x,1.5,5,4750,1004,meters,jsons/MX_seq40_0_VE1000.json,275532,434109,25,Woman
46,646482,final-intermixed-textured,v2,jsons/MX_seq40_0_VE1000.json,http://54.235.29.9/FacialAge/BNav_EC2/DepthDuration/MX_fS_VE_MTurk/MX_fS_HTML.html#136,136,1536,695,1536,864,1-8-2024,14-59-45,47,VR_target_stimuli/s18_1x_2.25_353.png,1000,1x,2.25,7,3425,995,meters,jsons/MX_seq40_0_VE1000.json,275532,434109,25,Woman
47,646482,final-intermixed-textured,v2,jsons/MX_seq40_0_VE1000.json,http://54.235.29.9/FacialAge/BNav_EC2/DepthDuration/MX_fS_VE_MTurk/MX_fS_HTML.html#136,136,1536,695,1536,864,1-8-2024,14-59-45,48,VR_target_stimuli/s39_1x_1_207_BC.png,1000,1x,1.0,5,3298,1002,meters,jsons/MX_seq40_0_VE1000.json,275532,434109,25,Woman
48,646482,final-intermixed-textured,v2,jsons/MX_seq40_0_VE1000.json,http://54.235.29.9/FacialAge/BNav_EC2/DepthDuration/MX_fS_VE_MTurk/MX_fS_HTML.html#136,136,1536,695,1536,864,1-8-2024,14-59-45,49,VR_target_stimuli/s51_0.75x_3.64_460_BC.png,1000,0.75x,3.64,5,3114,991,meters,jsons/MX_seq40_0_VE1000.json,275532,434109,25,Woman
49,646482,final-intermixed-textured,v2,jsons/MX_seq40_0_VE1000.json,http://54.235.29.9/FacialAge/BNav_EC2/DepthDuration/MX_fS_VE_MTurk/MX_fS_HTML.html#136,136,1536,695,1536,864,1-8-2024,14-59-45,50,VR_target_stimuli/s43_1.3x_2.2_363_BC.png,1000,1.3x,2.2,4,3487,1004,meters,jsons/MX_seq40_0_VE1000.json,275532,434109,25,Woman
50,646482,final-intermixed-textured,v2,jsons/MX_seq40_0_VE1000.json,http://54.235.29.9/FacialAge/BNav_EC2/DepthDuration/MX_fS_VE_MTurk/MX_fS_HTML.html#136,136,1536,695,1536,864,1-8-2024,14-59-45,51,VR_target_stimuli/s24_0.75x_3.3_344.png,1000,0.75x,3.3,6,3538,994,meters,jsons/MX_seq40_0_VE1000.json,275532,434109,25,Woman
51,646482,final-intermixed-textured,v2,jsons/MX_seq40_0_VE1000.json,http://54.235.29.9/FacialAge/BNav_EC2/DepthDuration/MX_fS_VE_MTurk/MX_fS_HTML.html#136,136,1536,695,1536,864,1-8-2024,14-59-45,52,VR_target_stimuli/s10_1x_2.7_324.png,1000,1x,2.7,7,3356,1009,meters,jsons/MX_seq40_0_VE1000.json,275532,434109,25,Woman
52,646482,final-intermixed-textured,v2,jsons/MX_seq40_0_VE1000.json,http://54.235.29.9/FacialAge/BNav_EC2/DepthDuration/MX_fS_VE_MTurk/MX_fS_HTML.html#136,136,1536,695,1536,864,1-8-2024,14-59-45,53,catch_stimuli/c5.png,1000,,,0,3375,1009,meters,jsons/MX_seq40_0_VE1000.json,275532,434109,25,Woman
53,646482,final-intermixed-textured,v2,jsons/MX_seq40_0_VE1000.json,http://54.235.29.9/FacialAge/BNav_EC2/DepthDuration/MX_fS_VE_MTurk/MX_fS_HTML.html#136,136,1536,695,1536,864,1-8-2024,14-59-45,54,VR_target_stimuli/s36_1.3x_4.1_442.png,1000,1.3x,4.1,7,23722,995,meters,jsons/MX_seq40_0_VE1000.json,275532,434109,25,Woman
54,646482,final-intermixed-textured,v2,jsons/MX_seq40_0_VE1000.json,http://54.235.29.9/FacialAge/BNav_EC2/DepthDuration/MX_fS_VE_MTurk/MX_fS_HTML.html#136,136,1536,695,1536,864,1-8-2024,14-59-45,55,VR_target_stimuli/s40_1x_1.2_319_BC.png,1000,1x,1.2,5,3651,994,meters,jsons/MX_seq40_0_VE1000.json,275532,434109,25,Woman
55,646482,final-intermixed-textured,v2,jsons/MX_seq40_0_VE1000.json,http://54.235.29.9/FacialAge/BNav_EC2/DepthDuration/MX_fS_VE_MTurk/MX_fS_HTML.html#136,136,1536,695,1536,864,1-8-2024,14-59-45,56,VR_target_stimuli/s41_0.75x_2.1_281.png,1000,0.75x,2.1,5,4170,1003,meters,jsons/MX_seq40_0_VE1000.json,275532,434109,25,Woman
56,646482,final-intermixed-textured,v2,jsons/MX_seq40_0_VE1000.json,http://54.235.29.9/FacialAge/BNav_EC2/DepthDuration/MX_fS_VE_MTurk/MX_fS_HTML.html#136,136,1536,695,1536,864,1-8-2024,14-59-45,57,VR_target_stimuli/s45_1.3x_3.5_377_BC.png,1000,1.3x,3.5,6,3168,1013,meters,jsons/MX_seq40_0_VE1000.json,275532,434109,25,Woman
57,646482,final-intermixed-textured,v2,jsons/MX_seq40_0_VE1000.json,http://54.235.29.9/FacialAge/BNav_EC2/DepthDuration/MX_fS_VE_MTurk/MX_fS_HTML.html#136,136,1536,695,1536,864,1-8-2024,14-59-45,58,VR_target_stimuli/s23_1.3x_3.65_354.png,1000,1.3x,3.65,8,3357,1000,meters,jsons/MX_seq40_0_VE1000.json,275532,434109,25,Woman
58,646482,final-intermixed-textured,v2,jsons/MX_seq40_0_VE1000.json,http://54.235.29.9/FacialAge/BNav_EC2/DepthDuration/MX_fS_VE_MTurk/MX_fS_HTML.html#136,136,1536,695,1536,864,1-8-2024,14-59-45,59,VR_target_stimuli/s26_1x_4_433.png,1000,1x,4.0,5,3470,997,meters,jsons/MX_seq40_0_VE1000.json,275532,434109,25,Woman
59,646482,final-intermixed-textured,v2,jsons/MX_seq40_0_VE1000.json,http://54.235.29.9/FacialAge/BNav_EC2/DepthDuration/MX_fS_VE_MTurk/MX_fS_HTML.html#136,136,1536,695,1536,864,1-8-2024,14-59-45,60,VR_target_stimuli/s12_0.75x_3.1_364_BC.png,1000,0.75x,3.1,0,4089,1007,meters,jsons/MX_seq40_0_VE1000.json,275532,434109,25,Woman
