,subjID,experimentName,versionName,sequenceName,url,selected_row,windowWidth,windowHeight,screenWidth,screenHeight,startDate,startTime,trial,stimulus,duration,scale,actual_depth,depth_estimate,trial_RT,log_sceneDuration,unitSelection,seq_filepath,experimentTime,totalTime,age,gender
0,655655,final-intermixed-textured,v2,jsons/MX_seq49_2_VE1000.json,http://54.235.29.9/FacialAge/BNav_EC2/DepthDuration/MX_fS_VE_MTurk/MX_fS_HTML.html#287,287,1600,739,1600,900,1-8-2024,9-34-13,1,VR_target_stimuli/s50_1x_4.53_518_BC.png,1000,1x,4.53,8.0,8335,989,meters,jsons/MX_seq49_2_VE1000.json,325033,654761,25,Man
1,655655,final-intermixed-textured,v2,jsons/MX_seq49_2_VE1000.json,http://54.235.29.9/FacialAge/BNav_EC2/DepthDuration/MX_fS_VE_MTurk/MX_fS_HTML.html#287,287,1600,739,1600,900,1-8-2024,9-34-13,2,VR_target_stimuli/s53_1.3x_1.6_355_BC.png,1000,1.3x,1.6,2.0,4434,994,meters,jsons/MX_seq49_2_VE1000.json,325033,654761,25,Man
2,655655,final-intermixed-textured,v2,jsons/MX_seq49_2_VE1000.json,http://54.235.29.9/FacialAge/BNav_EC2/DepthDuration/MX_fS_VE_MTurk/MX_fS_HTML.html#287,287,1600,739,1600,900,1-8-2024,9-34-13,3,VR_target_stimuli/s38_0.75x_3.55_346.png,1000,0.75x,3.55,8.0,9333,1005,meters,jsons/MX_seq49_2_VE1000.json,325033,654761,25,Man
3,655655,final-intermixed-textured,v2,jsons/MX_seq49_2_VE1000.json,http://54.235.29.9/FacialAge/BNav_EC2/DepthDuration/MX_fS_VE_MTurk/MX_fS_HTML.html#287,287,1600,739,1600,900,1-8-2024,9-34-13,4,VR_target_stimuli/s9_1.3x_1.2_276.png,1000,1.3x,1.2,3.0,9635,1000,meters,jsons/MX_seq49_2_VE1000.json,325033,654761,25,Man
4,655655,final-intermixed-textured,v2,jsons/MX_seq49_2_VE1000.json,http://54.235.29.9/FacialAge/BNav_EC2/DepthDuration/MX_fS_VE_MTurk/MX_fS_HTML.html#287,287,1600,739,1600,900,1-8-2024,9-34-13,5,VR_target_stimuli/s44_1x_4.4_317.png,1000,1x,4.4,12.0,6145,995,meters,jsons/MX_seq49_2_VE1000.json,325033,654761,25,Man
5,655655,final-intermixed-textured,v2,jsons/MX_seq49_2_VE1000.json,http://54.235.29.9/FacialAge/BNav_EC2/DepthDuration/MX_fS_VE_MTurk/MX_fS_HTML.html#287,287,1600,739,1600,900,1-8-2024,9-34-13,6,VR_target_stimuli/s3_0.75x_5_381_BC.png,1000,0.75x,5.0,13.0,5020,1003,meters,jsons/MX_seq49_2_VE1000.json,325033,654761,25,Man
6,655655,final-intermixed-textured,v2,jsons/MX_seq49_2_VE1000.json,http://54.235.29.9/FacialAge/BNav_EC2/DepthDuration/MX_fS_VE_MTurk/MX_fS_HTML.html#287,287,1600,739,1600,900,1-8-2024,9-34-13,7,catch_stimuli/c0.png,1000,,,0.0,3047,1001,meters,jsons/MX_seq49_2_VE1000.json,325033,654761,25,Man
7,655655,final-intermixed-textured,v2,jsons/MX_seq49_2_VE1000.json,http://54.235.29.9/FacialAge/BNav_EC2/DepthDuration/MX_fS_VE_MTurk/MX_fS_HTML.html#287,287,1600,739,1600,900,1-8-2024,9-34-13,8,VR_target_stimuli/s1_0.75x_1.7_265_BC.png,1000,0.75x,1.7,5.0,5742,995,meters,jsons/MX_seq49_2_VE1000.json,325033,654761,25,Man
8,655655,final-intermixed-textured,v2,jsons/MX_seq49_2_VE1000.json,http://54.235.29.9/FacialAge/BNav_EC2/DepthDuration/MX_fS_VE_MTurk/MX_fS_HTML.html#287,287,1600,739,1600,900,1-8-2024,9-34-13,9,VR_target_stimuli/s11_1.3x_5_363.png,1000,1.3x,5.0,8.0,4311,1007,meters,jsons/MX_seq49_2_VE1000.json,325033,654761,25,Man
9,655655,final-intermixed-textured,v2,jsons/MX_seq49_2_VE1000.json,http://54.235.29.9/FacialAge/BNav_EC2/DepthDuration/MX_fS_VE_MTurk/MX_fS_HTML.html#287,287,1600,739,1600,900,1-8-2024,9-34-13,10,VR_target_stimuli/s2_1x_2.7_390_BC.png,1000,1x,2.7,3.0,3430,1008,meters,jsons/MX_seq49_2_VE1000.json,325033,654761,25,Man
10,655655,final-intermixed-textured,v2,jsons/MX_seq49_2_VE1000.json,http://54.235.29.9/FacialAge/BNav_EC2/DepthDuration/MX_fS_VE_MTurk/MX_fS_HTML.html#287,287,1600,739,1600,900,1-8-2024,9-34-13,11,VR_target_stimuli/s6_1.3x_2.1_298_BC.png,1000,1.3x,2.1,5.0,3051,1004,meters,jsons/MX_seq49_2_VE1000.json,325033,654761,25,Man
11,655655,final-intermixed-textured,v2,jsons/MX_seq49_2_VE1000.json,http://54.235.29.9/FacialAge/BNav_EC2/DepthDuration/MX_fS_VE_MTurk/MX_fS_HTML.html#287,287,1600,739,1600,900,1-8-2024,9-34-13,12,VR_target_stimuli/s0_0.75x_2.6_345.png,1000,0.75x,2.6,5.0,4062,1005,meters,jsons/MX_seq49_2_VE1000.json,325033,654761,25,Man
12,655655,final-intermixed-textured,v2,jsons/MX_seq49_2_VE1000.json,http://54.235.29.9/FacialAge/BNav_EC2/DepthDuration/MX_fS_VE_MTurk/MX_fS_HTML.html#287,287,1600,739,1600,900,1-8-2024,9-34-13,13,VR_target_stimuli/s34_1x_2.8_283.png,1000,1x,2.8,6.0,3032,997,meters,jsons/MX_seq49_2_VE1000.json,325033,654761,25,Man
13,655655,final-intermixed-textured,v2,jsons/MX_seq49_2_VE1000.json,http://54.235.29.9/FacialAge/BNav_EC2/DepthDuration/MX_fS_VE_MTurk/MX_fS_HTML.html#287,287,1600,739,1600,900,1-8-2024,9-34-13,14,VR_target_stimuli/s13_0.75x_2.4_308.png,1000,0.75x,2.4,8.0,3638,996,meters,jsons/MX_seq49_2_VE1000.json,325033,654761,25,Man
14,655655,final-intermixed-textured,v2,jsons/MX_seq49_2_VE1000.json,http://54.235.29.9/FacialAge/BNav_EC2/DepthDuration/MX_fS_VE_MTurk/MX_fS_HTML.html#287,287,1600,739,1600,900,1-8-2024,9-34-13,15,VR_target_stimuli/s14_1.3x_3.83_359_BC.png,1000,1.3x,3.83,9.0,4048,999,meters,jsons/MX_seq49_2_VE1000.json,325033,654761,25,Man
15,655655,final-intermixed-textured,v2,jsons/MX_seq49_2_VE1000.json,http://54.235.29.9/FacialAge/BNav_EC2/DepthDuration/MX_fS_VE_MTurk/MX_fS_HTML.html#287,287,1600,739,1600,900,1-8-2024,9-34-13,16,VR_target_stimuli/s47_1x_3.45_370_BC.png,1000,1x,3.45,5.0,5720,1001,meters,jsons/MX_seq49_2_VE1000.json,325033,654761,25,Man
16,655655,final-intermixed-textured,v2,jsons/MX_seq49_2_VE1000.json,http://54.235.29.9/FacialAge/BNav_EC2/DepthDuration/MX_fS_VE_MTurk/MX_fS_HTML.html#287,287,1600,739,1600,900,1-8-2024,9-34-13,17,catch_stimuli/c1.png,1000,,,0.0,2841,996,meters,jsons/MX_seq49_2_VE1000.json,325033,654761,25,Man
17,655655,final-intermixed-textured,v2,jsons/MX_seq49_2_VE1000.json,http://54.235.29.9/FacialAge/BNav_EC2/DepthDuration/MX_fS_VE_MTurk/MX_fS_HTML.html#287,287,1600,739,1600,900,1-8-2024,9-34-13,18,VR_target_stimuli/s29_1x_1.3_250.png,1000,1x,1.3,2.5,4634,996,meters,jsons/MX_seq49_2_VE1000.json,325033,654761,25,Man
18,655655,final-intermixed-textured,v2,jsons/MX_seq49_2_VE1000.json,http://54.235.29.9/FacialAge/BNav_EC2/DepthDuration/MX_fS_VE_MTurk/MX_fS_HTML.html#287,287,1600,739,1600,900,1-8-2024,9-34-13,19,VR_target_stimuli/s28_0.75x_3.2_357_BC.png,1000,0.75x,3.2,3.0,3540,994,meters,jsons/MX_seq49_2_VE1000.json,325033,654761,25,Man
19,655655,final-intermixed-textured,v2,jsons/MX_seq49_2_VE1000.json,http://54.235.29.9/FacialAge/BNav_EC2/DepthDuration/MX_fS_VE_MTurk/MX_fS_HTML.html#287,287,1600,739,1600,900,1-8-2024,9-34-13,20,VR_target_stimuli/s48_1.3x_2.55_255.png,1000,1.3x,2.55,5.0,6034,997,meters,jsons/MX_seq49_2_VE1000.json,325033,654761,25,Man
20,655655,final-intermixed-textured,v2,jsons/MX_seq49_2_VE1000.json,http://54.235.29.9/FacialAge/BNav_EC2/DepthDuration/MX_fS_VE_MTurk/MX_fS_HTML.html#287,287,1600,739,1600,900,1-8-2024,9-34-13,21,VR_target_stimuli/s19_0.75x_1.21_257_BC.png,1000,0.75x,1.21,2.5,4648,1008,meters,jsons/MX_seq49_2_VE1000.json,325033,654761,25,Man
21,655655,final-intermixed-textured,v2,jsons/MX_seq49_2_VE1000.json,http://54.235.29.9/FacialAge/BNav_EC2/DepthDuration/MX_fS_VE_MTurk/MX_fS_HTML.html#287,287,1600,739,1600,900,1-8-2024,9-34-13,22,VR_target_stimuli/s21_1x_4.22_379.png,1000,1x,4.22,13.0,5132,998,meters,jsons/MX_seq49_2_VE1000.json,325033,654761,25,Man
22,655655,final-intermixed-textured,v2,jsons/MX_seq49_2_VE1000.json,http://54.235.29.9/FacialAge/BNav_EC2/DepthDuration/MX_fS_VE_MTurk/MX_fS_HTML.html#287,287,1600,739,1600,900,1-8-2024,9-34-13,23,VR_target_stimuli/s8_1.3x_3.1_345_BC.png,1000,1.3x,3.1,6.0,4628,996,meters,jsons/MX_seq49_2_VE1000.json,325033,654761,25,Man
23,655655,final-intermixed-textured,v2,jsons/MX_seq49_2_VE1000.json,http://54.235.29.9/FacialAge/BNav_EC2/DepthDuration/MX_fS_VE_MTurk/MX_fS_HTML.html#287,287,1600,739,1600,900,1-8-2024,9-34-13,24,VR_target_stimuli/s27_1x_1.76_248_BC.png,1000,1x,1.76,5.0,4400,1001,meters,jsons/MX_seq49_2_VE1000.json,325033,654761,25,Man
24,655655,final-intermixed-textured,v2,jsons/MX_seq49_2_VE1000.json,http://54.235.29.9/FacialAge/BNav_EC2/DepthDuration/MX_fS_VE_MTurk/MX_fS_HTML.html#287,287,1600,739,1600,900,1-8-2024,9-34-13,25,VR_target_stimuli/s15_0.75x_4.2_388.png,1000,0.75x,4.2,8.0,3866,1007,meters,jsons/MX_seq49_2_VE1000.json,325033,654761,25,Man
25,655655,final-intermixed-textured,v2,jsons/MX_seq49_2_VE1000.json,http://54.235.29.9/FacialAge/BNav_EC2/DepthDuration/MX_fS_VE_MTurk/MX_fS_HTML.html#287,287,1600,739,1600,900,1-8-2024,9-34-13,26,catch_stimuli/c2.png,1000,,,0.0,2868,1011,meters,jsons/MX_seq49_2_VE1000.json,325033,654761,25,Man
26,655655,final-intermixed-textured,v2,jsons/MX_seq49_2_VE1000.json,http://54.235.29.9/FacialAge/BNav_EC2/DepthDuration/MX_fS_VE_MTurk/MX_fS_HTML.html#287,287,1600,739,1600,900,1-8-2024,9-34-13,27,VR_target_stimuli/s4_1.3x_1.4_328.png,1000,1.3x,1.4,3.0,3045,991,meters,jsons/MX_seq49_2_VE1000.json,325033,654761,25,Man
27,655655,final-intermixed-textured,v2,jsons/MX_seq49_2_VE1000.json,http://54.235.29.9/FacialAge/BNav_EC2/DepthDuration/MX_fS_VE_MTurk/MX_fS_HTML.html#287,287,1600,739,1600,900,1-8-2024,9-34-13,28,VR_target_stimuli/s35_1.3x_2_338.png,1000,1.3x,2.0,4.0,3102,1001,meters,jsons/MX_seq49_2_VE1000.json,325033,654761,25,Man
28,655655,final-intermixed-textured,v2,jsons/MX_seq49_2_VE1000.json,http://54.235.29.9/FacialAge/BNav_EC2/DepthDuration/MX_fS_VE_MTurk/MX_fS_HTML.html#287,287,1600,739,1600,900,1-8-2024,9-34-13,29,VR_target_stimuli/s49_1x_4.67_341_BC.png,1000,1x,4.67,6.0,3079,996,meters,jsons/MX_seq49_2_VE1000.json,325033,654761,25,Man
29,655655,final-intermixed-textured,v2,jsons/MX_seq49_2_VE1000.json,http://54.235.29.9/FacialAge/BNav_EC2/DepthDuration/MX_fS_VE_MTurk/MX_fS_HTML.html#287,287,1600,739,1600,900,1-8-2024,9-34-13,30,VR_target_stimuli/s7_0.75x_1.5_253.png,1000,0.75x,1.5,6.0,2692,993,meters,jsons/MX_seq49_2_VE1000.json,325033,654761,25,Man
30,655655,final-intermixed-textured,v2,jsons/MX_seq49_2_VE1000.json,http://54.235.29.9/FacialAge/BNav_EC2/DepthDuration/MX_fS_VE_MTurk/MX_fS_HTML.html#287,287,1600,739,1600,900,1-8-2024,9-34-13,31,VR_target_stimuli/s20_1.3x_4.99_412_BC.png,1000,1.3x,4.99,8.0,3722,1000,meters,jsons/MX_seq49_2_VE1000.json,325033,654761,25,Man
31,655655,final-intermixed-textured,v2,jsons/MX_seq49_2_VE1000.json,http://54.235.29.9/FacialAge/BNav_EC2/DepthDuration/MX_fS_VE_MTurk/MX_fS_HTML.html#287,287,1600,739,1600,900,1-8-2024,9-34-13,32,VR_target_stimuli/s31_0.75x_4.96_329_BC.png,1000,0.75x,4.96,7.0,2894,987,meters,jsons/MX_seq49_2_VE1000.json,325033,654761,25,Man
32,655655,final-intermixed-textured,v2,jsons/MX_seq49_2_VE1000.json,http://54.235.29.9/FacialAge/BNav_EC2/DepthDuration/MX_fS_VE_MTurk/MX_fS_HTML.html#287,287,1600,739,1600,900,1-8-2024,9-34-13,33,VR_target_stimuli/s33_1x_3.1_366.png,1000,1x,3.1,7.0,3013,1008,meters,jsons/MX_seq49_2_VE1000.json,325033,654761,25,Man
33,655655,final-intermixed-textured,v2,jsons/MX_seq49_2_VE1000.json,http://54.235.29.9/FacialAge/BNav_EC2/DepthDuration/MX_fS_VE_MTurk/MX_fS_HTML.html#287,287,1600,739,1600,900,1-8-2024,9-34-13,34,catch_stimuli/c3.png,1000,,,0.0,2856,999,meters,jsons/MX_seq49_2_VE1000.json,325033,654761,25,Man
34,655655,final-intermixed-textured,v2,jsons/MX_seq49_2_VE1000.json,http://54.235.29.9/FacialAge/BNav_EC2/DepthDuration/MX_fS_VE_MTurk/MX_fS_HTML.html#287,287,1600,739,1600,900,1-8-2024,9-34-13,35,VR_target_stimuli/s52_0.75x_3.2_270_BC.png,1000,0.75x,3.2,8.0,4778,1005,meters,jsons/MX_seq49_2_VE1000.json,325033,654761,25,Man
35,655655,final-intermixed-textured,v2,jsons/MX_seq49_2_VE1000.json,http://54.235.29.9/FacialAge/BNav_EC2/DepthDuration/MX_fS_VE_MTurk/MX_fS_HTML.html#287,287,1600,739,1600,900,1-8-2024,9-34-13,36,VR_target_stimuli/s32_1.3x_1.5_224.png,1000,1.3x,1.5,6.0,3768,1005,meters,jsons/MX_seq49_2_VE1000.json,325033,654761,25,Man
36,655655,final-intermixed-textured,v2,jsons/MX_seq49_2_VE1000.json,http://54.235.29.9/FacialAge/BNav_EC2/DepthDuration/MX_fS_VE_MTurk/MX_fS_HTML.html#287,287,1600,739,1600,900,1-8-2024,9-34-13,37,VR_target_stimuli/s18_1x_2.25_353_BC.png,1000,1x,2.25,5.0,3210,1002,meters,jsons/MX_seq49_2_VE1000.json,325033,654761,25,Man
37,655655,final-intermixed-textured,v2,jsons/MX_seq49_2_VE1000.json,http://54.235.29.9/FacialAge/BNav_EC2/DepthDuration/MX_fS_VE_MTurk/MX_fS_HTML.html#287,287,1600,739,1600,900,1-8-2024,9-34-13,38,VR_target_stimuli/s39_1x_1_207.png,1000,1x,1.0,4.0,2994,994,meters,jsons/MX_seq49_2_VE1000.json,325033,654761,25,Man
38,655655,final-intermixed-textured,v2,jsons/MX_seq49_2_VE1000.json,http://54.235.29.9/FacialAge/BNav_EC2/DepthDuration/MX_fS_VE_MTurk/MX_fS_HTML.html#287,287,1600,739,1600,900,1-8-2024,9-34-13,39,VR_target_stimuli/s51_0.75x_3.64_460.png,1000,0.75x,3.64,4.0,2804,996,meters,jsons/MX_seq49_2_VE1000.json,325033,654761,25,Man
39,655655,final-intermixed-textured,v2,jsons/MX_seq49_2_VE1000.json,http://54.235.29.9/FacialAge/BNav_EC2/DepthDuration/MX_fS_VE_MTurk/MX_fS_HTML.html#287,287,1600,739,1600,900,1-8-2024,9-34-13,40,VR_target_stimuli/s43_1.3x_2.2_363_BC.png,1000,1.3x,2.2,5.0,2759,1000,meters,jsons/MX_seq49_2_VE1000.json,325033,654761,25,Man
40,655655,final-intermixed-textured,v2,jsons/MX_seq49_2_VE1000.json,http://54.235.29.9/FacialAge/BNav_EC2/DepthDuration/MX_fS_VE_MTurk/MX_fS_HTML.html#287,287,1600,739,1600,900,1-8-2024,9-34-13,41,VR_target_stimuli/s24_0.75x_3.3_344.png,1000,0.75x,3.3,6.0,2773,998,meters,jsons/MX_seq49_2_VE1000.json,325033,654761,25,Man
41,655655,final-intermixed-textured,v2,jsons/MX_seq49_2_VE1000.json,http://54.235.29.9/FacialAge/BNav_EC2/DepthDuration/MX_fS_VE_MTurk/MX_fS_HTML.html#287,287,1600,739,1600,900,1-8-2024,9-34-13,42,VR_target_stimuli/s10_1x_2.7_324.png,1000,1x,2.7,7.0,2465,999,meters,jsons/MX_seq49_2_VE1000.json,325033,654761,25,Man
42,655655,final-intermixed-textured,v2,jsons/MX_seq49_2_VE1000.json,http://54.235.29.9/FacialAge/BNav_EC2/DepthDuration/MX_fS_VE_MTurk/MX_fS_HTML.html#287,287,1600,739,1600,900,1-8-2024,9-34-13,43,VR_target_stimuli/s36_1.3x_4.1_442_BC.png,1000,1.3x,4.1,7.0,3313,999,meters,jsons/MX_seq49_2_VE1000.json,325033,654761,25,Man
43,655655,final-intermixed-textured,v2,jsons/MX_seq49_2_VE1000.json,http://54.235.29.9/FacialAge/BNav_EC2/DepthDuration/MX_fS_VE_MTurk/MX_fS_HTML.html#287,287,1600,739,1600,900,1-8-2024,9-34-13,44,VR_target_stimuli/s40_1x_1.2_319_BC.png,1000,1x,1.2,2.5,6560,1010,meters,jsons/MX_seq49_2_VE1000.json,325033,654761,25,Man
44,655655,final-intermixed-textured,v2,jsons/MX_seq49_2_VE1000.json,http://54.235.29.9/FacialAge/BNav_EC2/DepthDuration/MX_fS_VE_MTurk/MX_fS_HTML.html#287,287,1600,739,1600,900,1-8-2024,9-34-13,45,catch_stimuli/c4.png,1000,,,0.0,2456,1001,meters,jsons/MX_seq49_2_VE1000.json,325033,654761,25,Man
45,655655,final-intermixed-textured,v2,jsons/MX_seq49_2_VE1000.json,http://54.235.29.9/FacialAge/BNav_EC2/DepthDuration/MX_fS_VE_MTurk/MX_fS_HTML.html#287,287,1600,739,1600,900,1-8-2024,9-34-13,46,VR_target_stimuli/s41_0.75x_2.1_281_BC.png,1000,0.75x,2.1,4.0,2592,993,meters,jsons/MX_seq49_2_VE1000.json,325033,654761,25,Man
46,655655,final-intermixed-textured,v2,jsons/MX_seq49_2_VE1000.json,http://54.235.29.9/FacialAge/BNav_EC2/DepthDuration/MX_fS_VE_MTurk/MX_fS_HTML.html#287,287,1600,739,1600,900,1-8-2024,9-34-13,47,VR_target_stimuli/s45_1.3x_3.5_377.png,1000,1.3x,3.5,5.0,2565,1002,meters,jsons/MX_seq49_2_VE1000.json,325033,654761,25,Man
47,655655,final-intermixed-textured,v2,jsons/MX_seq49_2_VE1000.json,http://54.235.29.9/FacialAge/BNav_EC2/DepthDuration/MX_fS_VE_MTurk/MX_fS_HTML.html#287,287,1600,739,1600,900,1-8-2024,9-34-13,48,VR_target_stimuli/s23_1.3x_3.65_354.png,1000,1.3x,3.65,5.0,2780,995,meters,jsons/MX_seq49_2_VE1000.json,325033,654761,25,Man
48,655655,final-intermixed-textured,v2,jsons/MX_seq49_2_VE1000.json,http://54.235.29.9/FacialAge/BNav_EC2/DepthDuration/MX_fS_VE_MTurk/MX_fS_HTML.html#287,287,1600,739,1600,900,1-8-2024,9-34-13,49,VR_target_stimuli/s26_1x_4_433_BC.png,1000,1x,4.0,6.0,5855,990,meters,jsons/MX_seq49_2_VE1000.json,325033,654761,25,Man
49,655655,final-intermixed-textured,v2,jsons/MX_seq49_2_VE1000.json,http://54.235.29.9/FacialAge/BNav_EC2/DepthDuration/MX_fS_VE_MTurk/MX_fS_HTML.html#287,287,1600,739,1600,900,1-8-2024,9-34-13,50,VR_target_stimuli/s12_0.75x_3.1_364_BC.png,1000,0.75x,3.1,5.0,2519,988,meters,jsons/MX_seq49_2_VE1000.json,325033,654761,25,Man
50,655655,final-intermixed-textured,v2,jsons/MX_seq49_2_VE1000.json,http://54.235.29.9/FacialAge/BNav_EC2/DepthDuration/MX_fS_VE_MTurk/MX_fS_HTML.html#287,287,1600,739,1600,900,1-8-2024,9-34-13,51,VR_target_stimuli/s30_1x_2.3_334.png,1000,1x,2.3,5.0,2838,1002,meters,jsons/MX_seq49_2_VE1000.json,325033,654761,25,Man
51,655655,final-intermixed-textured,v2,jsons/MX_seq49_2_VE1000.json,http://54.235.29.9/FacialAge/BNav_EC2/DepthDuration/MX_fS_VE_MTurk/MX_fS_HTML.html#287,287,1600,739,1600,900,1-8-2024,9-34-13,52,VR_target_stimuli/s16_1.3x_1_223_BC.png,1000,1.3x,1.0,3.0,2680,992,meters,jsons/MX_seq49_2_VE1000.json,325033,654761,25,Man
52,655655,final-intermixed-textured,v2,jsons/MX_seq49_2_VE1000.json,http://54.235.29.9/FacialAge/BNav_EC2/DepthDuration/MX_fS_VE_MTurk/MX_fS_HTML.html#287,287,1600,739,1600,900,1-8-2024,9-34-13,53,catch_stimuli/c5.png,1000,,,0.0,2414,998,meters,jsons/MX_seq49_2_VE1000.json,325033,654761,25,Man
53,655655,final-intermixed-textured,v2,jsons/MX_seq49_2_VE1000.json,http://54.235.29.9/FacialAge/BNav_EC2/DepthDuration/MX_fS_VE_MTurk/MX_fS_HTML.html#287,287,1600,739,1600,900,1-8-2024,9-34-13,54,VR_target_stimuli/s17_0.75x_1.8_285.png,1000,0.75x,1.8,4.0,3019,1000,meters,jsons/MX_seq49_2_VE1000.json,325033,654761,25,Man
54,655655,final-intermixed-textured,v2,jsons/MX_seq49_2_VE1000.json,http://54.235.29.9/FacialAge/BNav_EC2/DepthDuration/MX_fS_VE_MTurk/MX_fS_HTML.html#287,287,1600,739,1600,900,1-8-2024,9-34-13,55,VR_target_stimuli/s5_1.3x_4_393_BC.png,1000,1.3x,4.0,6.0,4408,1004,meters,jsons/MX_seq49_2_VE1000.json,325033,654761,25,Man
55,655655,final-intermixed-textured,v2,jsons/MX_seq49_2_VE1000.json,http://54.235.29.9/FacialAge/BNav_EC2/DepthDuration/MX_fS_VE_MTurk/MX_fS_HTML.html#287,287,1600,739,1600,900,1-8-2024,9-34-13,56,VR_target_stimuli/s37_1x_3.3_563.png,1000,1x,3.3,6.0,6826,1000,meters,jsons/MX_seq49_2_VE1000.json,325033,654761,25,Man
56,655655,final-intermixed-textured,v2,jsons/MX_seq49_2_VE1000.json,http://54.235.29.9/FacialAge/BNav_EC2/DepthDuration/MX_fS_VE_MTurk/MX_fS_HTML.html#287,287,1600,739,1600,900,1-8-2024,9-34-13,57,VR_target_stimuli/s46_0.75x_2.42_343_BC.png,1000,0.75x,2.42,5.0,3189,1002,meters,jsons/MX_seq49_2_VE1000.json,325033,654761,25,Man
57,655655,final-intermixed-textured,v2,jsons/MX_seq49_2_VE1000.json,http://54.235.29.9/FacialAge/BNav_EC2/DepthDuration/MX_fS_VE_MTurk/MX_fS_HTML.html#287,287,1600,739,1600,900,1-8-2024,9-34-13,58,VR_target_stimuli/s22_0.75x_4.29_348.png,1000,0.75x,4.29,8.0,2785,1001,meters,jsons/MX_seq49_2_VE1000.json,325033,654761,25,Man
58,655655,final-intermixed-textured,v2,jsons/MX_seq49_2_VE1000.json,http://54.235.29.9/FacialAge/BNav_EC2/DepthDuration/MX_fS_VE_MTurk/MX_fS_HTML.html#287,287,1600,739,1600,900,1-8-2024,9-34-13,59,VR_target_stimuli/s42_1.3x_3.2_305.png,1000,1.3x,3.2,8.0,4455,1005,meters,jsons/MX_seq49_2_VE1000.json,325033,654761,25,Man
59,655655,final-intermixed-textured,v2,jsons/MX_seq49_2_VE1000.json,http://54.235.29.9/FacialAge/BNav_EC2/DepthDuration/MX_fS_VE_MTurk/MX_fS_HTML.html#287,287,1600,739,1600,900,1-8-2024,9-34-13,60,VR_target_stimuli/s25_1x_1.4_290_BC.png,1000,1x,1.4,0.0,57783,1007,meters,jsons/MX_seq49_2_VE1000.json,325033,654761,25,Man
