,subjID,experimentName,versionName,sequenceName,url,selected_row,windowWidth,windowHeight,screenWidth,screenHeight,startDate,startTime,trial,stimulus,duration,scale,actual_depth,depth_estimate,trial_RT,log_sceneDuration,unitSelection,seq_filepath,experimentTime,totalTime,age,gender
0,667592,final-intermixed-textured,v2,jsons/MX_seq50_0_VE1000_flipped.json,http://54.235.29.9/FacialAge/BNav_EC2/DepthDuration/MX_fS_VE_MTurk/MX_fS_HTML.html#85,85,1380,764,1440,900,1-8-2024,11-31-27,1,VR_target_stimuli/s53_0.75x_1.6_403.png,1000,0.75x,1.6,2,26031,1001,meters,jsons/MX_seq50_0_VE1000_flipped.json,362596,1480317,32,Man
1,667592,final-intermixed-textured,v2,jsons/MX_seq50_0_VE1000_flipped.json,http://54.235.29.9/FacialAge/BNav_EC2/DepthDuration/MX_fS_VE_MTurk/MX_fS_HTML.html#85,85,1380,764,1440,900,1-8-2024,11-31-27,2,VR_target_stimuli/s38_1x_3.55_353.png,1000,1x,3.55,0,4014,1003,meters,jsons/MX_seq50_0_VE1000_flipped.json,362596,1480317,32,Man
2,667592,final-intermixed-textured,v2,jsons/MX_seq50_0_VE1000_flipped.json,http://54.235.29.9/FacialAge/BNav_EC2/DepthDuration/MX_fS_VE_MTurk/MX_fS_HTML.html#85,85,1380,764,1440,900,1-8-2024,11-31-27,3,VR_target_stimuli/s9_1.3x_1.2_276.png,1000,1.3x,1.2,2,3181,1000,meters,jsons/MX_seq50_0_VE1000_flipped.json,362596,1480317,32,Man
3,667592,final-intermixed-textured,v2,jsons/MX_seq50_0_VE1000_flipped.json,http://54.235.29.9/FacialAge/BNav_EC2/DepthDuration/MX_fS_VE_MTurk/MX_fS_HTML.html#85,85,1380,764,1440,900,1-8-2024,11-31-27,4,VR_target_stimuli/s44_1x_4.4_317_BC.png,1000,1x,4.4,3,3982,1004,meters,jsons/MX_seq50_0_VE1000_flipped.json,362596,1480317,32,Man
4,667592,final-intermixed-textured,v2,jsons/MX_seq50_0_VE1000_flipped.json,http://54.235.29.9/FacialAge/BNav_EC2/DepthDuration/MX_fS_VE_MTurk/MX_fS_HTML.html#85,85,1380,764,1440,900,1-8-2024,11-31-27,5,VR_target_stimuli/s3_0.75x_5_381_BC.png,1000,0.75x,5.0,4,2998,1004,meters,jsons/MX_seq50_0_VE1000_flipped.json,362596,1480317,32,Man
5,667592,final-intermixed-textured,v2,jsons/MX_seq50_0_VE1000_flipped.json,http://54.235.29.9/FacialAge/BNav_EC2/DepthDuration/MX_fS_VE_MTurk/MX_fS_HTML.html#85,85,1380,764,1440,900,1-8-2024,11-31-27,6,VR_target_stimuli/s1_1.3x_1.7_261_BC.png,1000,1.3x,1.7,2,2896,1005,meters,jsons/MX_seq50_0_VE1000_flipped.json,362596,1480317,32,Man
6,667592,final-intermixed-textured,v2,jsons/MX_seq50_0_VE1000_flipped.json,http://54.235.29.9/FacialAge/BNav_EC2/DepthDuration/MX_fS_VE_MTurk/MX_fS_HTML.html#85,85,1380,764,1440,900,1-8-2024,11-31-27,7,catch_stimuli/c0_BC.png,1000,,,1,2967,1002,meters,jsons/MX_seq50_0_VE1000_flipped.json,362596,1480317,32,Man
7,667592,final-intermixed-textured,v2,jsons/MX_seq50_0_VE1000_flipped.json,http://54.235.29.9/FacialAge/BNav_EC2/DepthDuration/MX_fS_VE_MTurk/MX_fS_HTML.html#85,85,1380,764,1440,900,1-8-2024,11-31-27,8,VR_target_stimuli/s11_1.3x_5_363_BC.png,1000,1.3x,5.0,2,2663,999,meters,jsons/MX_seq50_0_VE1000_flipped.json,362596,1480317,32,Man
8,667592,final-intermixed-textured,v2,jsons/MX_seq50_0_VE1000_flipped.json,http://54.235.29.9/FacialAge/BNav_EC2/DepthDuration/MX_fS_VE_MTurk/MX_fS_HTML.html#85,85,1380,764,1440,900,1-8-2024,11-31-27,9,VR_target_stimuli/s2_1x_2.7_390_BC.png,1000,1x,2.7,2,2767,1000,meters,jsons/MX_seq50_0_VE1000_flipped.json,362596,1480317,32,Man
9,667592,final-intermixed-textured,v2,jsons/MX_seq50_0_VE1000_flipped.json,http://54.235.29.9/FacialAge/BNav_EC2/DepthDuration/MX_fS_VE_MTurk/MX_fS_HTML.html#85,85,1380,764,1440,900,1-8-2024,11-31-27,10,VR_target_stimuli/s6_0.75x_2.1_290_BC.png,1000,0.75x,2.1,2,3016,1001,meters,jsons/MX_seq50_0_VE1000_flipped.json,362596,1480317,32,Man
10,667592,final-intermixed-textured,v2,jsons/MX_seq50_0_VE1000_flipped.json,http://54.235.29.9/FacialAge/BNav_EC2/DepthDuration/MX_fS_VE_MTurk/MX_fS_HTML.html#85,85,1380,764,1440,900,1-8-2024,11-31-27,11,VR_target_stimuli/s0_1x_2.6_351.png,1000,1x,2.6,2,2664,1000,meters,jsons/MX_seq50_0_VE1000_flipped.json,362596,1480317,32,Man
11,667592,final-intermixed-textured,v2,jsons/MX_seq50_0_VE1000_flipped.json,http://54.235.29.9/FacialAge/BNav_EC2/DepthDuration/MX_fS_VE_MTurk/MX_fS_HTML.html#85,85,1380,764,1440,900,1-8-2024,11-31-27,12,VR_target_stimuli/s34_1.3x_2.8_294.png,1000,1.3x,2.8,2,3444,1004,meters,jsons/MX_seq50_0_VE1000_flipped.json,362596,1480317,32,Man
12,667592,final-intermixed-textured,v2,jsons/MX_seq50_0_VE1000_flipped.json,http://54.235.29.9/FacialAge/BNav_EC2/DepthDuration/MX_fS_VE_MTurk/MX_fS_HTML.html#85,85,1380,764,1440,900,1-8-2024,11-31-27,13,VR_target_stimuli/s13_0.75x_2.4_308.png,1000,0.75x,2.4,3,3166,998,meters,jsons/MX_seq50_0_VE1000_flipped.json,362596,1480317,32,Man
13,667592,final-intermixed-textured,v2,jsons/MX_seq50_0_VE1000_flipped.json,http://54.235.29.9/FacialAge/BNav_EC2/DepthDuration/MX_fS_VE_MTurk/MX_fS_HTML.html#85,85,1380,764,1440,900,1-8-2024,11-31-27,14,VR_target_stimuli/s14_1.3x_3.83_359.png,1000,1.3x,3.83,4,4678,1003,meters,jsons/MX_seq50_0_VE1000_flipped.json,362596,1480317,32,Man
14,667592,final-intermixed-textured,v2,jsons/MX_seq50_0_VE1000_flipped.json,http://54.235.29.9/FacialAge/BNav_EC2/DepthDuration/MX_fS_VE_MTurk/MX_fS_HTML.html#85,85,1380,764,1440,900,1-8-2024,11-31-27,15,VR_target_stimuli/s47_1x_3.45_370.png,1000,1x,3.45,2,2680,997,meters,jsons/MX_seq50_0_VE1000_flipped.json,362596,1480317,32,Man
15,667592,final-intermixed-textured,v2,jsons/MX_seq50_0_VE1000_flipped.json,http://54.235.29.9/FacialAge/BNav_EC2/DepthDuration/MX_fS_VE_MTurk/MX_fS_HTML.html#85,85,1380,764,1440,900,1-8-2024,11-31-27,16,VR_target_stimuli/s29_0.75x_1.3_246_BC.png,1000,0.75x,1.3,2,2614,1002,meters,jsons/MX_seq50_0_VE1000_flipped.json,362596,1480317,32,Man
16,667592,final-intermixed-textured,v2,jsons/MX_seq50_0_VE1000_flipped.json,http://54.235.29.9/FacialAge/BNav_EC2/DepthDuration/MX_fS_VE_MTurk/MX_fS_HTML.html#85,85,1380,764,1440,900,1-8-2024,11-31-27,17,catch_stimuli/c1_BC.png,1000,,,0,20882,999,meters,jsons/MX_seq50_0_VE1000_flipped.json,362596,1480317,32,Man
17,667592,final-intermixed-textured,v2,jsons/MX_seq50_0_VE1000_flipped.json,http://54.235.29.9/FacialAge/BNav_EC2/DepthDuration/MX_fS_VE_MTurk/MX_fS_HTML.html#85,85,1380,764,1440,900,1-8-2024,11-31-27,18,VR_target_stimuli/s28_0.75x_3.2_357.png,1000,0.75x,3.2,3,3180,999,meters,jsons/MX_seq50_0_VE1000_flipped.json,362596,1480317,32,Man
18,667592,final-intermixed-textured,v2,jsons/MX_seq50_0_VE1000_flipped.json,http://54.235.29.9/FacialAge/BNav_EC2/DepthDuration/MX_fS_VE_MTurk/MX_fS_HTML.html#85,85,1380,764,1440,900,1-8-2024,11-31-27,19,VR_target_stimuli/s48_1.3x_2.55_255_BC.png,1000,1.3x,2.55,3,2514,997,meters,jsons/MX_seq50_0_VE1000_flipped.json,362596,1480317,32,Man
19,667592,final-intermixed-textured,v2,jsons/MX_seq50_0_VE1000_flipped.json,http://54.235.29.9/FacialAge/BNav_EC2/DepthDuration/MX_fS_VE_MTurk/MX_fS_HTML.html#85,85,1380,764,1440,900,1-8-2024,11-31-27,20,VR_target_stimuli/s19_1x_1.21_263_BC.png,1000,1x,1.21,2,2681,1001,meters,jsons/MX_seq50_0_VE1000_flipped.json,362596,1480317,32,Man
20,667592,final-intermixed-textured,v2,jsons/MX_seq50_0_VE1000_flipped.json,http://54.235.29.9/FacialAge/BNav_EC2/DepthDuration/MX_fS_VE_MTurk/MX_fS_HTML.html#85,85,1380,764,1440,900,1-8-2024,11-31-27,21,VR_target_stimuli/s21_1.3x_4.22_384_BC.png,1000,1.3x,4.22,2,2732,1003,meters,jsons/MX_seq50_0_VE1000_flipped.json,362596,1480317,32,Man
21,667592,final-intermixed-textured,v2,jsons/MX_seq50_0_VE1000_flipped.json,http://54.235.29.9/FacialAge/BNav_EC2/DepthDuration/MX_fS_VE_MTurk/MX_fS_HTML.html#85,85,1380,764,1440,900,1-8-2024,11-31-27,22,VR_target_stimuli/s8_0.75x_3.1_325_BC.png,1000,0.75x,3.1,2,10299,999,meters,jsons/MX_seq50_0_VE1000_flipped.json,362596,1480317,32,Man
22,667592,final-intermixed-textured,v2,jsons/MX_seq50_0_VE1000_flipped.json,http://54.235.29.9/FacialAge/BNav_EC2/DepthDuration/MX_fS_VE_MTurk/MX_fS_HTML.html#85,85,1380,764,1440,900,1-8-2024,11-31-27,23,VR_target_stimuli/s27_1x_1.76_248.png,1000,1x,1.76,2,2648,1000,meters,jsons/MX_seq50_0_VE1000_flipped.json,362596,1480317,32,Man
23,667592,final-intermixed-textured,v2,jsons/MX_seq50_0_VE1000_flipped.json,http://54.235.29.9/FacialAge/BNav_EC2/DepthDuration/MX_fS_VE_MTurk/MX_fS_HTML.html#85,85,1380,764,1440,900,1-8-2024,11-31-27,24,VR_target_stimuli/s15_0.75x_4.2_388.png,1000,0.75x,4.2,3,2765,999,meters,jsons/MX_seq50_0_VE1000_flipped.json,362596,1480317,32,Man
24,667592,final-intermixed-textured,v2,jsons/MX_seq50_0_VE1000_flipped.json,http://54.235.29.9/FacialAge/BNav_EC2/DepthDuration/MX_fS_VE_MTurk/MX_fS_HTML.html#85,85,1380,764,1440,900,1-8-2024,11-31-27,25,VR_target_stimuli/s4_1.3x_1.4_328.png,1000,1.3x,1.4,2,2917,1004,meters,jsons/MX_seq50_0_VE1000_flipped.json,362596,1480317,32,Man
25,667592,final-intermixed-textured,v2,jsons/MX_seq50_0_VE1000_flipped.json,http://54.235.29.9/FacialAge/BNav_EC2/DepthDuration/MX_fS_VE_MTurk/MX_fS_HTML.html#85,85,1380,764,1440,900,1-8-2024,11-31-27,26,catch_stimuli/c2_BC.png,1000,,,0,6131,1003,meters,jsons/MX_seq50_0_VE1000_flipped.json,362596,1480317,32,Man
26,667592,final-intermixed-textured,v2,jsons/MX_seq50_0_VE1000_flipped.json,http://54.235.29.9/FacialAge/BNav_EC2/DepthDuration/MX_fS_VE_MTurk/MX_fS_HTML.html#85,85,1380,764,1440,900,1-8-2024,11-31-27,27,VR_target_stimuli/s35_1x_2_331_BC.png,1000,1x,2.0,2,2714,998,meters,jsons/MX_seq50_0_VE1000_flipped.json,362596,1480317,32,Man
27,667592,final-intermixed-textured,v2,jsons/MX_seq50_0_VE1000_flipped.json,http://54.235.29.9/FacialAge/BNav_EC2/DepthDuration/MX_fS_VE_MTurk/MX_fS_HTML.html#85,85,1380,764,1440,900,1-8-2024,11-31-27,28,VR_target_stimuli/s49_1x_4.67_341_BC.png,1000,1x,4.67,4,3183,999,meters,jsons/MX_seq50_0_VE1000_flipped.json,362596,1480317,32,Man
28,667592,final-intermixed-textured,v2,jsons/MX_seq50_0_VE1000_flipped.json,http://54.235.29.9/FacialAge/BNav_EC2/DepthDuration/MX_fS_VE_MTurk/MX_fS_HTML.html#85,85,1380,764,1440,900,1-8-2024,11-31-27,29,VR_target_stimuli/s7_0.75x_1.5_253_BC.png,1000,0.75x,1.5,2,32313,1000,meters,jsons/MX_seq50_0_VE1000_flipped.json,362596,1480317,32,Man
29,667592,final-intermixed-textured,v2,jsons/MX_seq50_0_VE1000_flipped.json,http://54.235.29.9/FacialAge/BNav_EC2/DepthDuration/MX_fS_VE_MTurk/MX_fS_HTML.html#85,85,1380,764,1440,900,1-8-2024,11-31-27,30,VR_target_stimuli/s20_1.3x_4.99_412.png,1000,1.3x,4.99,5,3000,1000,meters,jsons/MX_seq50_0_VE1000_flipped.json,362596,1480317,32,Man
30,667592,final-intermixed-textured,v2,jsons/MX_seq50_0_VE1000_flipped.json,http://54.235.29.9/FacialAge/BNav_EC2/DepthDuration/MX_fS_VE_MTurk/MX_fS_HTML.html#85,85,1380,764,1440,900,1-8-2024,11-31-27,31,VR_target_stimuli/s31_1x_4.96_333.png,1000,1x,4.96,3,2981,999,meters,jsons/MX_seq50_0_VE1000_flipped.json,362596,1480317,32,Man
31,667592,final-intermixed-textured,v2,jsons/MX_seq50_0_VE1000_flipped.json,http://54.235.29.9/FacialAge/BNav_EC2/DepthDuration/MX_fS_VE_MTurk/MX_fS_HTML.html#85,85,1380,764,1440,900,1-8-2024,11-31-27,32,VR_target_stimuli/s33_1.3x_3.1_378_BC.png,1000,1.3x,3.1,3,3966,1004,meters,jsons/MX_seq50_0_VE1000_flipped.json,362596,1480317,32,Man
32,667592,final-intermixed-textured,v2,jsons/MX_seq50_0_VE1000_flipped.json,http://54.235.29.9/FacialAge/BNav_EC2/DepthDuration/MX_fS_VE_MTurk/MX_fS_HTML.html#85,85,1380,764,1440,900,1-8-2024,11-31-27,33,VR_target_stimuli/s52_0.75x_3.2_270.png,1000,0.75x,3.2,4,3447,1003,meters,jsons/MX_seq50_0_VE1000_flipped.json,362596,1480317,32,Man
33,667592,final-intermixed-textured,v2,jsons/MX_seq50_0_VE1000_flipped.json,http://54.235.29.9/FacialAge/BNav_EC2/DepthDuration/MX_fS_VE_MTurk/MX_fS_HTML.html#85,85,1380,764,1440,900,1-8-2024,11-31-27,34,catch_stimuli/c3_BC.png,1000,,,4,8630,1002,meters,jsons/MX_seq50_0_VE1000_flipped.json,362596,1480317,32,Man
34,667592,final-intermixed-textured,v2,jsons/MX_seq50_0_VE1000_flipped.json,http://54.235.29.9/FacialAge/BNav_EC2/DepthDuration/MX_fS_VE_MTurk/MX_fS_HTML.html#85,85,1380,764,1440,900,1-8-2024,11-31-27,35,VR_target_stimuli/s32_1.3x_1.5_224_BC.png,1000,1.3x,1.5,3,3830,1004,meters,jsons/MX_seq50_0_VE1000_flipped.json,362596,1480317,32,Man
35,667592,final-intermixed-textured,v2,jsons/MX_seq50_0_VE1000_flipped.json,http://54.235.29.9/FacialAge/BNav_EC2/DepthDuration/MX_fS_VE_MTurk/MX_fS_HTML.html#85,85,1380,764,1440,900,1-8-2024,11-31-27,36,VR_target_stimuli/s18_1x_2.25_353_BC.png,1000,1x,2.25,3,12764,1005,meters,jsons/MX_seq50_0_VE1000_flipped.json,362596,1480317,32,Man
36,667592,final-intermixed-textured,v2,jsons/MX_seq50_0_VE1000_flipped.json,http://54.235.29.9/FacialAge/BNav_EC2/DepthDuration/MX_fS_VE_MTurk/MX_fS_HTML.html#85,85,1380,764,1440,900,1-8-2024,11-31-27,37,VR_target_stimuli/s39_0.75x_1_205_BC.png,1000,0.75x,1.0,2,2897,999,meters,jsons/MX_seq50_0_VE1000_flipped.json,362596,1480317,32,Man
37,667592,final-intermixed-textured,v2,jsons/MX_seq50_0_VE1000_flipped.json,http://54.235.29.9/FacialAge/BNav_EC2/DepthDuration/MX_fS_VE_MTurk/MX_fS_HTML.html#85,85,1380,764,1440,900,1-8-2024,11-31-27,38,VR_target_stimuli/s51_0.75x_3.64_460.png,1000,0.75x,3.64,2,2435,1001,meters,jsons/MX_seq50_0_VE1000_flipped.json,362596,1480317,32,Man
38,667592,final-intermixed-textured,v2,jsons/MX_seq50_0_VE1000_flipped.json,http://54.235.29.9/FacialAge/BNav_EC2/DepthDuration/MX_fS_VE_MTurk/MX_fS_HTML.html#85,85,1380,764,1440,900,1-8-2024,11-31-27,39,VR_target_stimuli/s43_1.3x_2.2_363.png,1000,1.3x,2.2,2,2545,997,meters,jsons/MX_seq50_0_VE1000_flipped.json,362596,1480317,32,Man
39,667592,final-intermixed-textured,v2,jsons/MX_seq50_0_VE1000_flipped.json,http://54.235.29.9/FacialAge/BNav_EC2/DepthDuration/MX_fS_VE_MTurk/MX_fS_HTML.html#85,85,1380,764,1440,900,1-8-2024,11-31-27,40,VR_target_stimuli/s24_1x_3.3_349.png,1000,1x,3.3,2,13580,1004,meters,jsons/MX_seq50_0_VE1000_flipped.json,362596,1480317,32,Man
40,667592,final-intermixed-textured,v2,jsons/MX_seq50_0_VE1000_flipped.json,http://54.235.29.9/FacialAge/BNav_EC2/DepthDuration/MX_fS_VE_MTurk/MX_fS_HTML.html#85,85,1380,764,1440,900,1-8-2024,11-31-27,41,VR_target_stimuli/s10_1.3x_2.7_325.png,1000,1.3x,2.7,3,2732,1004,meters,jsons/MX_seq50_0_VE1000_flipped.json,362596,1480317,32,Man
41,667592,final-intermixed-textured,v2,jsons/MX_seq50_0_VE1000_flipped.json,http://54.235.29.9/FacialAge/BNav_EC2/DepthDuration/MX_fS_VE_MTurk/MX_fS_HTML.html#85,85,1380,764,1440,900,1-8-2024,11-31-27,42,VR_target_stimuli/s36_0.75x_4.1_407.png,1000,0.75x,4.1,4,3332,1004,meters,jsons/MX_seq50_0_VE1000_flipped.json,362596,1480317,32,Man
42,667592,final-intermixed-textured,v2,jsons/MX_seq50_0_VE1000_flipped.json,http://54.235.29.9/FacialAge/BNav_EC2/DepthDuration/MX_fS_VE_MTurk/MX_fS_HTML.html#85,85,1380,764,1440,900,1-8-2024,11-31-27,43,VR_target_stimuli/s40_1x_1.2_319.png,1000,1x,1.2,4,14781,1004,meters,jsons/MX_seq50_0_VE1000_flipped.json,362596,1480317,32,Man
43,667592,final-intermixed-textured,v2,jsons/MX_seq50_0_VE1000_flipped.json,http://54.235.29.9/FacialAge/BNav_EC2/DepthDuration/MX_fS_VE_MTurk/MX_fS_HTML.html#85,85,1380,764,1440,900,1-8-2024,11-31-27,44,VR_target_stimuli/s41_0.75x_2.1_281_BC.png,1000,0.75x,2.1,2,5296,1000,meters,jsons/MX_seq50_0_VE1000_flipped.json,362596,1480317,32,Man
44,667592,final-intermixed-textured,v2,jsons/MX_seq50_0_VE1000_flipped.json,http://54.235.29.9/FacialAge/BNav_EC2/DepthDuration/MX_fS_VE_MTurk/MX_fS_HTML.html#85,85,1380,764,1440,900,1-8-2024,11-31-27,45,catch_stimuli/c4_BC.png,1000,,,0,36851,996,meters,jsons/MX_seq50_0_VE1000_flipped.json,362596,1480317,32,Man
45,667592,final-intermixed-textured,v2,jsons/MX_seq50_0_VE1000_flipped.json,http://54.235.29.9/FacialAge/BNav_EC2/DepthDuration/MX_fS_VE_MTurk/MX_fS_HTML.html#85,85,1380,764,1440,900,1-8-2024,11-31-27,46,VR_target_stimuli/s45_1.3x_3.5_377_BC.png,1000,1.3x,3.5,2,2925,998,meters,jsons/MX_seq50_0_VE1000_flipped.json,362596,1480317,32,Man
46,667592,final-intermixed-textured,v2,jsons/MX_seq50_0_VE1000_flipped.json,http://54.235.29.9/FacialAge/BNav_EC2/DepthDuration/MX_fS_VE_MTurk/MX_fS_HTML.html#85,85,1380,764,1440,900,1-8-2024,11-31-27,47,VR_target_stimuli/s23_1x_3.65_353_BC.png,1000,1x,3.65,3,2648,999,meters,jsons/MX_seq50_0_VE1000_flipped.json,362596,1480317,32,Man
47,667592,final-intermixed-textured,v2,jsons/MX_seq50_0_VE1000_flipped.json,http://54.235.29.9/FacialAge/BNav_EC2/DepthDuration/MX_fS_VE_MTurk/MX_fS_HTML.html#85,85,1380,764,1440,900,1-8-2024,11-31-27,48,VR_target_stimuli/s26_1x_4_433_BC.png,1000,1x,4.0,3,2567,1001,meters,jsons/MX_seq50_0_VE1000_flipped.json,362596,1480317,32,Man
48,667592,final-intermixed-textured,v2,jsons/MX_seq50_0_VE1000_flipped.json,http://54.235.29.9/FacialAge/BNav_EC2/DepthDuration/MX_fS_VE_MTurk/MX_fS_HTML.html#85,85,1380,764,1440,900,1-8-2024,11-31-27,49,VR_target_stimuli/s12_0.75x_3.1_364.png,1000,0.75x,3.1,3,2614,999,meters,jsons/MX_seq50_0_VE1000_flipped.json,362596,1480317,32,Man
49,667592,final-intermixed-textured,v2,jsons/MX_seq50_0_VE1000_flipped.json,http://54.235.29.9/FacialAge/BNav_EC2/DepthDuration/MX_fS_VE_MTurk/MX_fS_HTML.html#85,85,1380,764,1440,900,1-8-2024,11-31-27,50,VR_target_stimuli/s30_1.3x_2.3_337_BC.png,1000,1.3x,2.3,4,2906,999,meters,jsons/MX_seq50_0_VE1000_flipped.json,362596,1480317,32,Man
50,667592,final-intermixed-textured,v2,jsons/MX_seq50_0_VE1000_flipped.json,http://54.235.29.9/FacialAge/BNav_EC2/DepthDuration/MX_fS_VE_MTurk/MX_fS_HTML.html#85,85,1380,764,1440,900,1-8-2024,11-31-27,51,VR_target_stimuli/s16_0.75x_1_217_BC.png,1000,0.75x,1.0,3,2654,997,meters,jsons/MX_seq50_0_VE1000_flipped.json,362596,1480317,32,Man
51,667592,final-intermixed-textured,v2,jsons/MX_seq50_0_VE1000_flipped.json,http://54.235.29.9/FacialAge/BNav_EC2/DepthDuration/MX_fS_VE_MTurk/MX_fS_HTML.html#85,85,1380,764,1440,900,1-8-2024,11-31-27,52,VR_target_stimuli/s17_1x_1.8_291.png,1000,1x,1.8,3,3065,999,meters,jsons/MX_seq50_0_VE1000_flipped.json,362596,1480317,32,Man
52,667592,final-intermixed-textured,v2,jsons/MX_seq50_0_VE1000_flipped.json,http://54.235.29.9/FacialAge/BNav_EC2/DepthDuration/MX_fS_VE_MTurk/MX_fS_HTML.html#85,85,1380,764,1440,900,1-8-2024,11-31-27,53,catch_stimuli/c5_BC.png,1000,,,2,2733,1002,meters,jsons/MX_seq50_0_VE1000_flipped.json,362596,1480317,32,Man
53,667592,final-intermixed-textured,v2,jsons/MX_seq50_0_VE1000_flipped.json,http://54.235.29.9/FacialAge/BNav_EC2/DepthDuration/MX_fS_VE_MTurk/MX_fS_HTML.html#85,85,1380,764,1440,900,1-8-2024,11-31-27,54,VR_target_stimuli/s5_1.3x_4_393.png,1000,1.3x,4.0,4,2945,1000,meters,jsons/MX_seq50_0_VE1000_flipped.json,362596,1480317,32,Man
54,667592,final-intermixed-textured,v2,jsons/MX_seq50_0_VE1000_flipped.json,http://54.235.29.9/FacialAge/BNav_EC2/DepthDuration/MX_fS_VE_MTurk/MX_fS_HTML.html#85,85,1380,764,1440,900,1-8-2024,11-31-27,55,VR_target_stimuli/s37_1x_3.3_563_BC.png,1000,1x,3.3,3,2449,997,meters,jsons/MX_seq50_0_VE1000_flipped.json,362596,1480317,32,Man
55,667592,final-intermixed-textured,v2,jsons/MX_seq50_0_VE1000_flipped.json,http://54.235.29.9/FacialAge/BNav_EC2/DepthDuration/MX_fS_VE_MTurk/MX_fS_HTML.html#85,85,1380,764,1440,900,1-8-2024,11-31-27,56,VR_target_stimuli/s46_0.75x_2.42_343.png,1000,0.75x,2.42,3,2647,1004,meters,jsons/MX_seq50_0_VE1000_flipped.json,362596,1480317,32,Man
56,667592,final-intermixed-textured,v2,jsons/MX_seq50_0_VE1000_flipped.json,http://54.235.29.9/FacialAge/BNav_EC2/DepthDuration/MX_fS_VE_MTurk/MX_fS_HTML.html#85,85,1380,764,1440,900,1-8-2024,11-31-27,57,VR_target_stimuli/s22_1.3x_4.29_364_BC.png,1000,1.3x,4.29,3,2599,1002,meters,jsons/MX_seq50_0_VE1000_flipped.json,362596,1480317,32,Man
57,667592,final-intermixed-textured,v2,jsons/MX_seq50_0_VE1000_flipped.json,http://54.235.29.9/FacialAge/BNav_EC2/DepthDuration/MX_fS_VE_MTurk/MX_fS_HTML.html#85,85,1380,764,1440,900,1-8-2024,11-31-27,58,VR_target_stimuli/s42_1.3x_3.2_305.png,1000,1.3x,3.2,3,2513,1001,meters,jsons/MX_seq50_0_VE1000_flipped.json,362596,1480317,32,Man
58,667592,final-intermixed-textured,v2,jsons/MX_seq50_0_VE1000_flipped.json,http://54.235.29.9/FacialAge/BNav_EC2/DepthDuration/MX_fS_VE_MTurk/MX_fS_HTML.html#85,85,1380,764,1440,900,1-8-2024,11-31-27,59,VR_target_stimuli/s25_1x_1.4_290.png,1000,1x,1.4,2,2782,1002,meters,jsons/MX_seq50_0_VE1000_flipped.json,362596,1480317,32,Man
59,667592,final-intermixed-textured,v2,jsons/MX_seq50_0_VE1000_flipped.json,http://54.235.29.9/FacialAge/BNav_EC2/DepthDuration/MX_fS_VE_MTurk/MX_fS_HTML.html#85,85,1380,764,1440,900,1-8-2024,11-31-27,60,VR_target_stimuli/s50_0.75x_4.53_517_BC.png,1000,0.75x,4.53,4,2632,1003,meters,jsons/MX_seq50_0_VE1000_flipped.json,362596,1480317,32,Man
