,subjID,experimentName,versionName,sequenceName,url,selected_row,windowWidth,windowHeight,screenWidth,screenHeight,startDate,startTime,trial,stimulus,duration,scale,actual_depth,depth_estimate,trial_RT,log_sceneDuration,unitSelection,seq_filepath,experimentTime,totalTime,age,gender
0,669687,final-intermixed-textured,v2,jsons/MX_seq48_1_VE1000.json,http://54.235.29.9/FacialAge/BNav_EC2/DepthDuration/MX_fS_VE_MTurk/MX_fS_HTML.html#143,143,1920,919,1920,1080,1-8-2024,14-58-28,1,VR_target_stimuli/s25_1.3x_1.4_299_BC.png,1000,1.3x,1.4,1.0,5391,1008,meters,jsons/MX_seq48_1_VE1000.json,466632,864838,27,Woman
1,669687,final-intermixed-textured,v2,jsons/MX_seq48_1_VE1000.json,http://54.235.29.9/FacialAge/BNav_EC2/DepthDuration/MX_fS_VE_MTurk/MX_fS_HTML.html#143,143,1920,919,1920,1080,1-8-2024,14-58-28,2,VR_target_stimuli/s50_0.75x_4.53_517.png,1000,0.75x,4.53,4.0,7572,999,meters,jsons/MX_seq48_1_VE1000.json,466632,864838,27,Woman
2,669687,final-intermixed-textured,v2,jsons/MX_seq48_1_VE1000.json,http://54.235.29.9/FacialAge/BNav_EC2/DepthDuration/MX_fS_VE_MTurk/MX_fS_HTML.html#143,143,1920,919,1920,1080,1-8-2024,14-58-28,3,VR_target_stimuli/s53_1x_1.6_387.png,1000,1x,1.6,1.5,10171,1001,meters,jsons/MX_seq48_1_VE1000.json,466632,864838,27,Woman
3,669687,final-intermixed-textured,v2,jsons/MX_seq48_1_VE1000.json,http://54.235.29.9/FacialAge/BNav_EC2/DepthDuration/MX_fS_VE_MTurk/MX_fS_HTML.html#143,143,1920,919,1920,1080,1-8-2024,14-58-28,4,VR_target_stimuli/s38_0.75x_3.55_346_BC.png,1000,0.75x,3.55,5.0,13655,1001,meters,jsons/MX_seq48_1_VE1000.json,466632,864838,27,Woman
4,669687,final-intermixed-textured,v2,jsons/MX_seq48_1_VE1000.json,http://54.235.29.9/FacialAge/BNav_EC2/DepthDuration/MX_fS_VE_MTurk/MX_fS_HTML.html#143,143,1920,919,1920,1080,1-8-2024,14-58-28,5,VR_target_stimuli/s9_1.3x_1.2_276.png,1000,1.3x,1.2,1.0,4068,1007,meters,jsons/MX_seq48_1_VE1000.json,466632,864838,27,Woman
5,669687,final-intermixed-textured,v2,jsons/MX_seq48_1_VE1000.json,http://54.235.29.9/FacialAge/BNav_EC2/DepthDuration/MX_fS_VE_MTurk/MX_fS_HTML.html#143,143,1920,919,1920,1080,1-8-2024,14-58-28,6,VR_target_stimuli/s44_1x_4.4_317_BC.png,1000,1x,4.4,4.0,4537,1001,meters,jsons/MX_seq48_1_VE1000.json,466632,864838,27,Woman
6,669687,final-intermixed-textured,v2,jsons/MX_seq48_1_VE1000.json,http://54.235.29.9/FacialAge/BNav_EC2/DepthDuration/MX_fS_VE_MTurk/MX_fS_HTML.html#143,143,1920,919,1920,1080,1-8-2024,14-58-28,7,catch_stimuli/c0.png,1000,,,0.0,3449,1001,meters,jsons/MX_seq48_1_VE1000.json,466632,864838,27,Woman
7,669687,final-intermixed-textured,v2,jsons/MX_seq48_1_VE1000.json,http://54.235.29.9/FacialAge/BNav_EC2/DepthDuration/MX_fS_VE_MTurk/MX_fS_HTML.html#143,143,1920,919,1920,1080,1-8-2024,14-58-28,8,VR_target_stimuli/s3_1x_5_385.png,1000,1x,5.0,6.0,8186,993,meters,jsons/MX_seq48_1_VE1000.json,466632,864838,27,Woman
8,669687,final-intermixed-textured,v2,jsons/MX_seq48_1_VE1000.json,http://54.235.29.9/FacialAge/BNav_EC2/DepthDuration/MX_fS_VE_MTurk/MX_fS_HTML.html#143,143,1920,919,1920,1080,1-8-2024,14-58-28,9,VR_target_stimuli/s1_0.75x_1.7_265.png,1000,0.75x,1.7,2.0,6329,1012,meters,jsons/MX_seq48_1_VE1000.json,466632,864838,27,Woman
9,669687,final-intermixed-textured,v2,jsons/MX_seq48_1_VE1000.json,http://54.235.29.9/FacialAge/BNav_EC2/DepthDuration/MX_fS_VE_MTurk/MX_fS_HTML.html#143,143,1920,919,1920,1080,1-8-2024,14-58-28,10,VR_target_stimuli/s11_1.3x_5_363.png,1000,1.3x,5.0,3.0,6222,994,meters,jsons/MX_seq48_1_VE1000.json,466632,864838,27,Woman
10,669687,final-intermixed-textured,v2,jsons/MX_seq48_1_VE1000.json,http://54.235.29.9/FacialAge/BNav_EC2/DepthDuration/MX_fS_VE_MTurk/MX_fS_HTML.html#143,143,1920,919,1920,1080,1-8-2024,14-58-28,11,VR_target_stimuli/s2_0.75x_2.7_384_BC.png,1000,0.75x,2.7,2.0,4628,999,meters,jsons/MX_seq48_1_VE1000.json,466632,864838,27,Woman
11,669687,final-intermixed-textured,v2,jsons/MX_seq48_1_VE1000.json,http://54.235.29.9/FacialAge/BNav_EC2/DepthDuration/MX_fS_VE_MTurk/MX_fS_HTML.html#143,143,1920,919,1920,1080,1-8-2024,14-58-28,12,VR_target_stimuli/s6_1x_2.1_293_BC.png,1000,1x,2.1,2.0,5634,994,meters,jsons/MX_seq48_1_VE1000.json,466632,864838,27,Woman
12,669687,final-intermixed-textured,v2,jsons/MX_seq48_1_VE1000.json,http://54.235.29.9/FacialAge/BNav_EC2/DepthDuration/MX_fS_VE_MTurk/MX_fS_HTML.html#143,143,1920,919,1920,1080,1-8-2024,14-58-28,13,VR_target_stimuli/s0_1.3x_2.6_356_BC.png,1000,1.3x,2.6,2.0,11336,1008,meters,jsons/MX_seq48_1_VE1000.json,466632,864838,27,Woman
13,669687,final-intermixed-textured,v2,jsons/MX_seq48_1_VE1000.json,http://54.235.29.9/FacialAge/BNav_EC2/DepthDuration/MX_fS_VE_MTurk/MX_fS_HTML.html#143,143,1920,919,1920,1080,1-8-2024,14-58-28,14,VR_target_stimuli/s34_1x_2.8_283.png,1000,1x,2.8,4.0,9240,1000,meters,jsons/MX_seq48_1_VE1000.json,466632,864838,27,Woman
14,669687,final-intermixed-textured,v2,jsons/MX_seq48_1_VE1000.json,http://54.235.29.9/FacialAge/BNav_EC2/DepthDuration/MX_fS_VE_MTurk/MX_fS_HTML.html#143,143,1920,919,1920,1080,1-8-2024,14-58-28,15,VR_target_stimuli/s13_0.75x_2.4_308.png,1000,0.75x,2.4,3.0,6787,1012,meters,jsons/MX_seq48_1_VE1000.json,466632,864838,27,Woman
15,669687,final-intermixed-textured,v2,jsons/MX_seq48_1_VE1000.json,http://54.235.29.9/FacialAge/BNav_EC2/DepthDuration/MX_fS_VE_MTurk/MX_fS_HTML.html#143,143,1920,919,1920,1080,1-8-2024,14-58-28,16,VR_target_stimuli/s14_1.3x_3.83_359.png,1000,1.3x,3.83,4.0,12976,1008,meters,jsons/MX_seq48_1_VE1000.json,466632,864838,27,Woman
16,669687,final-intermixed-textured,v2,jsons/MX_seq48_1_VE1000.json,http://54.235.29.9/FacialAge/BNav_EC2/DepthDuration/MX_fS_VE_MTurk/MX_fS_HTML.html#143,143,1920,919,1920,1080,1-8-2024,14-58-28,17,catch_stimuli/c1.png,1000,,,0.0,4136,994,meters,jsons/MX_seq48_1_VE1000.json,466632,864838,27,Woman
17,669687,final-intermixed-textured,v2,jsons/MX_seq48_1_VE1000.json,http://54.235.29.9/FacialAge/BNav_EC2/DepthDuration/MX_fS_VE_MTurk/MX_fS_HTML.html#143,143,1920,919,1920,1080,1-8-2024,14-58-28,18,VR_target_stimuli/s47_1.3x_3.45_373_BC.png,1000,1.3x,3.45,3.0,4604,1007,meters,jsons/MX_seq48_1_VE1000.json,466632,864838,27,Woman
18,669687,final-intermixed-textured,v2,jsons/MX_seq48_1_VE1000.json,http://54.235.29.9/FacialAge/BNav_EC2/DepthDuration/MX_fS_VE_MTurk/MX_fS_HTML.html#143,143,1920,919,1920,1080,1-8-2024,14-58-28,19,VR_target_stimuli/s29_1x_1.3_250_BC.png,1000,1x,1.3,1.0,7550,1000,meters,jsons/MX_seq48_1_VE1000.json,466632,864838,27,Woman
19,669687,final-intermixed-textured,v2,jsons/MX_seq48_1_VE1000.json,http://54.235.29.9/FacialAge/BNav_EC2/DepthDuration/MX_fS_VE_MTurk/MX_fS_HTML.html#143,143,1920,919,1920,1080,1-8-2024,14-58-28,20,VR_target_stimuli/s28_0.75x_3.2_357_BC.png,1000,0.75x,3.2,3.0,10268,1007,meters,jsons/MX_seq48_1_VE1000.json,466632,864838,27,Woman
20,669687,final-intermixed-textured,v2,jsons/MX_seq48_1_VE1000.json,http://54.235.29.9/FacialAge/BNav_EC2/DepthDuration/MX_fS_VE_MTurk/MX_fS_HTML.html#143,143,1920,919,1920,1080,1-8-2024,14-58-28,21,VR_target_stimuli/s48_1x_2.55_256.png,1000,1x,2.55,4.0,8258,997,meters,jsons/MX_seq48_1_VE1000.json,466632,864838,27,Woman
21,669687,final-intermixed-textured,v2,jsons/MX_seq48_1_VE1000.json,http://54.235.29.9/FacialAge/BNav_EC2/DepthDuration/MX_fS_VE_MTurk/MX_fS_HTML.html#143,143,1920,919,1920,1080,1-8-2024,14-58-28,22,VR_target_stimuli/s19_1.3x_1.21_270_BC.png,1000,1.3x,1.21,1.0,4594,1006,meters,jsons/MX_seq48_1_VE1000.json,466632,864838,27,Woman
22,669687,final-intermixed-textured,v2,jsons/MX_seq48_1_VE1000.json,http://54.235.29.9/FacialAge/BNav_EC2/DepthDuration/MX_fS_VE_MTurk/MX_fS_HTML.html#143,143,1920,919,1920,1080,1-8-2024,14-58-28,23,VR_target_stimuli/s21_0.75x_4.22_374.png,1000,0.75x,4.22,7.0,8244,1005,meters,jsons/MX_seq48_1_VE1000.json,466632,864838,27,Woman
23,669687,final-intermixed-textured,v2,jsons/MX_seq48_1_VE1000.json,http://54.235.29.9/FacialAge/BNav_EC2/DepthDuration/MX_fS_VE_MTurk/MX_fS_HTML.html#143,143,1920,919,1920,1080,1-8-2024,14-58-28,24,VR_target_stimuli/s8_1.3x_3.1_345.png,1000,1.3x,3.1,3.0,3671,1000,meters,jsons/MX_seq48_1_VE1000.json,466632,864838,27,Woman
24,669687,final-intermixed-textured,v2,jsons/MX_seq48_1_VE1000.json,http://54.235.29.9/FacialAge/BNav_EC2/DepthDuration/MX_fS_VE_MTurk/MX_fS_HTML.html#143,143,1920,919,1920,1080,1-8-2024,14-58-28,25,VR_target_stimuli/s27_1x_1.76_248_BC.png,1000,1x,1.76,2.0,8331,995,meters,jsons/MX_seq48_1_VE1000.json,466632,864838,27,Woman
25,669687,final-intermixed-textured,v2,jsons/MX_seq48_1_VE1000.json,http://54.235.29.9/FacialAge/BNav_EC2/DepthDuration/MX_fS_VE_MTurk/MX_fS_HTML.html#143,143,1920,919,1920,1080,1-8-2024,14-58-28,26,catch_stimuli/c2.png,1000,,,0.0,3765,1011,meters,jsons/MX_seq48_1_VE1000.json,466632,864838,27,Woman
26,669687,final-intermixed-textured,v2,jsons/MX_seq48_1_VE1000.json,http://54.235.29.9/FacialAge/BNav_EC2/DepthDuration/MX_fS_VE_MTurk/MX_fS_HTML.html#143,143,1920,919,1920,1080,1-8-2024,14-58-28,27,VR_target_stimuli/s15_0.75x_4.2_388_BC.png,1000,0.75x,4.2,5.0,6297,1011,meters,jsons/MX_seq48_1_VE1000.json,466632,864838,27,Woman
27,669687,final-intermixed-textured,v2,jsons/MX_seq48_1_VE1000.json,http://54.235.29.9/FacialAge/BNav_EC2/DepthDuration/MX_fS_VE_MTurk/MX_fS_HTML.html#143,143,1920,919,1920,1080,1-8-2024,14-58-28,28,VR_target_stimuli/s4_0.75x_1.4_301_BC.png,1000,0.75x,1.4,2.0,4217,1007,meters,jsons/MX_seq48_1_VE1000.json,466632,864838,27,Woman
28,669687,final-intermixed-textured,v2,jsons/MX_seq48_1_VE1000.json,http://54.235.29.9/FacialAge/BNav_EC2/DepthDuration/MX_fS_VE_MTurk/MX_fS_HTML.html#143,143,1920,919,1920,1080,1-8-2024,14-58-28,29,VR_target_stimuli/s35_1.3x_2_338.png,1000,1.3x,2.0,2.0,3588,1007,meters,jsons/MX_seq48_1_VE1000.json,466632,864838,27,Woman
29,669687,final-intermixed-textured,v2,jsons/MX_seq48_1_VE1000.json,http://54.235.29.9/FacialAge/BNav_EC2/DepthDuration/MX_fS_VE_MTurk/MX_fS_HTML.html#143,143,1920,919,1920,1080,1-8-2024,14-58-28,30,VR_target_stimuli/s49_1x_4.67_341_BC.png,1000,1x,4.67,4.0,5344,999,meters,jsons/MX_seq48_1_VE1000.json,466632,864838,27,Woman
30,669687,final-intermixed-textured,v2,jsons/MX_seq48_1_VE1000.json,http://54.235.29.9/FacialAge/BNav_EC2/DepthDuration/MX_fS_VE_MTurk/MX_fS_HTML.html#143,143,1920,919,1920,1080,1-8-2024,14-58-28,31,VR_target_stimuli/s7_0.75x_1.5_253.png,1000,0.75x,1.5,2.0,14777,997,meters,jsons/MX_seq48_1_VE1000.json,466632,864838,27,Woman
31,669687,final-intermixed-textured,v2,jsons/MX_seq48_1_VE1000.json,http://54.235.29.9/FacialAge/BNav_EC2/DepthDuration/MX_fS_VE_MTurk/MX_fS_HTML.html#143,143,1920,919,1920,1080,1-8-2024,14-58-28,32,VR_target_stimuli/s20_1x_4.99_398.png,1000,1x,4.99,4.0,7202,1007,meters,jsons/MX_seq48_1_VE1000.json,466632,864838,27,Woman
32,669687,final-intermixed-textured,v2,jsons/MX_seq48_1_VE1000.json,http://54.235.29.9/FacialAge/BNav_EC2/DepthDuration/MX_fS_VE_MTurk/MX_fS_HTML.html#143,143,1920,919,1920,1080,1-8-2024,14-58-28,33,VR_target_stimuli/s31_1.3x_4.96_342_BC.png,1000,1.3x,4.96,4.0,9881,1001,meters,jsons/MX_seq48_1_VE1000.json,466632,864838,27,Woman
33,669687,final-intermixed-textured,v2,jsons/MX_seq48_1_VE1000.json,http://54.235.29.9/FacialAge/BNav_EC2/DepthDuration/MX_fS_VE_MTurk/MX_fS_HTML.html#143,143,1920,919,1920,1080,1-8-2024,14-58-28,34,catch_stimuli/c3.png,1000,,,0.0,3744,999,meters,jsons/MX_seq48_1_VE1000.json,466632,864838,27,Woman
34,669687,final-intermixed-textured,v2,jsons/MX_seq48_1_VE1000.json,http://54.235.29.9/FacialAge/BNav_EC2/DepthDuration/MX_fS_VE_MTurk/MX_fS_HTML.html#143,143,1920,919,1920,1080,1-8-2024,14-58-28,35,VR_target_stimuli/s33_1x_3.1_366_BC.png,1000,1x,3.1,3.0,5095,1000,meters,jsons/MX_seq48_1_VE1000.json,466632,864838,27,Woman
35,669687,final-intermixed-textured,v2,jsons/MX_seq48_1_VE1000.json,http://54.235.29.9/FacialAge/BNav_EC2/DepthDuration/MX_fS_VE_MTurk/MX_fS_HTML.html#143,143,1920,919,1920,1080,1-8-2024,14-58-28,36,VR_target_stimuli/s52_0.75x_3.2_270_BC.png,1000,0.75x,3.2,4.0,4254,999,meters,jsons/MX_seq48_1_VE1000.json,466632,864838,27,Woman
36,669687,final-intermixed-textured,v2,jsons/MX_seq48_1_VE1000.json,http://54.235.29.9/FacialAge/BNav_EC2/DepthDuration/MX_fS_VE_MTurk/MX_fS_HTML.html#143,143,1920,919,1920,1080,1-8-2024,14-58-28,37,VR_target_stimuli/s32_1.3x_1.5_224_BC.png,1000,1.3x,1.5,3.0,4704,990,meters,jsons/MX_seq48_1_VE1000.json,466632,864838,27,Woman
37,669687,final-intermixed-textured,v2,jsons/MX_seq48_1_VE1000.json,http://54.235.29.9/FacialAge/BNav_EC2/DepthDuration/MX_fS_VE_MTurk/MX_fS_HTML.html#143,143,1920,919,1920,1080,1-8-2024,14-58-28,38,VR_target_stimuli/s18_1.3x_2.25_368.png,1000,1.3x,2.25,3.0,4019,1007,meters,jsons/MX_seq48_1_VE1000.json,466632,864838,27,Woman
38,669687,final-intermixed-textured,v2,jsons/MX_seq48_1_VE1000.json,http://54.235.29.9/FacialAge/BNav_EC2/DepthDuration/MX_fS_VE_MTurk/MX_fS_HTML.html#143,143,1920,919,1920,1080,1-8-2024,14-58-28,39,VR_target_stimuli/s39_1x_1_207.png,1000,1x,1.0,2.0,6731,1003,meters,jsons/MX_seq48_1_VE1000.json,466632,864838,27,Woman
39,669687,final-intermixed-textured,v2,jsons/MX_seq48_1_VE1000.json,http://54.235.29.9/FacialAge/BNav_EC2/DepthDuration/MX_fS_VE_MTurk/MX_fS_HTML.html#143,143,1920,919,1920,1080,1-8-2024,14-58-28,40,VR_target_stimuli/s51_0.75x_3.64_460.png,1000,0.75x,3.64,3.0,13372,984,meters,jsons/MX_seq48_1_VE1000.json,466632,864838,27,Woman
40,669687,final-intermixed-textured,v2,jsons/MX_seq48_1_VE1000.json,http://54.235.29.9/FacialAge/BNav_EC2/DepthDuration/MX_fS_VE_MTurk/MX_fS_HTML.html#143,143,1920,919,1920,1080,1-8-2024,14-58-28,41,VR_target_stimuli/s43_1x_2.2_354.png,1000,1x,2.2,4.0,5976,991,meters,jsons/MX_seq48_1_VE1000.json,466632,864838,27,Woman
41,669687,final-intermixed-textured,v2,jsons/MX_seq48_1_VE1000.json,http://54.235.29.9/FacialAge/BNav_EC2/DepthDuration/MX_fS_VE_MTurk/MX_fS_HTML.html#143,143,1920,919,1920,1080,1-8-2024,14-58-28,42,VR_target_stimuli/s24_1.3x_3.3_352.png,1000,1.3x,3.3,5.0,5441,998,meters,jsons/MX_seq48_1_VE1000.json,466632,864838,27,Woman
42,669687,final-intermixed-textured,v2,jsons/MX_seq48_1_VE1000.json,http://54.235.29.9/FacialAge/BNav_EC2/DepthDuration/MX_fS_VE_MTurk/MX_fS_HTML.html#143,143,1920,919,1920,1080,1-8-2024,14-58-28,43,VR_target_stimuli/s10_0.75x_2.7_321.png,1000,0.75x,2.7,4.0,8646,988,meters,jsons/MX_seq48_1_VE1000.json,466632,864838,27,Woman
43,669687,final-intermixed-textured,v2,jsons/MX_seq48_1_VE1000.json,http://54.235.29.9/FacialAge/BNav_EC2/DepthDuration/MX_fS_VE_MTurk/MX_fS_HTML.html#143,143,1920,919,1920,1080,1-8-2024,14-58-28,44,VR_target_stimuli/s36_1.3x_4.1_442_BC.png,1000,1.3x,4.1,3.0,65080,1008,meters,jsons/MX_seq48_1_VE1000.json,466632,864838,27,Woman
44,669687,final-intermixed-textured,v2,jsons/MX_seq48_1_VE1000.json,http://54.235.29.9/FacialAge/BNav_EC2/DepthDuration/MX_fS_VE_MTurk/MX_fS_HTML.html#143,143,1920,919,1920,1080,1-8-2024,14-58-28,45,catch_stimuli/c4.png,1000,,,0.0,3797,997,meters,jsons/MX_seq48_1_VE1000.json,466632,864838,27,Woman
45,669687,final-intermixed-textured,v2,jsons/MX_seq48_1_VE1000.json,http://54.235.29.9/FacialAge/BNav_EC2/DepthDuration/MX_fS_VE_MTurk/MX_fS_HTML.html#143,143,1920,919,1920,1080,1-8-2024,14-58-28,46,VR_target_stimuli/s40_1x_1.2_319_BC.png,1000,1x,1.2,2.0,3865,991,meters,jsons/MX_seq48_1_VE1000.json,466632,864838,27,Woman
46,669687,final-intermixed-textured,v2,jsons/MX_seq48_1_VE1000.json,http://54.235.29.9/FacialAge/BNav_EC2/DepthDuration/MX_fS_VE_MTurk/MX_fS_HTML.html#143,143,1920,919,1920,1080,1-8-2024,14-58-28,47,VR_target_stimuli/s41_0.75x_2.1_281_BC.png,1000,0.75x,2.1,2.5,6698,999,meters,jsons/MX_seq48_1_VE1000.json,466632,864838,27,Woman
47,669687,final-intermixed-textured,v2,jsons/MX_seq48_1_VE1000.json,http://54.235.29.9/FacialAge/BNav_EC2/DepthDuration/MX_fS_VE_MTurk/MX_fS_HTML.html#143,143,1920,919,1920,1080,1-8-2024,14-58-28,48,VR_target_stimuli/s45_0.75x_3.5_362.png,1000,0.75x,3.5,3.0,4396,996,meters,jsons/MX_seq48_1_VE1000.json,466632,864838,27,Woman
48,669687,final-intermixed-textured,v2,jsons/MX_seq48_1_VE1000.json,http://54.235.29.9/FacialAge/BNav_EC2/DepthDuration/MX_fS_VE_MTurk/MX_fS_HTML.html#143,143,1920,919,1920,1080,1-8-2024,14-58-28,49,VR_target_stimuli/s23_1.3x_3.65_354.png,1000,1.3x,3.65,4.0,3929,1000,meters,jsons/MX_seq48_1_VE1000.json,466632,864838,27,Woman
49,669687,final-intermixed-textured,v2,jsons/MX_seq48_1_VE1000.json,http://54.235.29.9/FacialAge/BNav_EC2/DepthDuration/MX_fS_VE_MTurk/MX_fS_HTML.html#143,143,1920,919,1920,1080,1-8-2024,14-58-28,50,VR_target_stimuli/s26_1x_4_433.png,1000,1x,4.0,4.0,4316,1010,meters,jsons/MX_seq48_1_VE1000.json,466632,864838,27,Woman
50,669687,final-intermixed-textured,v2,jsons/MX_seq48_1_VE1000.json,http://54.235.29.9/FacialAge/BNav_EC2/DepthDuration/MX_fS_VE_MTurk/MX_fS_HTML.html#143,143,1920,919,1920,1080,1-8-2024,14-58-28,51,VR_target_stimuli/s12_1.3x_3.1_375_BC.png,1000,1.3x,3.1,3.0,3840,991,meters,jsons/MX_seq48_1_VE1000.json,466632,864838,27,Woman
51,669687,final-intermixed-textured,v2,jsons/MX_seq48_1_VE1000.json,http://54.235.29.9/FacialAge/BNav_EC2/DepthDuration/MX_fS_VE_MTurk/MX_fS_HTML.html#143,143,1920,919,1920,1080,1-8-2024,14-58-28,52,VR_target_stimuli/s30_0.75x_2.3_332_BC.png,1000,0.75x,2.3,3.0,3240,1001,meters,jsons/MX_seq48_1_VE1000.json,466632,864838,27,Woman
52,669687,final-intermixed-textured,v2,jsons/MX_seq48_1_VE1000.json,http://54.235.29.9/FacialAge/BNav_EC2/DepthDuration/MX_fS_VE_MTurk/MX_fS_HTML.html#143,143,1920,919,1920,1080,1-8-2024,14-58-28,53,catch_stimuli/c5.png,1000,,,0.0,3905,991,meters,jsons/MX_seq48_1_VE1000.json,466632,864838,27,Woman
53,669687,final-intermixed-textured,v2,jsons/MX_seq48_1_VE1000.json,http://54.235.29.9/FacialAge/BNav_EC2/DepthDuration/MX_fS_VE_MTurk/MX_fS_HTML.html#143,143,1920,919,1920,1080,1-8-2024,14-58-28,54,VR_target_stimuli/s16_1x_1_219_BC.png,1000,1x,1.0,2.0,3538,1004,meters,jsons/MX_seq48_1_VE1000.json,466632,864838,27,Woman
54,669687,final-intermixed-textured,v2,jsons/MX_seq48_1_VE1000.json,http://54.235.29.9/FacialAge/BNav_EC2/DepthDuration/MX_fS_VE_MTurk/MX_fS_HTML.html#143,143,1920,919,1920,1080,1-8-2024,14-58-28,55,VR_target_stimuli/s17_0.75x_1.8_285_BC.png,1000,0.75x,1.8,3.0,3641,1001,meters,jsons/MX_seq48_1_VE1000.json,466632,864838,27,Woman
55,669687,final-intermixed-textured,v2,jsons/MX_seq48_1_VE1000.json,http://54.235.29.9/FacialAge/BNav_EC2/DepthDuration/MX_fS_VE_MTurk/MX_fS_HTML.html#143,143,1920,919,1920,1080,1-8-2024,14-58-28,56,VR_target_stimuli/s5_1.3x_4_393_BC.png,1000,1.3x,4.0,4.0,3561,1002,meters,jsons/MX_seq48_1_VE1000.json,466632,864838,27,Woman
56,669687,final-intermixed-textured,v2,jsons/MX_seq48_1_VE1000.json,http://54.235.29.9/FacialAge/BNav_EC2/DepthDuration/MX_fS_VE_MTurk/MX_fS_HTML.html#143,143,1920,919,1920,1080,1-8-2024,14-58-28,57,VR_target_stimuli/s37_1x_3.3_563_BC.png,1000,1x,3.3,5.0,7107,1008,meters,jsons/MX_seq48_1_VE1000.json,466632,864838,27,Woman
57,669687,final-intermixed-textured,v2,jsons/MX_seq48_1_VE1000.json,http://54.235.29.9/FacialAge/BNav_EC2/DepthDuration/MX_fS_VE_MTurk/MX_fS_HTML.html#143,143,1920,919,1920,1080,1-8-2024,14-58-28,58,VR_target_stimuli/s46_1x_2.42_348.png,1000,1x,2.42,4.0,10024,992,meters,jsons/MX_seq48_1_VE1000.json,466632,864838,27,Woman
58,669687,final-intermixed-textured,v2,jsons/MX_seq48_1_VE1000.json,http://54.235.29.9/FacialAge/BNav_EC2/DepthDuration/MX_fS_VE_MTurk/MX_fS_HTML.html#143,143,1920,919,1920,1080,1-8-2024,14-58-28,59,VR_target_stimuli/s22_0.75x_4.29_348.png,1000,0.75x,4.29,5.0,4630,1004,meters,jsons/MX_seq48_1_VE1000.json,466632,864838,27,Woman
59,669687,final-intermixed-textured,v2,jsons/MX_seq48_1_VE1000.json,http://54.235.29.9/FacialAge/BNav_EC2/DepthDuration/MX_fS_VE_MTurk/MX_fS_HTML.html#143,143,1920,919,1920,1080,1-8-2024,14-58-28,60,VR_target_stimuli/s42_1.3x_3.2_305.png,1000,1.3x,3.2,4.0,3728,997,meters,jsons/MX_seq48_1_VE1000.json,466632,864838,27,Woman
