,subjID,experimentName,versionName,sequenceName,url,selected_row,windowWidth,windowHeight,screenWidth,screenHeight,startDate,startTime,trial,stimulus,duration,scale,actual_depth,depth_estimate,trial_RT,log_sceneDuration,unitSelection,seq_filepath,experimentTime,totalTime,age,gender
0,670250,final-intermixed-textured,v2,jsons/MX_seq8_2_VE1000.json,http://54.235.29.9/FacialAge/BNav_EC2/DepthDuration/MX_fS_VE_MTurk/MX_fS_HTML.html#154,154,1366,768,1366,768,1-8-2024,12-56-49,1,VR_target_stimuli/s14_1x_ 3.83_357.png,1000,1x,3.83,5,4475,996,meters,jsons/MX_seq8_2_VE1000.json,289743,1708779,35,Man
1,670250,final-intermixed-textured,v2,jsons/MX_seq8_2_VE1000.json,http://54.235.29.9/FacialAge/BNav_EC2/DepthDuration/MX_fS_VE_MTurk/MX_fS_HTML.html#154,154,1366,768,1366,768,1-8-2024,12-56-49,2,VR_target_stimuli/s47_1.3x_3.45_373_BC.png,1000,1.3x,3.45,5,4951,1002,meters,jsons/MX_seq8_2_VE1000.json,289743,1708779,35,Man
2,670250,final-intermixed-textured,v2,jsons/MX_seq8_2_VE1000.json,http://54.235.29.9/FacialAge/BNav_EC2/DepthDuration/MX_fS_VE_MTurk/MX_fS_HTML.html#154,154,1366,768,1366,768,1-8-2024,12-56-49,3,VR_target_stimuli/s29_0.75x_1.3_246.png,1000,0.75x,1.3,2,4614,1014,meters,jsons/MX_seq8_2_VE1000.json,289743,1708779,35,Man
3,670250,final-intermixed-textured,v2,jsons/MX_seq8_2_VE1000.json,http://54.235.29.9/FacialAge/BNav_EC2/DepthDuration/MX_fS_VE_MTurk/MX_fS_HTML.html#154,154,1366,768,1366,768,1-8-2024,12-56-49,4,VR_target_stimuli/s28_1.3x_3.2_365.png,1000,1.3x,3.2,7,4642,991,meters,jsons/MX_seq8_2_VE1000.json,289743,1708779,35,Man
4,670250,final-intermixed-textured,v2,jsons/MX_seq8_2_VE1000.json,http://54.235.29.9/FacialAge/BNav_EC2/DepthDuration/MX_fS_VE_MTurk/MX_fS_HTML.html#154,154,1366,768,1366,768,1-8-2024,12-56-49,5,VR_target_stimuli/s48_1x_2.55_256_BC.png,1000,1x,2.55,10,9468,994,meters,jsons/MX_seq8_2_VE1000.json,289743,1708779,35,Man
5,670250,final-intermixed-textured,v2,jsons/MX_seq8_2_VE1000.json,http://54.235.29.9/FacialAge/BNav_EC2/DepthDuration/MX_fS_VE_MTurk/MX_fS_HTML.html#154,154,1366,768,1366,768,1-8-2024,12-56-49,6,VR_target_stimuli/s19_0.75x_1.21_257_BC.png,1000,0.75x,1.21,2,8906,994,meters,jsons/MX_seq8_2_VE1000.json,289743,1708779,35,Man
6,670250,final-intermixed-textured,v2,jsons/MX_seq8_2_VE1000.json,http://54.235.29.9/FacialAge/BNav_EC2/DepthDuration/MX_fS_VE_MTurk/MX_fS_HTML.html#154,154,1366,768,1366,768,1-8-2024,12-56-49,7,catch_stimuli/c0.png,1000,,,1,3656,997,meters,jsons/MX_seq8_2_VE1000.json,289743,1708779,35,Man
7,670250,final-intermixed-textured,v2,jsons/MX_seq8_2_VE1000.json,http://54.235.29.9/FacialAge/BNav_EC2/DepthDuration/MX_fS_VE_MTurk/MX_fS_HTML.html#154,154,1366,768,1366,768,1-8-2024,12-56-49,8,VR_target_stimuli/s21_0.75x_4.22_374_BC.png,1000,0.75x,4.22,10,4043,987,meters,jsons/MX_seq8_2_VE1000.json,289743,1708779,35,Man
8,670250,final-intermixed-textured,v2,jsons/MX_seq8_2_VE1000.json,http://54.235.29.9/FacialAge/BNav_EC2/DepthDuration/MX_fS_VE_MTurk/MX_fS_HTML.html#154,154,1366,768,1366,768,1-8-2024,12-56-49,9,VR_target_stimuli/s8_1.3x_3.1_345_BC.png,1000,1.3x,3.1,4,4520,996,meters,jsons/MX_seq8_2_VE1000.json,289743,1708779,35,Man
9,670250,final-intermixed-textured,v2,jsons/MX_seq8_2_VE1000.json,http://54.235.29.9/FacialAge/BNav_EC2/DepthDuration/MX_fS_VE_MTurk/MX_fS_HTML.html#154,154,1366,768,1366,768,1-8-2024,12-56-49,10,VR_target_stimuli/s27_1x_1.76_248_BC.png,1000,1x,1.76,1,3490,993,meters,jsons/MX_seq8_2_VE1000.json,289743,1708779,35,Man
10,670250,final-intermixed-textured,v2,jsons/MX_seq8_2_VE1000.json,http://54.235.29.9/FacialAge/BNav_EC2/DepthDuration/MX_fS_VE_MTurk/MX_fS_HTML.html#154,154,1366,768,1366,768,1-8-2024,12-56-49,11,VR_target_stimuli/s15_1.3x_4.2_389.png,1000,1.3x,4.2,5,3519,1002,meters,jsons/MX_seq8_2_VE1000.json,289743,1708779,35,Man
11,670250,final-intermixed-textured,v2,jsons/MX_seq8_2_VE1000.json,http://54.235.29.9/FacialAge/BNav_EC2/DepthDuration/MX_fS_VE_MTurk/MX_fS_HTML.html#154,154,1366,768,1366,768,1-8-2024,12-56-49,12,VR_target_stimuli/s4_0.75x_1.4_301.png,1000,0.75x,1.4,1,6745,1003,meters,jsons/MX_seq8_2_VE1000.json,289743,1708779,35,Man
12,670250,final-intermixed-textured,v2,jsons/MX_seq8_2_VE1000.json,http://54.235.29.9/FacialAge/BNav_EC2/DepthDuration/MX_fS_VE_MTurk/MX_fS_HTML.html#154,154,1366,768,1366,768,1-8-2024,12-56-49,13,VR_target_stimuli/s35_1x_2_331.png,1000,1x,2.0,3,3561,1005,meters,jsons/MX_seq8_2_VE1000.json,289743,1708779,35,Man
13,670250,final-intermixed-textured,v2,jsons/MX_seq8_2_VE1000.json,http://54.235.29.9/FacialAge/BNav_EC2/DepthDuration/MX_fS_VE_MTurk/MX_fS_HTML.html#154,154,1366,768,1366,768,1-8-2024,12-56-49,14,VR_target_stimuli/s49_0.75x_4.67_328_BC.png,1000,0.75x,4.67,10,4017,995,meters,jsons/MX_seq8_2_VE1000.json,289743,1708779,35,Man
14,670250,final-intermixed-textured,v2,jsons/MX_seq8_2_VE1000.json,http://54.235.29.9/FacialAge/BNav_EC2/DepthDuration/MX_fS_VE_MTurk/MX_fS_HTML.html#154,154,1366,768,1366,768,1-8-2024,12-56-49,15,VR_target_stimuli/s7_1.3x_1.5_256.png,1000,1.3x,1.5,2,3806,993,meters,jsons/MX_seq8_2_VE1000.json,289743,1708779,35,Man
15,670250,final-intermixed-textured,v2,jsons/MX_seq8_2_VE1000.json,http://54.235.29.9/FacialAge/BNav_EC2/DepthDuration/MX_fS_VE_MTurk/MX_fS_HTML.html#154,154,1366,768,1366,768,1-8-2024,12-56-49,16,VR_target_stimuli/s20_1x_4.99_398.png,1000,1x,4.99,10,4760,1010,meters,jsons/MX_seq8_2_VE1000.json,289743,1708779,35,Man
16,670250,final-intermixed-textured,v2,jsons/MX_seq8_2_VE1000.json,http://54.235.29.9/FacialAge/BNav_EC2/DepthDuration/MX_fS_VE_MTurk/MX_fS_HTML.html#154,154,1366,768,1366,768,1-8-2024,12-56-49,17,catch_stimuli/c1.png,1000,,,0,3887,986,meters,jsons/MX_seq8_2_VE1000.json,289743,1708779,35,Man
17,670250,final-intermixed-textured,v2,jsons/MX_seq8_2_VE1000.json,http://54.235.29.9/FacialAge/BNav_EC2/DepthDuration/MX_fS_VE_MTurk/MX_fS_HTML.html#154,154,1366,768,1366,768,1-8-2024,12-56-49,18,VR_target_stimuli/s31_1x_4.96_333_BC.png,1000,1x,4.96,6,4167,1001,meters,jsons/MX_seq8_2_VE1000.json,289743,1708779,35,Man
18,670250,final-intermixed-textured,v2,jsons/MX_seq8_2_VE1000.json,http://54.235.29.9/FacialAge/BNav_EC2/DepthDuration/MX_fS_VE_MTurk/MX_fS_HTML.html#154,154,1366,768,1366,768,1-8-2024,12-56-49,19,VR_target_stimuli/s33_0.75x_3.1_361.png,1000,0.75x,3.1,4,3503,1014,meters,jsons/MX_seq8_2_VE1000.json,289743,1708779,35,Man
19,670250,final-intermixed-textured,v2,jsons/MX_seq8_2_VE1000.json,http://54.235.29.9/FacialAge/BNav_EC2/DepthDuration/MX_fS_VE_MTurk/MX_fS_HTML.html#154,154,1366,768,1366,768,1-8-2024,12-56-49,20,VR_target_stimuli/s52_1.3x_3.2_280_BC.png,1000,1.3x,3.2,5,6048,989,meters,jsons/MX_seq8_2_VE1000.json,289743,1708779,35,Man
20,670250,final-intermixed-textured,v2,jsons/MX_seq8_2_VE1000.json,http://54.235.29.9/FacialAge/BNav_EC2/DepthDuration/MX_fS_VE_MTurk/MX_fS_HTML.html#154,154,1366,768,1366,768,1-8-2024,12-56-49,21,VR_target_stimuli/s32_0.75x_1.5_213_BC.png,1000,0.75x,1.5,3,3406,993,meters,jsons/MX_seq8_2_VE1000.json,289743,1708779,35,Man
21,670250,final-intermixed-textured,v2,jsons/MX_seq8_2_VE1000.json,http://54.235.29.9/FacialAge/BNav_EC2/DepthDuration/MX_fS_VE_MTurk/MX_fS_HTML.html#154,154,1366,768,1366,768,1-8-2024,12-56-49,22,VR_target_stimuli/s18_1x_2.25_353.png,1000,1x,2.25,2,3530,1009,meters,jsons/MX_seq8_2_VE1000.json,289743,1708779,35,Man
22,670250,final-intermixed-textured,v2,jsons/MX_seq8_2_VE1000.json,http://54.235.29.9/FacialAge/BNav_EC2/DepthDuration/MX_fS_VE_MTurk/MX_fS_HTML.html#154,154,1366,768,1366,768,1-8-2024,12-56-49,23,VR_target_stimuli/s39_1.3x_1_208_BC.png,1000,1.3x,1.0,2,6396,1002,meters,jsons/MX_seq8_2_VE1000.json,289743,1708779,35,Man
23,670250,final-intermixed-textured,v2,jsons/MX_seq8_2_VE1000.json,http://54.235.29.9/FacialAge/BNav_EC2/DepthDuration/MX_fS_VE_MTurk/MX_fS_HTML.html#154,154,1366,768,1366,768,1-8-2024,12-56-49,24,VR_target_stimuli/s51_1x_3.64_461_BC.png,1000,1x,3.64,3,4043,999,meters,jsons/MX_seq8_2_VE1000.json,289743,1708779,35,Man
24,670250,final-intermixed-textured,v2,jsons/MX_seq8_2_VE1000.json,http://54.235.29.9/FacialAge/BNav_EC2/DepthDuration/MX_fS_VE_MTurk/MX_fS_HTML.html#154,154,1366,768,1366,768,1-8-2024,12-56-49,25,VR_target_stimuli/s43_0.75x_2.2_348.png,1000,0.75x,2.2,3,3625,996,meters,jsons/MX_seq8_2_VE1000.json,289743,1708779,35,Man
25,670250,final-intermixed-textured,v2,jsons/MX_seq8_2_VE1000.json,http://54.235.29.9/FacialAge/BNav_EC2/DepthDuration/MX_fS_VE_MTurk/MX_fS_HTML.html#154,154,1366,768,1366,768,1-8-2024,12-56-49,26,catch_stimuli/c2.png,1000,,,0,3433,998,meters,jsons/MX_seq8_2_VE1000.json,289743,1708779,35,Man
26,670250,final-intermixed-textured,v2,jsons/MX_seq8_2_VE1000.json,http://54.235.29.9/FacialAge/BNav_EC2/DepthDuration/MX_fS_VE_MTurk/MX_fS_HTML.html#154,154,1366,768,1366,768,1-8-2024,12-56-49,27,VR_target_stimuli/s24_1.3x_3.3_352.png,1000,1.3x,3.3,5,5810,1001,meters,jsons/MX_seq8_2_VE1000.json,289743,1708779,35,Man
27,670250,final-intermixed-textured,v2,jsons/MX_seq8_2_VE1000.json,http://54.235.29.9/FacialAge/BNav_EC2/DepthDuration/MX_fS_VE_MTurk/MX_fS_HTML.html#154,154,1366,768,1366,768,1-8-2024,12-56-49,28,VR_target_stimuli/s10_1.3x_2.7_325.png,1000,1.3x,2.7,3,3705,997,meters,jsons/MX_seq8_2_VE1000.json,289743,1708779,35,Man
28,670250,final-intermixed-textured,v2,jsons/MX_seq8_2_VE1000.json,http://54.235.29.9/FacialAge/BNav_EC2/DepthDuration/MX_fS_VE_MTurk/MX_fS_HTML.html#154,154,1366,768,1366,768,1-8-2024,12-56-49,29,VR_target_stimuli/s36_1x_4.1_423_BC.png,1000,1x,4.1,8,4641,1000,meters,jsons/MX_seq8_2_VE1000.json,289743,1708779,35,Man
29,670250,final-intermixed-textured,v2,jsons/MX_seq8_2_VE1000.json,http://54.235.29.9/FacialAge/BNav_EC2/DepthDuration/MX_fS_VE_MTurk/MX_fS_HTML.html#154,154,1366,768,1366,768,1-8-2024,12-56-49,30,VR_target_stimuli/s40_0.75x_1.2_308_BC.png,1000,0.75x,1.2,1,5914,1001,meters,jsons/MX_seq8_2_VE1000.json,289743,1708779,35,Man
30,670250,final-intermixed-textured,v2,jsons/MX_seq8_2_VE1000.json,http://54.235.29.9/FacialAge/BNav_EC2/DepthDuration/MX_fS_VE_MTurk/MX_fS_HTML.html#154,154,1366,768,1366,768,1-8-2024,12-56-49,31,VR_target_stimuli/s41_1.3x_2.1_294_BC.png,1000,1.3x,2.1,4,5707,996,meters,jsons/MX_seq8_2_VE1000.json,289743,1708779,35,Man
31,670250,final-intermixed-textured,v2,jsons/MX_seq8_2_VE1000.json,http://54.235.29.9/FacialAge/BNav_EC2/DepthDuration/MX_fS_VE_MTurk/MX_fS_HTML.html#154,154,1366,768,1366,768,1-8-2024,12-56-49,32,VR_target_stimuli/s45_0.75x_3.5_362.png,1000,0.75x,3.5,5,3483,997,meters,jsons/MX_seq8_2_VE1000.json,289743,1708779,35,Man
32,670250,final-intermixed-textured,v2,jsons/MX_seq8_2_VE1000.json,http://54.235.29.9/FacialAge/BNav_EC2/DepthDuration/MX_fS_VE_MTurk/MX_fS_HTML.html#154,154,1366,768,1366,768,1-8-2024,12-56-49,33,VR_target_stimuli/s23_1x_3.65_353.png,1000,1x,3.65,2,3467,987,meters,jsons/MX_seq8_2_VE1000.json,289743,1708779,35,Man
33,670250,final-intermixed-textured,v2,jsons/MX_seq8_2_VE1000.json,http://54.235.29.9/FacialAge/BNav_EC2/DepthDuration/MX_fS_VE_MTurk/MX_fS_HTML.html#154,154,1366,768,1366,768,1-8-2024,12-56-49,34,catch_stimuli/c3.png,1000,,,0,3333,995,meters,jsons/MX_seq8_2_VE1000.json,289743,1708779,35,Man
34,670250,final-intermixed-textured,v2,jsons/MX_seq8_2_VE1000.json,http://54.235.29.9/FacialAge/BNav_EC2/DepthDuration/MX_fS_VE_MTurk/MX_fS_HTML.html#154,154,1366,768,1366,768,1-8-2024,12-56-49,35,VR_target_stimuli/s26_0.75x_4_430_BC.png,1000,0.75x,4.0,5,3921,988,meters,jsons/MX_seq8_2_VE1000.json,289743,1708779,35,Man
35,670250,final-intermixed-textured,v2,jsons/MX_seq8_2_VE1000.json,http://54.235.29.9/FacialAge/BNav_EC2/DepthDuration/MX_fS_VE_MTurk/MX_fS_HTML.html#154,154,1366,768,1366,768,1-8-2024,12-56-49,36,VR_target_stimuli/s12_1.3x_3.1_375_BC.png,1000,1.3x,3.1,3,3507,997,meters,jsons/MX_seq8_2_VE1000.json,289743,1708779,35,Man
36,670250,final-intermixed-textured,v2,jsons/MX_seq8_2_VE1000.json,http://54.235.29.9/FacialAge/BNav_EC2/DepthDuration/MX_fS_VE_MTurk/MX_fS_HTML.html#154,154,1366,768,1366,768,1-8-2024,12-56-49,37,VR_target_stimuli/s30_1x_2.3_334_BC.png,1000,1x,2.3,2,4313,994,meters,jsons/MX_seq8_2_VE1000.json,289743,1708779,35,Man
37,670250,final-intermixed-textured,v2,jsons/MX_seq8_2_VE1000.json,http://54.235.29.9/FacialAge/BNav_EC2/DepthDuration/MX_fS_VE_MTurk/MX_fS_HTML.html#154,154,1366,768,1366,768,1-8-2024,12-56-49,38,VR_target_stimuli/s16_1x_1_219.png,1000,1x,1.0,1,3656,1003,meters,jsons/MX_seq8_2_VE1000.json,289743,1708779,35,Man
38,670250,final-intermixed-textured,v2,jsons/MX_seq8_2_VE1000.json,http://54.235.29.9/FacialAge/BNav_EC2/DepthDuration/MX_fS_VE_MTurk/MX_fS_HTML.html#154,154,1366,768,1366,768,1-8-2024,12-56-49,39,VR_target_stimuli/s17_0.75x_1.8_285.png,1000,0.75x,1.8,2,3492,997,meters,jsons/MX_seq8_2_VE1000.json,289743,1708779,35,Man
39,670250,final-intermixed-textured,v2,jsons/MX_seq8_2_VE1000.json,http://54.235.29.9/FacialAge/BNav_EC2/DepthDuration/MX_fS_VE_MTurk/MX_fS_HTML.html#154,154,1366,768,1366,768,1-8-2024,12-56-49,40,VR_target_stimuli/s5_1.3x_4_393.png,1000,1.3x,4.0,5,3537,995,meters,jsons/MX_seq8_2_VE1000.json,289743,1708779,35,Man
40,670250,final-intermixed-textured,v2,jsons/MX_seq8_2_VE1000.json,http://54.235.29.9/FacialAge/BNav_EC2/DepthDuration/MX_fS_VE_MTurk/MX_fS_HTML.html#154,154,1366,768,1366,768,1-8-2024,12-56-49,41,VR_target_stimuli/s37_0.75x_3.3_567_BC.png,1000,0.75x,3.3,4,4901,992,meters,jsons/MX_seq8_2_VE1000.json,289743,1708779,35,Man
41,670250,final-intermixed-textured,v2,jsons/MX_seq8_2_VE1000.json,http://54.235.29.9/FacialAge/BNav_EC2/DepthDuration/MX_fS_VE_MTurk/MX_fS_HTML.html#154,154,1366,768,1366,768,1-8-2024,12-56-49,42,VR_target_stimuli/s46_1x_2.42_348_BC.png,1000,1x,2.42,4,4665,1005,meters,jsons/MX_seq8_2_VE1000.json,289743,1708779,35,Man
42,670250,final-intermixed-textured,v2,jsons/MX_seq8_2_VE1000.json,http://54.235.29.9/FacialAge/BNav_EC2/DepthDuration/MX_fS_VE_MTurk/MX_fS_HTML.html#154,154,1366,768,1366,768,1-8-2024,12-56-49,43,VR_target_stimuli/s22_1.3x_4.29_364.png,1000,1.3x,4.29,5,3302,997,meters,jsons/MX_seq8_2_VE1000.json,289743,1708779,35,Man
43,670250,final-intermixed-textured,v2,jsons/MX_seq8_2_VE1000.json,http://54.235.29.9/FacialAge/BNav_EC2/DepthDuration/MX_fS_VE_MTurk/MX_fS_HTML.html#154,154,1366,768,1366,768,1-8-2024,12-56-49,44,VR_target_stimuli/s42_1x_3.2_303.png,1000,1x,3.2,6,7207,997,meters,jsons/MX_seq8_2_VE1000.json,289743,1708779,35,Man
44,670250,final-intermixed-textured,v2,jsons/MX_seq8_2_VE1000.json,http://54.235.29.9/FacialAge/BNav_EC2/DepthDuration/MX_fS_VE_MTurk/MX_fS_HTML.html#154,154,1366,768,1366,768,1-8-2024,12-56-49,45,catch_stimuli/c4.png,1000,,,0,3656,1000,meters,jsons/MX_seq8_2_VE1000.json,289743,1708779,35,Man
45,670250,final-intermixed-textured,v2,jsons/MX_seq8_2_VE1000.json,http://54.235.29.9/FacialAge/BNav_EC2/DepthDuration/MX_fS_VE_MTurk/MX_fS_HTML.html#154,154,1366,768,1366,768,1-8-2024,12-56-49,46,VR_target_stimuli/s25_0.75x_1.4_281.png,1000,0.75x,1.4,2,4397,987,meters,jsons/MX_seq8_2_VE1000.json,289743,1708779,35,Man
46,670250,final-intermixed-textured,v2,jsons/MX_seq8_2_VE1000.json,http://54.235.29.9/FacialAge/BNav_EC2/DepthDuration/MX_fS_VE_MTurk/MX_fS_HTML.html#154,154,1366,768,1366,768,1-8-2024,12-56-49,47,VR_target_stimuli/s50_1.3x_4.53_518_BC.png,1000,1.3x,4.53,3,3376,1001,meters,jsons/MX_seq8_2_VE1000.json,289743,1708779,35,Man
47,670250,final-intermixed-textured,v2,jsons/MX_seq8_2_VE1000.json,http://54.235.29.9/FacialAge/BNav_EC2/DepthDuration/MX_fS_VE_MTurk/MX_fS_HTML.html#154,154,1366,768,1366,768,1-8-2024,12-56-49,48,VR_target_stimuli/s53_1.3x_1.6_355.png,1000,1.3x,1.6,1,3437,1000,meters,jsons/MX_seq8_2_VE1000.json,289743,1708779,35,Man
48,670250,final-intermixed-textured,v2,jsons/MX_seq8_2_VE1000.json,http://54.235.29.9/FacialAge/BNav_EC2/DepthDuration/MX_fS_VE_MTurk/MX_fS_HTML.html#154,154,1366,768,1366,768,1-8-2024,12-56-49,49,VR_target_stimuli/s38_1x_3.55_353.png,1000,1x,3.55,5,3591,994,meters,jsons/MX_seq8_2_VE1000.json,289743,1708779,35,Man
49,670250,final-intermixed-textured,v2,jsons/MX_seq8_2_VE1000.json,http://54.235.29.9/FacialAge/BNav_EC2/DepthDuration/MX_fS_VE_MTurk/MX_fS_HTML.html#154,154,1366,768,1366,768,1-8-2024,12-56-49,50,VR_target_stimuli/s9_0.75x_1.2_260.png,1000,0.75x,1.2,1,3482,1009,meters,jsons/MX_seq8_2_VE1000.json,289743,1708779,35,Man
50,670250,final-intermixed-textured,v2,jsons/MX_seq8_2_VE1000.json,http://54.235.29.9/FacialAge/BNav_EC2/DepthDuration/MX_fS_VE_MTurk/MX_fS_HTML.html#154,154,1366,768,1366,768,1-8-2024,12-56-49,51,VR_target_stimuli/s44_1x_4.4_317_BC.png,1000,1x,4.4,4,3666,991,meters,jsons/MX_seq8_2_VE1000.json,289743,1708779,35,Man
51,670250,final-intermixed-textured,v2,jsons/MX_seq8_2_VE1000.json,http://54.235.29.9/FacialAge/BNav_EC2/DepthDuration/MX_fS_VE_MTurk/MX_fS_HTML.html#154,154,1366,768,1366,768,1-8-2024,12-56-49,52,VR_target_stimuli/s3_1.3x_5_390_BC.png,1000,1.3x,5.0,5,3724,1002,meters,jsons/MX_seq8_2_VE1000.json,289743,1708779,35,Man
52,670250,final-intermixed-textured,v2,jsons/MX_seq8_2_VE1000.json,http://54.235.29.9/FacialAge/BNav_EC2/DepthDuration/MX_fS_VE_MTurk/MX_fS_HTML.html#154,154,1366,768,1366,768,1-8-2024,12-56-49,53,catch_stimuli/c5.png,1000,,,0,3247,1000,meters,jsons/MX_seq8_2_VE1000.json,289743,1708779,35,Man
53,670250,final-intermixed-textured,v2,jsons/MX_seq8_2_VE1000.json,http://54.235.29.9/FacialAge/BNav_EC2/DepthDuration/MX_fS_VE_MTurk/MX_fS_HTML.html#154,154,1366,768,1366,768,1-8-2024,12-56-49,54,VR_target_stimuli/s1_0.75x_1.7_265_BC.png,1000,0.75x,1.7,1,3275,1007,meters,jsons/MX_seq8_2_VE1000.json,289743,1708779,35,Man
54,670250,final-intermixed-textured,v2,jsons/MX_seq8_2_VE1000.json,http://54.235.29.9/FacialAge/BNav_EC2/DepthDuration/MX_fS_VE_MTurk/MX_fS_HTML.html#154,154,1366,768,1366,768,1-8-2024,12-56-49,55,VR_target_stimuli/s11_1.3x_5_363_BC.png,1000,1.3x,5.0,3,3291,1001,meters,jsons/MX_seq8_2_VE1000.json,289743,1708779,35,Man
55,670250,final-intermixed-textured,v2,jsons/MX_seq8_2_VE1000.json,http://54.235.29.9/FacialAge/BNav_EC2/DepthDuration/MX_fS_VE_MTurk/MX_fS_HTML.html#154,154,1366,768,1366,768,1-8-2024,12-56-49,56,VR_target_stimuli/s2_1x_2.7_390_BC.png,1000,1x,2.7,2,3344,995,meters,jsons/MX_seq8_2_VE1000.json,289743,1708779,35,Man
56,670250,final-intermixed-textured,v2,jsons/MX_seq8_2_VE1000.json,http://54.235.29.9/FacialAge/BNav_EC2/DepthDuration/MX_fS_VE_MTurk/MX_fS_HTML.html#154,154,1366,768,1366,768,1-8-2024,12-56-49,57,VR_target_stimuli/s6_0.75x_2.1_290.png,1000,0.75x,2.1,2,3695,1000,meters,jsons/MX_seq8_2_VE1000.json,289743,1708779,35,Man
57,670250,final-intermixed-textured,v2,jsons/MX_seq8_2_VE1000.json,http://54.235.29.9/FacialAge/BNav_EC2/DepthDuration/MX_fS_VE_MTurk/MX_fS_HTML.html#154,154,1366,768,1366,768,1-8-2024,12-56-49,58,VR_target_stimuli/s0_0.75x_2.6_345_BC.png,1000,0.75x,2.6,3,4515,993,meters,jsons/MX_seq8_2_VE1000.json,289743,1708779,35,Man
58,670250,final-intermixed-textured,v2,jsons/MX_seq8_2_VE1000.json,http://54.235.29.9/FacialAge/BNav_EC2/DepthDuration/MX_fS_VE_MTurk/MX_fS_HTML.html#154,154,1366,768,1366,768,1-8-2024,12-56-49,59,VR_target_stimuli/s34_1.3x_2.8_294.png,1000,1.3x,2.8,5,4508,1005,meters,jsons/MX_seq8_2_VE1000.json,289743,1708779,35,Man
59,670250,final-intermixed-textured,v2,jsons/MX_seq8_2_VE1000.json,http://54.235.29.9/FacialAge/BNav_EC2/DepthDuration/MX_fS_VE_MTurk/MX_fS_HTML.html#154,154,1366,768,1366,768,1-8-2024,12-56-49,60,VR_target_stimuli/s13_1x_2.4_310.png,1000,1x,2.4,5,4300,997,meters,jsons/MX_seq8_2_VE1000.json,289743,1708779,35,Man
