,subjID,experimentName,versionName,sequenceName,url,selected_row,windowWidth,windowHeight,screenWidth,screenHeight,startDate,startTime,trial,stimulus,duration,scale,actual_depth,depth_estimate,trial_RT,log_sceneDuration,unitSelection,seq_filepath,experimentTime,totalTime,age,gender
0,670523,final-intermixed-textured,v2,jsons/MX_seq31_2_VE1000.json,http://54.235.29.9/FacialAge/BNav_EC2/DepthDuration/MX_fS_VE_MTurk/MX_fS_HTML.html#109,109,1280,551,1280,720,1-8-2024,17-28-43,1,VR_target_stimuli/s24_1x_3.3_349.png,1000,1x,3.3,4.5,13732,999,meters,jsons/MX_seq31_2_VE1000.json,458620,710951,23,Woman
1,670523,final-intermixed-textured,v2,jsons/MX_seq31_2_VE1000.json,http://54.235.29.9/FacialAge/BNav_EC2/DepthDuration/MX_fS_VE_MTurk/MX_fS_HTML.html#109,109,1280,551,1280,720,1-8-2024,17-28-43,2,VR_target_stimuli/s10_1.3x_2.7_325_BC.png,1000,1.3x,2.7,2.0,7524,995,meters,jsons/MX_seq31_2_VE1000.json,458620,710951,23,Woman
2,670523,final-intermixed-textured,v2,jsons/MX_seq31_2_VE1000.json,http://54.235.29.9/FacialAge/BNav_EC2/DepthDuration/MX_fS_VE_MTurk/MX_fS_HTML.html#109,109,1280,551,1280,720,1-8-2024,17-28-43,3,VR_target_stimuli/s36_0.75x_4.1_407_BC.png,1000,0.75x,4.1,3.5,13420,992,meters,jsons/MX_seq31_2_VE1000.json,458620,710951,23,Woman
3,670523,final-intermixed-textured,v2,jsons/MX_seq31_2_VE1000.json,http://54.235.29.9/FacialAge/BNav_EC2/DepthDuration/MX_fS_VE_MTurk/MX_fS_HTML.html#109,109,1280,551,1280,720,1-8-2024,17-28-43,4,VR_target_stimuli/s40_1.3x_1.2_332.png,1000,1.3x,1.2,0.7,9932,1003,meters,jsons/MX_seq31_2_VE1000.json,458620,710951,23,Woman
4,670523,final-intermixed-textured,v2,jsons/MX_seq31_2_VE1000.json,http://54.235.29.9/FacialAge/BNav_EC2/DepthDuration/MX_fS_VE_MTurk/MX_fS_HTML.html#109,109,1280,551,1280,720,1-8-2024,17-28-43,5,VR_target_stimuli/s41_1x_2.1_286_BC.png,1000,1x,2.1,2.0,7112,990,meters,jsons/MX_seq31_2_VE1000.json,458620,710951,23,Woman
5,670523,final-intermixed-textured,v2,jsons/MX_seq31_2_VE1000.json,http://54.235.29.9/FacialAge/BNav_EC2/DepthDuration/MX_fS_VE_MTurk/MX_fS_HTML.html#109,109,1280,551,1280,720,1-8-2024,17-28-43,6,VR_target_stimuli/s45_0.75x_3.5_362.png,1000,0.75x,3.5,2.5,6202,1004,meters,jsons/MX_seq31_2_VE1000.json,458620,710951,23,Woman
6,670523,final-intermixed-textured,v2,jsons/MX_seq31_2_VE1000.json,http://54.235.29.9/FacialAge/BNav_EC2/DepthDuration/MX_fS_VE_MTurk/MX_fS_HTML.html#109,109,1280,551,1280,720,1-8-2024,17-28-43,7,catch_stimuli/c0.png,1000,,,0.0,5275,998,meters,jsons/MX_seq31_2_VE1000.json,458620,710951,23,Woman
7,670523,final-intermixed-textured,v2,jsons/MX_seq31_2_VE1000.json,http://54.235.29.9/FacialAge/BNav_EC2/DepthDuration/MX_fS_VE_MTurk/MX_fS_HTML.html#109,109,1280,551,1280,720,1-8-2024,17-28-43,8,VR_target_stimuli/s23_0.75x_3.65_351.png,1000,0.75x,3.65,3.0,16339,1007,meters,jsons/MX_seq31_2_VE1000.json,458620,710951,23,Woman
8,670523,final-intermixed-textured,v2,jsons/MX_seq31_2_VE1000.json,http://54.235.29.9/FacialAge/BNav_EC2/DepthDuration/MX_fS_VE_MTurk/MX_fS_HTML.html#109,109,1280,551,1280,720,1-8-2024,17-28-43,9,VR_target_stimuli/s26_1.3x_4_441.png,1000,1.3x,4.0,1.5,8095,988,meters,jsons/MX_seq31_2_VE1000.json,458620,710951,23,Woman
9,670523,final-intermixed-textured,v2,jsons/MX_seq31_2_VE1000.json,http://54.235.29.9/FacialAge/BNav_EC2/DepthDuration/MX_fS_VE_MTurk/MX_fS_HTML.html#109,109,1280,551,1280,720,1-8-2024,17-28-43,10,VR_target_stimuli/s12_1x_3.1_372.png,1000,1x,3.1,3.0,5922,993,meters,jsons/MX_seq31_2_VE1000.json,458620,710951,23,Woman
10,670523,final-intermixed-textured,v2,jsons/MX_seq31_2_VE1000.json,http://54.235.29.9/FacialAge/BNav_EC2/DepthDuration/MX_fS_VE_MTurk/MX_fS_HTML.html#109,109,1280,551,1280,720,1-8-2024,17-28-43,11,VR_target_stimuli/s30_1.3x_2.3_337_BC.png,1000,1.3x,2.3,2.0,9469,999,meters,jsons/MX_seq31_2_VE1000.json,458620,710951,23,Woman
11,670523,final-intermixed-textured,v2,jsons/MX_seq31_2_VE1000.json,http://54.235.29.9/FacialAge/BNav_EC2/DepthDuration/MX_fS_VE_MTurk/MX_fS_HTML.html#109,109,1280,551,1280,720,1-8-2024,17-28-43,12,VR_target_stimuli/s16_0.75x_1_217_BC.png,1000,0.75x,1.0,0.5,5932,1003,meters,jsons/MX_seq31_2_VE1000.json,458620,710951,23,Woman
12,670523,final-intermixed-textured,v2,jsons/MX_seq31_2_VE1000.json,http://54.235.29.9/FacialAge/BNav_EC2/DepthDuration/MX_fS_VE_MTurk/MX_fS_HTML.html#109,109,1280,551,1280,720,1-8-2024,17-28-43,13,VR_target_stimuli/s17_1x_1.8_291_BC.png,1000,1x,1.8,2.6,7878,1001,meters,jsons/MX_seq31_2_VE1000.json,458620,710951,23,Woman
13,670523,final-intermixed-textured,v2,jsons/MX_seq31_2_VE1000.json,http://54.235.29.9/FacialAge/BNav_EC2/DepthDuration/MX_fS_VE_MTurk/MX_fS_HTML.html#109,109,1280,551,1280,720,1-8-2024,17-28-43,14,VR_target_stimuli/s5_0.75x_4_375.png,1000,0.75x,4.0,6.0,11236,1002,meters,jsons/MX_seq31_2_VE1000.json,458620,710951,23,Woman
14,670523,final-intermixed-textured,v2,jsons/MX_seq31_2_VE1000.json,http://54.235.29.9/FacialAge/BNav_EC2/DepthDuration/MX_fS_VE_MTurk/MX_fS_HTML.html#109,109,1280,551,1280,720,1-8-2024,17-28-43,15,VR_target_stimuli/s37_1.3x_3.3_555.png,1000,1.3x,3.3,2.0,5868,989,meters,jsons/MX_seq31_2_VE1000.json,458620,710951,23,Woman
15,670523,final-intermixed-textured,v2,jsons/MX_seq31_2_VE1000.json,http://54.235.29.9/FacialAge/BNav_EC2/DepthDuration/MX_fS_VE_MTurk/MX_fS_HTML.html#109,109,1280,551,1280,720,1-8-2024,17-28-43,16,VR_target_stimuli/s46_1x_2.42_348.png,1000,1x,2.42,6.0,7977,994,meters,jsons/MX_seq31_2_VE1000.json,458620,710951,23,Woman
16,670523,final-intermixed-textured,v2,jsons/MX_seq31_2_VE1000.json,http://54.235.29.9/FacialAge/BNav_EC2/DepthDuration/MX_fS_VE_MTurk/MX_fS_HTML.html#109,109,1280,551,1280,720,1-8-2024,17-28-43,17,catch_stimuli/c1.png,1000,,,0.0,3809,1000,meters,jsons/MX_seq31_2_VE1000.json,458620,710951,23,Woman
17,670523,final-intermixed-textured,v2,jsons/MX_seq31_2_VE1000.json,http://54.235.29.9/FacialAge/BNav_EC2/DepthDuration/MX_fS_VE_MTurk/MX_fS_HTML.html#109,109,1280,551,1280,720,1-8-2024,17-28-43,18,VR_target_stimuli/s22_1x_4.29_354_BC.png,1000,1x,4.29,5.0,9114,994,meters,jsons/MX_seq31_2_VE1000.json,458620,710951,23,Woman
18,670523,final-intermixed-textured,v2,jsons/MX_seq31_2_VE1000.json,http://54.235.29.9/FacialAge/BNav_EC2/DepthDuration/MX_fS_VE_MTurk/MX_fS_HTML.html#109,109,1280,551,1280,720,1-8-2024,17-28-43,19,VR_target_stimuli/s42_0.75x_3.2_301_BC.png,1000,0.75x,3.2,3.2,9735,990,meters,jsons/MX_seq31_2_VE1000.json,458620,710951,23,Woman
19,670523,final-intermixed-textured,v2,jsons/MX_seq31_2_VE1000.json,http://54.235.29.9/FacialAge/BNav_EC2/DepthDuration/MX_fS_VE_MTurk/MX_fS_HTML.html#109,109,1280,551,1280,720,1-8-2024,17-28-43,20,VR_target_stimuli/s25_1.3x_1.4_299_BC.png,1000,1.3x,1.4,0.8,7076,1000,meters,jsons/MX_seq31_2_VE1000.json,458620,710951,23,Woman
20,670523,final-intermixed-textured,v2,jsons/MX_seq31_2_VE1000.json,http://54.235.29.9/FacialAge/BNav_EC2/DepthDuration/MX_fS_VE_MTurk/MX_fS_HTML.html#109,109,1280,551,1280,720,1-8-2024,17-28-43,21,VR_target_stimuli/s50_0.75x_4.53_517_BC.png,1000,0.75x,4.53,2.5,7021,997,meters,jsons/MX_seq31_2_VE1000.json,458620,710951,23,Woman
21,670523,final-intermixed-textured,v2,jsons/MX_seq31_2_VE1000.json,http://54.235.29.9/FacialAge/BNav_EC2/DepthDuration/MX_fS_VE_MTurk/MX_fS_HTML.html#109,109,1280,551,1280,720,1-8-2024,17-28-43,22,VR_target_stimuli/s53_1x_1.6_387.png,1000,1x,1.6,1.0,10578,994,meters,jsons/MX_seq31_2_VE1000.json,458620,710951,23,Woman
22,670523,final-intermixed-textured,v2,jsons/MX_seq31_2_VE1000.json,http://54.235.29.9/FacialAge/BNav_EC2/DepthDuration/MX_fS_VE_MTurk/MX_fS_HTML.html#109,109,1280,551,1280,720,1-8-2024,17-28-43,23,VR_target_stimuli/s38_1.3x_3.55_358.png,1000,1.3x,3.55,5.0,7884,999,meters,jsons/MX_seq31_2_VE1000.json,458620,710951,23,Woman
23,670523,final-intermixed-textured,v2,jsons/MX_seq31_2_VE1000.json,http://54.235.29.9/FacialAge/BNav_EC2/DepthDuration/MX_fS_VE_MTurk/MX_fS_HTML.html#109,109,1280,551,1280,720,1-8-2024,17-28-43,24,VR_target_stimuli/s9_1x_1.2_263_BC.png,1000,1x,1.2,1.0,12049,996,meters,jsons/MX_seq31_2_VE1000.json,458620,710951,23,Woman
24,670523,final-intermixed-textured,v2,jsons/MX_seq31_2_VE1000.json,http://54.235.29.9/FacialAge/BNav_EC2/DepthDuration/MX_fS_VE_MTurk/MX_fS_HTML.html#109,109,1280,551,1280,720,1-8-2024,17-28-43,25,VR_target_stimuli/s44_0.75x_4.4_314.png,1000,0.75x,4.4,5.4,9913,1006,meters,jsons/MX_seq31_2_VE1000.json,458620,710951,23,Woman
25,670523,final-intermixed-textured,v2,jsons/MX_seq31_2_VE1000.json,http://54.235.29.9/FacialAge/BNav_EC2/DepthDuration/MX_fS_VE_MTurk/MX_fS_HTML.html#109,109,1280,551,1280,720,1-8-2024,17-28-43,26,catch_stimuli/c2.png,1000,,,0.0,4216,1002,meters,jsons/MX_seq31_2_VE1000.json,458620,710951,23,Woman
26,670523,final-intermixed-textured,v2,jsons/MX_seq31_2_VE1000.json,http://54.235.29.9/FacialAge/BNav_EC2/DepthDuration/MX_fS_VE_MTurk/MX_fS_HTML.html#109,109,1280,551,1280,720,1-8-2024,17-28-43,27,VR_target_stimuli/s3_1.3x_5_390_BC.png,1000,1.3x,5.0,3.5,7302,1000,meters,jsons/MX_seq31_2_VE1000.json,458620,710951,23,Woman
27,670523,final-intermixed-textured,v2,jsons/MX_seq31_2_VE1000.json,http://54.235.29.9/FacialAge/BNav_EC2/DepthDuration/MX_fS_VE_MTurk/MX_fS_HTML.html#109,109,1280,551,1280,720,1-8-2024,17-28-43,28,VR_target_stimuli/s1_1.3x_1.7_261.png,1000,1.3x,1.7,1.0,4282,998,meters,jsons/MX_seq31_2_VE1000.json,458620,710951,23,Woman
28,670523,final-intermixed-textured,v2,jsons/MX_seq31_2_VE1000.json,http://54.235.29.9/FacialAge/BNav_EC2/DepthDuration/MX_fS_VE_MTurk/MX_fS_HTML.html#109,109,1280,551,1280,720,1-8-2024,17-28-43,29,VR_target_stimuli/s11_1x_5_361.png,1000,1x,5.0,4.5,9812,1006,meters,jsons/MX_seq31_2_VE1000.json,458620,710951,23,Woman
29,670523,final-intermixed-textured,v2,jsons/MX_seq31_2_VE1000.json,http://54.235.29.9/FacialAge/BNav_EC2/DepthDuration/MX_fS_VE_MTurk/MX_fS_HTML.html#109,109,1280,551,1280,720,1-8-2024,17-28-43,30,VR_target_stimuli/s2_0.75x_2.7_384_BC.png,1000,0.75x,2.7,2.0,4567,1003,meters,jsons/MX_seq31_2_VE1000.json,458620,710951,23,Woman
30,670523,final-intermixed-textured,v2,jsons/MX_seq31_2_VE1000.json,http://54.235.29.9/FacialAge/BNav_EC2/DepthDuration/MX_fS_VE_MTurk/MX_fS_HTML.html#109,109,1280,551,1280,720,1-8-2024,17-28-43,31,VR_target_stimuli/s6_1.3x_2.1_298_BC.png,1000,1.3x,2.1,2.0,4924,995,meters,jsons/MX_seq31_2_VE1000.json,458620,710951,23,Woman
31,670523,final-intermixed-textured,v2,jsons/MX_seq31_2_VE1000.json,http://54.235.29.9/FacialAge/BNav_EC2/DepthDuration/MX_fS_VE_MTurk/MX_fS_HTML.html#109,109,1280,551,1280,720,1-8-2024,17-28-43,32,VR_target_stimuli/s0_0.75x_2.6_345.png,1000,0.75x,2.6,2.3,6491,992,meters,jsons/MX_seq31_2_VE1000.json,458620,710951,23,Woman
32,670523,final-intermixed-textured,v2,jsons/MX_seq31_2_VE1000.json,http://54.235.29.9/FacialAge/BNav_EC2/DepthDuration/MX_fS_VE_MTurk/MX_fS_HTML.html#109,109,1280,551,1280,720,1-8-2024,17-28-43,33,VR_target_stimuli/s34_1x_2.8_283_BC.png,1000,1x,2.8,3.0,7129,1005,meters,jsons/MX_seq31_2_VE1000.json,458620,710951,23,Woman
33,670523,final-intermixed-textured,v2,jsons/MX_seq31_2_VE1000.json,http://54.235.29.9/FacialAge/BNav_EC2/DepthDuration/MX_fS_VE_MTurk/MX_fS_HTML.html#109,109,1280,551,1280,720,1-8-2024,17-28-43,34,catch_stimuli/c3.png,1000,,,0.0,4701,993,meters,jsons/MX_seq31_2_VE1000.json,458620,710951,23,Woman
34,670523,final-intermixed-textured,v2,jsons/MX_seq31_2_VE1000.json,http://54.235.29.9/FacialAge/BNav_EC2/DepthDuration/MX_fS_VE_MTurk/MX_fS_HTML.html#109,109,1280,551,1280,720,1-8-2024,17-28-43,35,VR_target_stimuli/s13_0.75x_2.4_308_BC.png,1000,0.75x,2.4,3.3,6517,990,meters,jsons/MX_seq31_2_VE1000.json,458620,710951,23,Woman
35,670523,final-intermixed-textured,v2,jsons/MX_seq31_2_VE1000.json,http://54.235.29.9/FacialAge/BNav_EC2/DepthDuration/MX_fS_VE_MTurk/MX_fS_HTML.html#109,109,1280,551,1280,720,1-8-2024,17-28-43,36,VR_target_stimuli/s14_1.3x_3.83_359_BC.png,1000,1.3x,3.83,4.0,7325,1000,meters,jsons/MX_seq31_2_VE1000.json,458620,710951,23,Woman
36,670523,final-intermixed-textured,v2,jsons/MX_seq31_2_VE1000.json,http://54.235.29.9/FacialAge/BNav_EC2/DepthDuration/MX_fS_VE_MTurk/MX_fS_HTML.html#109,109,1280,551,1280,720,1-8-2024,17-28-43,37,VR_target_stimuli/s47_1x_3.45_370.png,1000,1x,3.45,6.0,4773,999,meters,jsons/MX_seq31_2_VE1000.json,458620,710951,23,Woman
37,670523,final-intermixed-textured,v2,jsons/MX_seq31_2_VE1000.json,http://54.235.29.9/FacialAge/BNav_EC2/DepthDuration/MX_fS_VE_MTurk/MX_fS_HTML.html#109,109,1280,551,1280,720,1-8-2024,17-28-43,38,VR_target_stimuli/s29_1x_1.3_250_BC.png,1000,1x,1.3,2.0,5996,1003,meters,jsons/MX_seq31_2_VE1000.json,458620,710951,23,Woman
38,670523,final-intermixed-textured,v2,jsons/MX_seq31_2_VE1000.json,http://54.235.29.9/FacialAge/BNav_EC2/DepthDuration/MX_fS_VE_MTurk/MX_fS_HTML.html#109,109,1280,551,1280,720,1-8-2024,17-28-43,39,VR_target_stimuli/s28_0.75x_3.2_357.png,1000,0.75x,3.2,4.7,7444,1001,meters,jsons/MX_seq31_2_VE1000.json,458620,710951,23,Woman
39,670523,final-intermixed-textured,v2,jsons/MX_seq31_2_VE1000.json,http://54.235.29.9/FacialAge/BNav_EC2/DepthDuration/MX_fS_VE_MTurk/MX_fS_HTML.html#109,109,1280,551,1280,720,1-8-2024,17-28-43,40,VR_target_stimuli/s48_1.3x_2.55_255.png,1000,1.3x,2.55,2.0,5165,1007,meters,jsons/MX_seq31_2_VE1000.json,458620,710951,23,Woman
40,670523,final-intermixed-textured,v2,jsons/MX_seq31_2_VE1000.json,http://54.235.29.9/FacialAge/BNav_EC2/DepthDuration/MX_fS_VE_MTurk/MX_fS_HTML.html#109,109,1280,551,1280,720,1-8-2024,17-28-43,41,VR_target_stimuli/s19_0.75x_1.21_257.png,1000,0.75x,1.21,1.3,6938,990,meters,jsons/MX_seq31_2_VE1000.json,458620,710951,23,Woman
41,670523,final-intermixed-textured,v2,jsons/MX_seq31_2_VE1000.json,http://54.235.29.9/FacialAge/BNav_EC2/DepthDuration/MX_fS_VE_MTurk/MX_fS_HTML.html#109,109,1280,551,1280,720,1-8-2024,17-28-43,42,VR_target_stimuli/s21_1x_4.22_379_BC.png,1000,1x,4.22,5.0,5134,1007,meters,jsons/MX_seq31_2_VE1000.json,458620,710951,23,Woman
42,670523,final-intermixed-textured,v2,jsons/MX_seq31_2_VE1000.json,http://54.235.29.9/FacialAge/BNav_EC2/DepthDuration/MX_fS_VE_MTurk/MX_fS_HTML.html#109,109,1280,551,1280,720,1-8-2024,17-28-43,43,VR_target_stimuli/s8_1.3x_3.1_345_BC.png,1000,1.3x,3.1,3.7,8977,1004,meters,jsons/MX_seq31_2_VE1000.json,458620,710951,23,Woman
43,670523,final-intermixed-textured,v2,jsons/MX_seq31_2_VE1000.json,http://54.235.29.9/FacialAge/BNav_EC2/DepthDuration/MX_fS_VE_MTurk/MX_fS_HTML.html#109,109,1280,551,1280,720,1-8-2024,17-28-43,44,VR_target_stimuli/s27_1x_1.76_248.png,1000,1x,1.76,2.8,6768,998,meters,jsons/MX_seq31_2_VE1000.json,458620,710951,23,Woman
44,670523,final-intermixed-textured,v2,jsons/MX_seq31_2_VE1000.json,http://54.235.29.9/FacialAge/BNav_EC2/DepthDuration/MX_fS_VE_MTurk/MX_fS_HTML.html#109,109,1280,551,1280,720,1-8-2024,17-28-43,45,catch_stimuli/c4.png,1000,,,0.0,4947,990,meters,jsons/MX_seq31_2_VE1000.json,458620,710951,23,Woman
45,670523,final-intermixed-textured,v2,jsons/MX_seq31_2_VE1000.json,http://54.235.29.9/FacialAge/BNav_EC2/DepthDuration/MX_fS_VE_MTurk/MX_fS_HTML.html#109,109,1280,551,1280,720,1-8-2024,17-28-43,46,VR_target_stimuli/s15_0.75x_4.2_388_BC.png,1000,0.75x,4.2,3.0,4521,986,meters,jsons/MX_seq31_2_VE1000.json,458620,710951,23,Woman
46,670523,final-intermixed-textured,v2,jsons/MX_seq31_2_VE1000.json,http://54.235.29.9/FacialAge/BNav_EC2/DepthDuration/MX_fS_VE_MTurk/MX_fS_HTML.html#109,109,1280,551,1280,720,1-8-2024,17-28-43,47,VR_target_stimuli/s4_1.3x_1.4_328.png,1000,1.3x,1.4,1.0,5445,999,meters,jsons/MX_seq31_2_VE1000.json,458620,710951,23,Woman
47,670523,final-intermixed-textured,v2,jsons/MX_seq31_2_VE1000.json,http://54.235.29.9/FacialAge/BNav_EC2/DepthDuration/MX_fS_VE_MTurk/MX_fS_HTML.html#109,109,1280,551,1280,720,1-8-2024,17-28-43,48,VR_target_stimuli/s35_1.3x_2_338_BC.png,1000,1.3x,2.0,2.0,3947,996,meters,jsons/MX_seq31_2_VE1000.json,458620,710951,23,Woman
48,670523,final-intermixed-textured,v2,jsons/MX_seq31_2_VE1000.json,http://54.235.29.9/FacialAge/BNav_EC2/DepthDuration/MX_fS_VE_MTurk/MX_fS_HTML.html#109,109,1280,551,1280,720,1-8-2024,17-28-43,49,VR_target_stimuli/s49_1x_4.67_341_BC.png,1000,1x,4.67,4.5,6708,999,meters,jsons/MX_seq31_2_VE1000.json,458620,710951,23,Woman
49,670523,final-intermixed-textured,v2,jsons/MX_seq31_2_VE1000.json,http://54.235.29.9/FacialAge/BNav_EC2/DepthDuration/MX_fS_VE_MTurk/MX_fS_HTML.html#109,109,1280,551,1280,720,1-8-2024,17-28-43,50,VR_target_stimuli/s7_0.75x_1.5_253_BC.png,1000,0.75x,1.5,2.0,4403,1003,meters,jsons/MX_seq31_2_VE1000.json,458620,710951,23,Woman
50,670523,final-intermixed-textured,v2,jsons/MX_seq31_2_VE1000.json,http://54.235.29.9/FacialAge/BNav_EC2/DepthDuration/MX_fS_VE_MTurk/MX_fS_HTML.html#109,109,1280,551,1280,720,1-8-2024,17-28-43,51,VR_target_stimuli/s20_1x_4.99_398.png,1000,1x,4.99,5.0,5021,1001,meters,jsons/MX_seq31_2_VE1000.json,458620,710951,23,Woman
51,670523,final-intermixed-textured,v2,jsons/MX_seq31_2_VE1000.json,http://54.235.29.9/FacialAge/BNav_EC2/DepthDuration/MX_fS_VE_MTurk/MX_fS_HTML.html#109,109,1280,551,1280,720,1-8-2024,17-28-43,52,VR_target_stimuli/s31_1.3x_4.96_342.png,1000,1.3x,4.96,2.0,5624,999,meters,jsons/MX_seq31_2_VE1000.json,458620,710951,23,Woman
52,670523,final-intermixed-textured,v2,jsons/MX_seq31_2_VE1000.json,http://54.235.29.9/FacialAge/BNav_EC2/DepthDuration/MX_fS_VE_MTurk/MX_fS_HTML.html#109,109,1280,551,1280,720,1-8-2024,17-28-43,53,catch_stimuli/c5.png,1000,,,0.0,6198,1004,meters,jsons/MX_seq31_2_VE1000.json,458620,710951,23,Woman
53,670523,final-intermixed-textured,v2,jsons/MX_seq31_2_VE1000.json,http://54.235.29.9/FacialAge/BNav_EC2/DepthDuration/MX_fS_VE_MTurk/MX_fS_HTML.html#109,109,1280,551,1280,720,1-8-2024,17-28-43,54,VR_target_stimuli/s33_0.75x_3.1_361.png,1000,0.75x,3.1,3.0,4813,1005,meters,jsons/MX_seq31_2_VE1000.json,458620,710951,23,Woman
54,670523,final-intermixed-textured,v2,jsons/MX_seq31_2_VE1000.json,http://54.235.29.9/FacialAge/BNav_EC2/DepthDuration/MX_fS_VE_MTurk/MX_fS_HTML.html#109,109,1280,551,1280,720,1-8-2024,17-28-43,55,VR_target_stimuli/s52_1.3x_3.2_280.png,1000,1.3x,3.2,2.5,8720,994,meters,jsons/MX_seq31_2_VE1000.json,458620,710951,23,Woman
55,670523,final-intermixed-textured,v2,jsons/MX_seq31_2_VE1000.json,http://54.235.29.9/FacialAge/BNav_EC2/DepthDuration/MX_fS_VE_MTurk/MX_fS_HTML.html#109,109,1280,551,1280,720,1-8-2024,17-28-43,56,VR_target_stimuli/s32_1x_1.5_218_BC.png,1000,1x,1.5,1.4,6786,990,meters,jsons/MX_seq31_2_VE1000.json,458620,710951,23,Woman
56,670523,final-intermixed-textured,v2,jsons/MX_seq31_2_VE1000.json,http://54.235.29.9/FacialAge/BNav_EC2/DepthDuration/MX_fS_VE_MTurk/MX_fS_HTML.html#109,109,1280,551,1280,720,1-8-2024,17-28-43,57,VR_target_stimuli/s18_0.75x_2.25_341.png,1000,0.75x,2.25,2.0,4458,992,meters,jsons/MX_seq31_2_VE1000.json,458620,710951,23,Woman
57,670523,final-intermixed-textured,v2,jsons/MX_seq31_2_VE1000.json,http://54.235.29.9/FacialAge/BNav_EC2/DepthDuration/MX_fS_VE_MTurk/MX_fS_HTML.html#109,109,1280,551,1280,720,1-8-2024,17-28-43,58,VR_target_stimuli/s39_0.75x_1_205_BC.png,1000,0.75x,1.0,0.5,7148,1003,meters,jsons/MX_seq31_2_VE1000.json,458620,710951,23,Woman
58,670523,final-intermixed-textured,v2,jsons/MX_seq31_2_VE1000.json,http://54.235.29.9/FacialAge/BNav_EC2/DepthDuration/MX_fS_VE_MTurk/MX_fS_HTML.html#109,109,1280,551,1280,720,1-8-2024,17-28-43,59,VR_target_stimuli/s51_1.3x_3.64_479_BC.png,1000,1.3x,3.64,2.0,4043,1010,meters,jsons/MX_seq31_2_VE1000.json,458620,710951,23,Woman
59,670523,final-intermixed-textured,v2,jsons/MX_seq31_2_VE1000.json,http://54.235.29.9/FacialAge/BNav_EC2/DepthDuration/MX_fS_VE_MTurk/MX_fS_HTML.html#109,109,1280,551,1280,720,1-8-2024,17-28-43,60,VR_target_stimuli/s43_1x_2.2_354.png,1000,1x,2.2,2.5,7741,991,meters,jsons/MX_seq31_2_VE1000.json,458620,710951,23,Woman
