,subjID,experimentName,versionName,sequenceName,url,selected_row,windowWidth,windowHeight,screenWidth,screenHeight,startDate,startTime,trial,stimulus,duration,scale,actual_depth,depth_estimate,trial_RT,log_sceneDuration,unitSelection,seq_filepath,experimentTime,totalTime,age,gender
0,672462,final-intermixed-textured,v2,jsons/MX_seq31_2_VE1000.json,http://54.235.29.9/FacialAge/BNav_EC2/DepthDuration/MX_fS_VE_MTurk/MX_fS_HTML.html#109,109,1366,599,1366,768,1-8-2024,14-59-18,1,VR_target_stimuli/s24_1x_3.3_349.png,1000,1x,3.3,9,6751,999,feet,jsons/MX_seq31_2_VE1000.json,481801,906720,22,Woman
1,672462,final-intermixed-textured,v2,jsons/MX_seq31_2_VE1000.json,http://54.235.29.9/FacialAge/BNav_EC2/DepthDuration/MX_fS_VE_MTurk/MX_fS_HTML.html#109,109,1366,599,1366,768,1-8-2024,14-59-18,2,VR_target_stimuli/s10_1.3x_2.7_325_BC.png,1000,1.3x,2.7,7,5983,994,feet,jsons/MX_seq31_2_VE1000.json,481801,906720,22,Woman
2,672462,final-intermixed-textured,v2,jsons/MX_seq31_2_VE1000.json,http://54.235.29.9/FacialAge/BNav_EC2/DepthDuration/MX_fS_VE_MTurk/MX_fS_HTML.html#109,109,1366,599,1366,768,1-8-2024,14-59-18,3,VR_target_stimuli/s36_0.75x_4.1_407_BC.png,1000,0.75x,4.1,9,4937,993,feet,jsons/MX_seq31_2_VE1000.json,481801,906720,22,Woman
3,672462,final-intermixed-textured,v2,jsons/MX_seq31_2_VE1000.json,http://54.235.29.9/FacialAge/BNav_EC2/DepthDuration/MX_fS_VE_MTurk/MX_fS_HTML.html#109,109,1366,599,1366,768,1-8-2024,14-59-18,4,VR_target_stimuli/s40_1.3x_1.2_332.png,1000,1.3x,1.2,3,11412,1003,feet,jsons/MX_seq31_2_VE1000.json,481801,906720,22,Woman
4,672462,final-intermixed-textured,v2,jsons/MX_seq31_2_VE1000.json,http://54.235.29.9/FacialAge/BNav_EC2/DepthDuration/MX_fS_VE_MTurk/MX_fS_HTML.html#109,109,1366,599,1366,768,1-8-2024,14-59-18,5,VR_target_stimuli/s41_1x_2.1_286_BC.png,1000,1x,2.1,5,5498,992,feet,jsons/MX_seq31_2_VE1000.json,481801,906720,22,Woman
5,672462,final-intermixed-textured,v2,jsons/MX_seq31_2_VE1000.json,http://54.235.29.9/FacialAge/BNav_EC2/DepthDuration/MX_fS_VE_MTurk/MX_fS_HTML.html#109,109,1366,599,1366,768,1-8-2024,14-59-18,6,VR_target_stimuli/s45_0.75x_3.5_362.png,1000,0.75x,3.5,6,5184,995,feet,jsons/MX_seq31_2_VE1000.json,481801,906720,22,Woman
6,672462,final-intermixed-textured,v2,jsons/MX_seq31_2_VE1000.json,http://54.235.29.9/FacialAge/BNav_EC2/DepthDuration/MX_fS_VE_MTurk/MX_fS_HTML.html#109,109,1366,599,1366,768,1-8-2024,14-59-18,7,catch_stimuli/c0.png,1000,,,0,4730,992,feet,jsons/MX_seq31_2_VE1000.json,481801,906720,22,Woman
7,672462,final-intermixed-textured,v2,jsons/MX_seq31_2_VE1000.json,http://54.235.29.9/FacialAge/BNav_EC2/DepthDuration/MX_fS_VE_MTurk/MX_fS_HTML.html#109,109,1366,599,1366,768,1-8-2024,14-59-18,8,VR_target_stimuli/s23_0.75x_3.65_351.png,1000,0.75x,3.65,5,4765,990,feet,jsons/MX_seq31_2_VE1000.json,481801,906720,22,Woman
8,672462,final-intermixed-textured,v2,jsons/MX_seq31_2_VE1000.json,http://54.235.29.9/FacialAge/BNav_EC2/DepthDuration/MX_fS_VE_MTurk/MX_fS_HTML.html#109,109,1366,599,1366,768,1-8-2024,14-59-18,9,VR_target_stimuli/s26_1.3x_4_441.png,1000,1.3x,4.0,6,4465,989,feet,jsons/MX_seq31_2_VE1000.json,481801,906720,22,Woman
9,672462,final-intermixed-textured,v2,jsons/MX_seq31_2_VE1000.json,http://54.235.29.9/FacialAge/BNav_EC2/DepthDuration/MX_fS_VE_MTurk/MX_fS_HTML.html#109,109,1366,599,1366,768,1-8-2024,14-59-18,10,VR_target_stimuli/s12_1x_3.1_372.png,1000,1x,3.1,8,11245,992,feet,jsons/MX_seq31_2_VE1000.json,481801,906720,22,Woman
10,672462,final-intermixed-textured,v2,jsons/MX_seq31_2_VE1000.json,http://54.235.29.9/FacialAge/BNav_EC2/DepthDuration/MX_fS_VE_MTurk/MX_fS_HTML.html#109,109,1366,599,1366,768,1-8-2024,14-59-18,11,VR_target_stimuli/s30_1.3x_2.3_337_BC.png,1000,1.3x,2.3,5,10294,1002,feet,jsons/MX_seq31_2_VE1000.json,481801,906720,22,Woman
11,672462,final-intermixed-textured,v2,jsons/MX_seq31_2_VE1000.json,http://54.235.29.9/FacialAge/BNav_EC2/DepthDuration/MX_fS_VE_MTurk/MX_fS_HTML.html#109,109,1366,599,1366,768,1-8-2024,14-59-18,12,VR_target_stimuli/s16_0.75x_1_217_BC.png,1000,0.75x,1.0,3,3817,993,feet,jsons/MX_seq31_2_VE1000.json,481801,906720,22,Woman
12,672462,final-intermixed-textured,v2,jsons/MX_seq31_2_VE1000.json,http://54.235.29.9/FacialAge/BNav_EC2/DepthDuration/MX_fS_VE_MTurk/MX_fS_HTML.html#109,109,1366,599,1366,768,1-8-2024,14-59-18,13,VR_target_stimuli/s17_1x_1.8_291_BC.png,1000,1x,1.8,4,10013,991,feet,jsons/MX_seq31_2_VE1000.json,481801,906720,22,Woman
13,672462,final-intermixed-textured,v2,jsons/MX_seq31_2_VE1000.json,http://54.235.29.9/FacialAge/BNav_EC2/DepthDuration/MX_fS_VE_MTurk/MX_fS_HTML.html#109,109,1366,599,1366,768,1-8-2024,14-59-18,14,VR_target_stimuli/s5_0.75x_4_375.png,1000,0.75x,4.0,10,5348,997,feet,jsons/MX_seq31_2_VE1000.json,481801,906720,22,Woman
14,672462,final-intermixed-textured,v2,jsons/MX_seq31_2_VE1000.json,http://54.235.29.9/FacialAge/BNav_EC2/DepthDuration/MX_fS_VE_MTurk/MX_fS_HTML.html#109,109,1366,599,1366,768,1-8-2024,14-59-18,15,VR_target_stimuli/s37_1.3x_3.3_555.png,1000,1.3x,3.3,4,3834,1002,feet,jsons/MX_seq31_2_VE1000.json,481801,906720,22,Woman
15,672462,final-intermixed-textured,v2,jsons/MX_seq31_2_VE1000.json,http://54.235.29.9/FacialAge/BNav_EC2/DepthDuration/MX_fS_VE_MTurk/MX_fS_HTML.html#109,109,1366,599,1366,768,1-8-2024,14-59-18,16,VR_target_stimuli/s46_1x_2.42_348.png,1000,1x,2.42,8,5001,998,feet,jsons/MX_seq31_2_VE1000.json,481801,906720,22,Woman
16,672462,final-intermixed-textured,v2,jsons/MX_seq31_2_VE1000.json,http://54.235.29.9/FacialAge/BNav_EC2/DepthDuration/MX_fS_VE_MTurk/MX_fS_HTML.html#109,109,1366,599,1366,768,1-8-2024,14-59-18,17,catch_stimuli/c1.png,1000,,,0,4068,994,feet,jsons/MX_seq31_2_VE1000.json,481801,906720,22,Woman
17,672462,final-intermixed-textured,v2,jsons/MX_seq31_2_VE1000.json,http://54.235.29.9/FacialAge/BNav_EC2/DepthDuration/MX_fS_VE_MTurk/MX_fS_HTML.html#109,109,1366,599,1366,768,1-8-2024,14-59-18,18,VR_target_stimuli/s22_1x_4.29_354_BC.png,1000,1x,4.29,10,9647,991,feet,jsons/MX_seq31_2_VE1000.json,481801,906720,22,Woman
18,672462,final-intermixed-textured,v2,jsons/MX_seq31_2_VE1000.json,http://54.235.29.9/FacialAge/BNav_EC2/DepthDuration/MX_fS_VE_MTurk/MX_fS_HTML.html#109,109,1366,599,1366,768,1-8-2024,14-59-18,19,VR_target_stimuli/s42_0.75x_3.2_301_BC.png,1000,0.75x,3.2,9,4800,993,feet,jsons/MX_seq31_2_VE1000.json,481801,906720,22,Woman
19,672462,final-intermixed-textured,v2,jsons/MX_seq31_2_VE1000.json,http://54.235.29.9/FacialAge/BNav_EC2/DepthDuration/MX_fS_VE_MTurk/MX_fS_HTML.html#109,109,1366,599,1366,768,1-8-2024,14-59-18,20,VR_target_stimuli/s25_1.3x_1.4_299_BC.png,1000,1.3x,1.4,5,4034,1006,feet,jsons/MX_seq31_2_VE1000.json,481801,906720,22,Woman
20,672462,final-intermixed-textured,v2,jsons/MX_seq31_2_VE1000.json,http://54.235.29.9/FacialAge/BNav_EC2/DepthDuration/MX_fS_VE_MTurk/MX_fS_HTML.html#109,109,1366,599,1366,768,1-8-2024,14-59-18,21,VR_target_stimuli/s50_0.75x_4.53_517_BC.png,1000,0.75x,4.53,7,4467,989,feet,jsons/MX_seq31_2_VE1000.json,481801,906720,22,Woman
21,672462,final-intermixed-textured,v2,jsons/MX_seq31_2_VE1000.json,http://54.235.29.9/FacialAge/BNav_EC2/DepthDuration/MX_fS_VE_MTurk/MX_fS_HTML.html#109,109,1366,599,1366,768,1-8-2024,14-59-18,22,VR_target_stimuli/s53_1x_1.6_387.png,1000,1x,1.6,4,4833,991,feet,jsons/MX_seq31_2_VE1000.json,481801,906720,22,Woman
22,672462,final-intermixed-textured,v2,jsons/MX_seq31_2_VE1000.json,http://54.235.29.9/FacialAge/BNav_EC2/DepthDuration/MX_fS_VE_MTurk/MX_fS_HTML.html#109,109,1366,599,1366,768,1-8-2024,14-59-18,23,VR_target_stimuli/s38_1.3x_3.55_358.png,1000,1.3x,3.55,9,4036,993,feet,jsons/MX_seq31_2_VE1000.json,481801,906720,22,Woman
23,672462,final-intermixed-textured,v2,jsons/MX_seq31_2_VE1000.json,http://54.235.29.9/FacialAge/BNav_EC2/DepthDuration/MX_fS_VE_MTurk/MX_fS_HTML.html#109,109,1366,599,1366,768,1-8-2024,14-59-18,24,VR_target_stimuli/s9_1x_1.2_263_BC.png,1000,1x,1.2,3,3518,989,feet,jsons/MX_seq31_2_VE1000.json,481801,906720,22,Woman
24,672462,final-intermixed-textured,v2,jsons/MX_seq31_2_VE1000.json,http://54.235.29.9/FacialAge/BNav_EC2/DepthDuration/MX_fS_VE_MTurk/MX_fS_HTML.html#109,109,1366,599,1366,768,1-8-2024,14-59-18,25,VR_target_stimuli/s44_0.75x_4.4_314.png,1000,0.75x,4.4,15,6447,1001,feet,jsons/MX_seq31_2_VE1000.json,481801,906720,22,Woman
25,672462,final-intermixed-textured,v2,jsons/MX_seq31_2_VE1000.json,http://54.235.29.9/FacialAge/BNav_EC2/DepthDuration/MX_fS_VE_MTurk/MX_fS_HTML.html#109,109,1366,599,1366,768,1-8-2024,14-59-18,26,catch_stimuli/c2.png,1000,,,0,5849,997,feet,jsons/MX_seq31_2_VE1000.json,481801,906720,22,Woman
26,672462,final-intermixed-textured,v2,jsons/MX_seq31_2_VE1000.json,http://54.235.29.9/FacialAge/BNav_EC2/DepthDuration/MX_fS_VE_MTurk/MX_fS_HTML.html#109,109,1366,599,1366,768,1-8-2024,14-59-18,27,VR_target_stimuli/s3_1.3x_5_390_BC.png,1000,1.3x,5.0,12,12241,1004,feet,jsons/MX_seq31_2_VE1000.json,481801,906720,22,Woman
27,672462,final-intermixed-textured,v2,jsons/MX_seq31_2_VE1000.json,http://54.235.29.9/FacialAge/BNav_EC2/DepthDuration/MX_fS_VE_MTurk/MX_fS_HTML.html#109,109,1366,599,1366,768,1-8-2024,14-59-18,28,VR_target_stimuli/s1_1.3x_1.7_261.png,1000,1.3x,1.7,5,4083,989,feet,jsons/MX_seq31_2_VE1000.json,481801,906720,22,Woman
28,672462,final-intermixed-textured,v2,jsons/MX_seq31_2_VE1000.json,http://54.235.29.9/FacialAge/BNav_EC2/DepthDuration/MX_fS_VE_MTurk/MX_fS_HTML.html#109,109,1366,599,1366,768,1-8-2024,14-59-18,29,VR_target_stimuli/s11_1x_5_361.png,1000,1x,5.0,11,6114,1003,feet,jsons/MX_seq31_2_VE1000.json,481801,906720,22,Woman
29,672462,final-intermixed-textured,v2,jsons/MX_seq31_2_VE1000.json,http://54.235.29.9/FacialAge/BNav_EC2/DepthDuration/MX_fS_VE_MTurk/MX_fS_HTML.html#109,109,1366,599,1366,768,1-8-2024,14-59-18,30,VR_target_stimuli/s2_0.75x_2.7_384_BC.png,1000,0.75x,2.7,7,6713,988,feet,jsons/MX_seq31_2_VE1000.json,481801,906720,22,Woman
30,672462,final-intermixed-textured,v2,jsons/MX_seq31_2_VE1000.json,http://54.235.29.9/FacialAge/BNav_EC2/DepthDuration/MX_fS_VE_MTurk/MX_fS_HTML.html#109,109,1366,599,1366,768,1-8-2024,14-59-18,31,VR_target_stimuli/s6_1.3x_2.1_298_BC.png,1000,1.3x,2.1,5,4336,990,feet,jsons/MX_seq31_2_VE1000.json,481801,906720,22,Woman
31,672462,final-intermixed-textured,v2,jsons/MX_seq31_2_VE1000.json,http://54.235.29.9/FacialAge/BNav_EC2/DepthDuration/MX_fS_VE_MTurk/MX_fS_HTML.html#109,109,1366,599,1366,768,1-8-2024,14-59-18,32,VR_target_stimuli/s0_0.75x_2.6_345.png,1000,0.75x,2.6,6,4967,1006,feet,jsons/MX_seq31_2_VE1000.json,481801,906720,22,Woman
32,672462,final-intermixed-textured,v2,jsons/MX_seq31_2_VE1000.json,http://54.235.29.9/FacialAge/BNav_EC2/DepthDuration/MX_fS_VE_MTurk/MX_fS_HTML.html#109,109,1366,599,1366,768,1-8-2024,14-59-18,33,VR_target_stimuli/s34_1x_2.8_283_BC.png,1000,1x,2.8,7,7787,990,feet,jsons/MX_seq31_2_VE1000.json,481801,906720,22,Woman
33,672462,final-intermixed-textured,v2,jsons/MX_seq31_2_VE1000.json,http://54.235.29.9/FacialAge/BNav_EC2/DepthDuration/MX_fS_VE_MTurk/MX_fS_HTML.html#109,109,1366,599,1366,768,1-8-2024,14-59-18,34,catch_stimuli/c3.png,1000,,,0,7266,1003,feet,jsons/MX_seq31_2_VE1000.json,481801,906720,22,Woman
34,672462,final-intermixed-textured,v2,jsons/MX_seq31_2_VE1000.json,http://54.235.29.9/FacialAge/BNav_EC2/DepthDuration/MX_fS_VE_MTurk/MX_fS_HTML.html#109,109,1366,599,1366,768,1-8-2024,14-59-18,35,VR_target_stimuli/s13_0.75x_2.4_308_BC.png,1000,0.75x,2.4,10,5648,1005,feet,jsons/MX_seq31_2_VE1000.json,481801,906720,22,Woman
35,672462,final-intermixed-textured,v2,jsons/MX_seq31_2_VE1000.json,http://54.235.29.9/FacialAge/BNav_EC2/DepthDuration/MX_fS_VE_MTurk/MX_fS_HTML.html#109,109,1366,599,1366,768,1-8-2024,14-59-18,36,VR_target_stimuli/s14_1.3x_3.83_359_BC.png,1000,1.3x,3.83,8,5235,990,feet,jsons/MX_seq31_2_VE1000.json,481801,906720,22,Woman
36,672462,final-intermixed-textured,v2,jsons/MX_seq31_2_VE1000.json,http://54.235.29.9/FacialAge/BNav_EC2/DepthDuration/MX_fS_VE_MTurk/MX_fS_HTML.html#109,109,1366,599,1366,768,1-8-2024,14-59-18,37,VR_target_stimuli/s47_1x_3.45_370.png,1000,1x,3.45,10,8061,1003,feet,jsons/MX_seq31_2_VE1000.json,481801,906720,22,Woman
37,672462,final-intermixed-textured,v2,jsons/MX_seq31_2_VE1000.json,http://54.235.29.9/FacialAge/BNav_EC2/DepthDuration/MX_fS_VE_MTurk/MX_fS_HTML.html#109,109,1366,599,1366,768,1-8-2024,14-59-18,38,VR_target_stimuli/s29_1x_1.3_250_BC.png,1000,1x,1.3,6,4649,992,feet,jsons/MX_seq31_2_VE1000.json,481801,906720,22,Woman
38,672462,final-intermixed-textured,v2,jsons/MX_seq31_2_VE1000.json,http://54.235.29.9/FacialAge/BNav_EC2/DepthDuration/MX_fS_VE_MTurk/MX_fS_HTML.html#109,109,1366,599,1366,768,1-8-2024,14-59-18,39,VR_target_stimuli/s28_0.75x_3.2_357.png,1000,0.75x,3.2,9,4748,993,feet,jsons/MX_seq31_2_VE1000.json,481801,906720,22,Woman
39,672462,final-intermixed-textured,v2,jsons/MX_seq31_2_VE1000.json,http://54.235.29.9/FacialAge/BNav_EC2/DepthDuration/MX_fS_VE_MTurk/MX_fS_HTML.html#109,109,1366,599,1366,768,1-8-2024,14-59-18,40,VR_target_stimuli/s48_1.3x_2.55_255.png,1000,1.3x,2.55,5,4549,988,feet,jsons/MX_seq31_2_VE1000.json,481801,906720,22,Woman
40,672462,final-intermixed-textured,v2,jsons/MX_seq31_2_VE1000.json,http://54.235.29.9/FacialAge/BNav_EC2/DepthDuration/MX_fS_VE_MTurk/MX_fS_HTML.html#109,109,1366,599,1366,768,1-8-2024,14-59-18,41,VR_target_stimuli/s19_0.75x_1.21_257.png,1000,0.75x,1.21,4,5068,1006,feet,jsons/MX_seq31_2_VE1000.json,481801,906720,22,Woman
41,672462,final-intermixed-textured,v2,jsons/MX_seq31_2_VE1000.json,http://54.235.29.9/FacialAge/BNav_EC2/DepthDuration/MX_fS_VE_MTurk/MX_fS_HTML.html#109,109,1366,599,1366,768,1-8-2024,14-59-18,42,VR_target_stimuli/s21_1x_4.22_379_BC.png,1000,1x,4.22,8,5930,1005,feet,jsons/MX_seq31_2_VE1000.json,481801,906720,22,Woman
42,672462,final-intermixed-textured,v2,jsons/MX_seq31_2_VE1000.json,http://54.235.29.9/FacialAge/BNav_EC2/DepthDuration/MX_fS_VE_MTurk/MX_fS_HTML.html#109,109,1366,599,1366,768,1-8-2024,14-59-18,43,VR_target_stimuli/s8_1.3x_3.1_345_BC.png,1000,1.3x,3.1,10,8045,990,feet,jsons/MX_seq31_2_VE1000.json,481801,906720,22,Woman
43,672462,final-intermixed-textured,v2,jsons/MX_seq31_2_VE1000.json,http://54.235.29.9/FacialAge/BNav_EC2/DepthDuration/MX_fS_VE_MTurk/MX_fS_HTML.html#109,109,1366,599,1366,768,1-8-2024,14-59-18,44,VR_target_stimuli/s27_1x_1.76_248.png,1000,1x,1.76,6,8028,988,feet,jsons/MX_seq31_2_VE1000.json,481801,906720,22,Woman
44,672462,final-intermixed-textured,v2,jsons/MX_seq31_2_VE1000.json,http://54.235.29.9/FacialAge/BNav_EC2/DepthDuration/MX_fS_VE_MTurk/MX_fS_HTML.html#109,109,1366,599,1366,768,1-8-2024,14-59-18,45,catch_stimuli/c4.png,1000,,,0,5150,989,feet,jsons/MX_seq31_2_VE1000.json,481801,906720,22,Woman
45,672462,final-intermixed-textured,v2,jsons/MX_seq31_2_VE1000.json,http://54.235.29.9/FacialAge/BNav_EC2/DepthDuration/MX_fS_VE_MTurk/MX_fS_HTML.html#109,109,1366,599,1366,768,1-8-2024,14-59-18,46,VR_target_stimuli/s15_0.75x_4.2_388_BC.png,1000,0.75x,4.2,10,5732,990,feet,jsons/MX_seq31_2_VE1000.json,481801,906720,22,Woman
46,672462,final-intermixed-textured,v2,jsons/MX_seq31_2_VE1000.json,http://54.235.29.9/FacialAge/BNav_EC2/DepthDuration/MX_fS_VE_MTurk/MX_fS_HTML.html#109,109,1366,599,1366,768,1-8-2024,14-59-18,47,VR_target_stimuli/s4_1.3x_1.4_328.png,1000,1.3x,1.4,4,7867,1005,feet,jsons/MX_seq31_2_VE1000.json,481801,906720,22,Woman
47,672462,final-intermixed-textured,v2,jsons/MX_seq31_2_VE1000.json,http://54.235.29.9/FacialAge/BNav_EC2/DepthDuration/MX_fS_VE_MTurk/MX_fS_HTML.html#109,109,1366,599,1366,768,1-8-2024,14-59-18,48,VR_target_stimuli/s35_1.3x_2_338_BC.png,1000,1.3x,2.0,6,103636,1002,feet,jsons/MX_seq31_2_VE1000.json,481801,906720,22,Woman
48,672462,final-intermixed-textured,v2,jsons/MX_seq31_2_VE1000.json,http://54.235.29.9/FacialAge/BNav_EC2/DepthDuration/MX_fS_VE_MTurk/MX_fS_HTML.html#109,109,1366,599,1366,768,1-8-2024,14-59-18,49,VR_target_stimuli/s49_1x_4.67_341_BC.png,1000,1x,4.67,0,8711,1002,feet,jsons/MX_seq31_2_VE1000.json,481801,906720,22,Woman
49,672462,final-intermixed-textured,v2,jsons/MX_seq31_2_VE1000.json,http://54.235.29.9/FacialAge/BNav_EC2/DepthDuration/MX_fS_VE_MTurk/MX_fS_HTML.html#109,109,1366,599,1366,768,1-8-2024,14-59-18,50,VR_target_stimuli/s7_0.75x_1.5_253_BC.png,1000,0.75x,1.5,0,7083,996,feet,jsons/MX_seq31_2_VE1000.json,481801,906720,22,Woman
50,672462,final-intermixed-textured,v2,jsons/MX_seq31_2_VE1000.json,http://54.235.29.9/FacialAge/BNav_EC2/DepthDuration/MX_fS_VE_MTurk/MX_fS_HTML.html#109,109,1366,599,1366,768,1-8-2024,14-59-18,51,VR_target_stimuli/s20_1x_4.99_398.png,1000,1x,4.99,15,5482,1006,feet,jsons/MX_seq31_2_VE1000.json,481801,906720,22,Woman
51,672462,final-intermixed-textured,v2,jsons/MX_seq31_2_VE1000.json,http://54.235.29.9/FacialAge/BNav_EC2/DepthDuration/MX_fS_VE_MTurk/MX_fS_HTML.html#109,109,1366,599,1366,768,1-8-2024,14-59-18,52,VR_target_stimuli/s31_1.3x_4.96_342.png,1000,1.3x,4.96,6,4200,991,feet,jsons/MX_seq31_2_VE1000.json,481801,906720,22,Woman
52,672462,final-intermixed-textured,v2,jsons/MX_seq31_2_VE1000.json,http://54.235.29.9/FacialAge/BNav_EC2/DepthDuration/MX_fS_VE_MTurk/MX_fS_HTML.html#109,109,1366,599,1366,768,1-8-2024,14-59-18,53,catch_stimuli/c5.png,1000,,,0,4312,986,feet,jsons/MX_seq31_2_VE1000.json,481801,906720,22,Woman
53,672462,final-intermixed-textured,v2,jsons/MX_seq31_2_VE1000.json,http://54.235.29.9/FacialAge/BNav_EC2/DepthDuration/MX_fS_VE_MTurk/MX_fS_HTML.html#109,109,1366,599,1366,768,1-8-2024,14-59-18,54,VR_target_stimuli/s33_0.75x_3.1_361.png,1000,0.75x,3.1,9,6895,1003,feet,jsons/MX_seq31_2_VE1000.json,481801,906720,22,Woman
54,672462,final-intermixed-textured,v2,jsons/MX_seq31_2_VE1000.json,http://54.235.29.9/FacialAge/BNav_EC2/DepthDuration/MX_fS_VE_MTurk/MX_fS_HTML.html#109,109,1366,599,1366,768,1-8-2024,14-59-18,55,VR_target_stimuli/s52_1.3x_3.2_280.png,1000,1.3x,3.2,9,5248,988,feet,jsons/MX_seq31_2_VE1000.json,481801,906720,22,Woman
55,672462,final-intermixed-textured,v2,jsons/MX_seq31_2_VE1000.json,http://54.235.29.9/FacialAge/BNav_EC2/DepthDuration/MX_fS_VE_MTurk/MX_fS_HTML.html#109,109,1366,599,1366,768,1-8-2024,14-59-18,56,VR_target_stimuli/s32_1x_1.5_218_BC.png,1000,1x,1.5,5,5779,990,feet,jsons/MX_seq31_2_VE1000.json,481801,906720,22,Woman
56,672462,final-intermixed-textured,v2,jsons/MX_seq31_2_VE1000.json,http://54.235.29.9/FacialAge/BNav_EC2/DepthDuration/MX_fS_VE_MTurk/MX_fS_HTML.html#109,109,1366,599,1366,768,1-8-2024,14-59-18,57,VR_target_stimuli/s18_0.75x_2.25_341.png,1000,0.75x,2.25,5,3087,989,feet,jsons/MX_seq31_2_VE1000.json,481801,906720,22,Woman
57,672462,final-intermixed-textured,v2,jsons/MX_seq31_2_VE1000.json,http://54.235.29.9/FacialAge/BNav_EC2/DepthDuration/MX_fS_VE_MTurk/MX_fS_HTML.html#109,109,1366,599,1366,768,1-8-2024,14-59-18,58,VR_target_stimuli/s39_0.75x_1_205_BC.png,1000,0.75x,1.0,3,3577,1000,feet,jsons/MX_seq31_2_VE1000.json,481801,906720,22,Woman
58,672462,final-intermixed-textured,v2,jsons/MX_seq31_2_VE1000.json,http://54.235.29.9/FacialAge/BNav_EC2/DepthDuration/MX_fS_VE_MTurk/MX_fS_HTML.html#109,109,1366,599,1366,768,1-8-2024,14-59-18,59,VR_target_stimuli/s51_1.3x_3.64_479_BC.png,1000,1.3x,3.64,6,3005,1004,feet,jsons/MX_seq31_2_VE1000.json,481801,906720,22,Woman
59,672462,final-intermixed-textured,v2,jsons/MX_seq31_2_VE1000.json,http://54.235.29.9/FacialAge/BNav_EC2/DepthDuration/MX_fS_VE_MTurk/MX_fS_HTML.html#109,109,1366,599,1366,768,1-8-2024,14-59-18,60,VR_target_stimuli/s43_1x_2.2_354.png,1000,1x,2.2,5,2907,1007,feet,jsons/MX_seq31_2_VE1000.json,481801,906720,22,Woman
