,subjID,experimentName,versionName,sequenceName,url,selected_row,windowWidth,windowHeight,screenWidth,screenHeight,startDate,startTime,trial,stimulus,duration,scale,actual_depth,depth_estimate,trial_RT,log_sceneDuration,unitSelection,seq_filepath,experimentTime,totalTime,age,gender
0,683997,final-intermixed-textured,v2,jsons/MX_seq10_1_VE1000.json,http://54.235.29.9/FacialAge/BNav_EC2/DepthDuration/MX_fS_VE_MTurk/MX_fS_HTML.html#230,230,1920,919,1920,1080,1-8-2024,16-31-53,1,VR_target_stimuli/s29_1.3x_1.3_253_BC.png,1000,1.3x,1.3,1,5325,998,meters,jsons/MX_seq10_1_VE1000.json,327287,526476,56,Man
1,683997,final-intermixed-textured,v2,jsons/MX_seq10_1_VE1000.json,http://54.235.29.9/FacialAge/BNav_EC2/DepthDuration/MX_fS_VE_MTurk/MX_fS_HTML.html#230,230,1920,919,1920,1080,1-8-2024,16-31-53,2,VR_target_stimuli/s28_0.75x_3.2_357_BC.png,1000,0.75x,3.2,4,4781,999,meters,jsons/MX_seq10_1_VE1000.json,327287,526476,56,Man
2,683997,final-intermixed-textured,v2,jsons/MX_seq10_1_VE1000.json,http://54.235.29.9/FacialAge/BNav_EC2/DepthDuration/MX_fS_VE_MTurk/MX_fS_HTML.html#230,230,1920,919,1920,1080,1-8-2024,16-31-53,3,VR_target_stimuli/s48_1x_2.55_256_BC.png,1000,1x,2.55,6,5508,1015,meters,jsons/MX_seq10_1_VE1000.json,327287,526476,56,Man
3,683997,final-intermixed-textured,v2,jsons/MX_seq10_1_VE1000.json,http://54.235.29.9/FacialAge/BNav_EC2/DepthDuration/MX_fS_VE_MTurk/MX_fS_HTML.html#230,230,1920,919,1920,1080,1-8-2024,16-31-53,4,VR_target_stimuli/s19_0.75x_1.21_257.png,1000,0.75x,1.21,3,5630,1008,meters,jsons/MX_seq10_1_VE1000.json,327287,526476,56,Man
4,683997,final-intermixed-textured,v2,jsons/MX_seq10_1_VE1000.json,http://54.235.29.9/FacialAge/BNav_EC2/DepthDuration/MX_fS_VE_MTurk/MX_fS_HTML.html#230,230,1920,919,1920,1080,1-8-2024,16-31-53,5,VR_target_stimuli/s21_1.3x_4.22_384.png,1000,1.3x,4.22,8,9409,997,meters,jsons/MX_seq10_1_VE1000.json,327287,526476,56,Man
5,683997,final-intermixed-textured,v2,jsons/MX_seq10_1_VE1000.json,http://54.235.29.9/FacialAge/BNav_EC2/DepthDuration/MX_fS_VE_MTurk/MX_fS_HTML.html#230,230,1920,919,1920,1080,1-8-2024,16-31-53,6,VR_target_stimuli/s8_1x_3.1_332.png,1000,1x,3.1,4,6454,1002,meters,jsons/MX_seq10_1_VE1000.json,327287,526476,56,Man
6,683997,final-intermixed-textured,v2,jsons/MX_seq10_1_VE1000.json,http://54.235.29.9/FacialAge/BNav_EC2/DepthDuration/MX_fS_VE_MTurk/MX_fS_HTML.html#230,230,1920,919,1920,1080,1-8-2024,16-31-53,7,catch_stimuli/c0.png,1000,,,0,4237,1000,meters,jsons/MX_seq10_1_VE1000.json,327287,526476,56,Man
7,683997,final-intermixed-textured,v2,jsons/MX_seq10_1_VE1000.json,http://54.235.29.9/FacialAge/BNav_EC2/DepthDuration/MX_fS_VE_MTurk/MX_fS_HTML.html#230,230,1920,919,1920,1080,1-8-2024,16-31-53,8,VR_target_stimuli/s27_1x_1.76_248.png,1000,1x,1.76,3,5954,998,meters,jsons/MX_seq10_1_VE1000.json,327287,526476,56,Man
8,683997,final-intermixed-textured,v2,jsons/MX_seq10_1_VE1000.json,http://54.235.29.9/FacialAge/BNav_EC2/DepthDuration/MX_fS_VE_MTurk/MX_fS_HTML.html#230,230,1920,919,1920,1080,1-8-2024,16-31-53,9,VR_target_stimuli/s15_0.75x_4.2_388.png,1000,0.75x,4.2,6,4940,993,meters,jsons/MX_seq10_1_VE1000.json,327287,526476,56,Man
9,683997,final-intermixed-textured,v2,jsons/MX_seq10_1_VE1000.json,http://54.235.29.9/FacialAge/BNav_EC2/DepthDuration/MX_fS_VE_MTurk/MX_fS_HTML.html#230,230,1920,919,1920,1080,1-8-2024,16-31-53,10,VR_target_stimuli/s4_1.3x_1.4_328_BC.png,1000,1.3x,1.4,2,8295,1000,meters,jsons/MX_seq10_1_VE1000.json,327287,526476,56,Man
10,683997,final-intermixed-textured,v2,jsons/MX_seq10_1_VE1000.json,http://54.235.29.9/FacialAge/BNav_EC2/DepthDuration/MX_fS_VE_MTurk/MX_fS_HTML.html#230,230,1920,919,1920,1080,1-8-2024,16-31-53,11,VR_target_stimuli/s35_0.75x_2_323_BC.png,1000,0.75x,2.0,4,4145,998,meters,jsons/MX_seq10_1_VE1000.json,327287,526476,56,Man
11,683997,final-intermixed-textured,v2,jsons/MX_seq10_1_VE1000.json,http://54.235.29.9/FacialAge/BNav_EC2/DepthDuration/MX_fS_VE_MTurk/MX_fS_HTML.html#230,230,1920,919,1920,1080,1-8-2024,16-31-53,12,VR_target_stimuli/s49_1x_4.67_341_BC.png,1000,1x,4.67,9,4861,1001,meters,jsons/MX_seq10_1_VE1000.json,327287,526476,56,Man
12,683997,final-intermixed-textured,v2,jsons/MX_seq10_1_VE1000.json,http://54.235.29.9/FacialAge/BNav_EC2/DepthDuration/MX_fS_VE_MTurk/MX_fS_HTML.html#230,230,1920,919,1920,1080,1-8-2024,16-31-53,13,VR_target_stimuli/s7_1.3x_1.5_256.png,1000,1.3x,1.5,2,4962,1002,meters,jsons/MX_seq10_1_VE1000.json,327287,526476,56,Man
13,683997,final-intermixed-textured,v2,jsons/MX_seq10_1_VE1000.json,http://54.235.29.9/FacialAge/BNav_EC2/DepthDuration/MX_fS_VE_MTurk/MX_fS_HTML.html#230,230,1920,919,1920,1080,1-8-2024,16-31-53,14,VR_target_stimuli/s20_1x_4.99_398.png,1000,1x,4.99,7,4941,994,meters,jsons/MX_seq10_1_VE1000.json,327287,526476,56,Man
14,683997,final-intermixed-textured,v2,jsons/MX_seq10_1_VE1000.json,http://54.235.29.9/FacialAge/BNav_EC2/DepthDuration/MX_fS_VE_MTurk/MX_fS_HTML.html#230,230,1920,919,1920,1080,1-8-2024,16-31-53,15,VR_target_stimuli/s31_0.75x_4.96_329_BC.png,1000,0.75x,4.96,8,4546,1001,meters,jsons/MX_seq10_1_VE1000.json,327287,526476,56,Man
15,683997,final-intermixed-textured,v2,jsons/MX_seq10_1_VE1000.json,http://54.235.29.9/FacialAge/BNav_EC2/DepthDuration/MX_fS_VE_MTurk/MX_fS_HTML.html#230,230,1920,919,1920,1080,1-8-2024,16-31-53,16,VR_target_stimuli/s33_1.3x_3.1_378_BC.png,1000,1.3x,3.1,5,4610,1000,meters,jsons/MX_seq10_1_VE1000.json,327287,526476,56,Man
16,683997,final-intermixed-textured,v2,jsons/MX_seq10_1_VE1000.json,http://54.235.29.9/FacialAge/BNav_EC2/DepthDuration/MX_fS_VE_MTurk/MX_fS_HTML.html#230,230,1920,919,1920,1080,1-8-2024,16-31-53,17,catch_stimuli/c1.png,1000,,,0,4802,1007,meters,jsons/MX_seq10_1_VE1000.json,327287,526476,56,Man
17,683997,final-intermixed-textured,v2,jsons/MX_seq10_1_VE1000.json,http://54.235.29.9/FacialAge/BNav_EC2/DepthDuration/MX_fS_VE_MTurk/MX_fS_HTML.html#230,230,1920,919,1920,1080,1-8-2024,16-31-53,18,VR_target_stimuli/s52_1.3x_3.2_280.png,1000,1.3x,3.2,5,4376,1001,meters,jsons/MX_seq10_1_VE1000.json,327287,526476,56,Man
18,683997,final-intermixed-textured,v2,jsons/MX_seq10_1_VE1000.json,http://54.235.29.9/FacialAge/BNav_EC2/DepthDuration/MX_fS_VE_MTurk/MX_fS_HTML.html#230,230,1920,919,1920,1080,1-8-2024,16-31-53,19,VR_target_stimuli/s32_1x_1.5_218_BC.png,1000,1x,1.5,4,4449,1000,meters,jsons/MX_seq10_1_VE1000.json,327287,526476,56,Man
19,683997,final-intermixed-textured,v2,jsons/MX_seq10_1_VE1000.json,http://54.235.29.9/FacialAge/BNav_EC2/DepthDuration/MX_fS_VE_MTurk/MX_fS_HTML.html#230,230,1920,919,1920,1080,1-8-2024,16-31-53,20,VR_target_stimuli/s18_0.75x_2.25_341.png,1000,0.75x,2.25,3,5232,1000,meters,jsons/MX_seq10_1_VE1000.json,327287,526476,56,Man
20,683997,final-intermixed-textured,v2,jsons/MX_seq10_1_VE1000.json,http://54.235.29.9/FacialAge/BNav_EC2/DepthDuration/MX_fS_VE_MTurk/MX_fS_HTML.html#230,230,1920,919,1920,1080,1-8-2024,16-31-53,21,VR_target_stimuli/s39_1x_1_207.png,1000,1x,1.0,1,4804,1015,meters,jsons/MX_seq10_1_VE1000.json,327287,526476,56,Man
21,683997,final-intermixed-textured,v2,jsons/MX_seq10_1_VE1000.json,http://54.235.29.9/FacialAge/BNav_EC2/DepthDuration/MX_fS_VE_MTurk/MX_fS_HTML.html#230,230,1920,919,1920,1080,1-8-2024,16-31-53,22,VR_target_stimuli/s51_1.3x_3.64_479_BC.png,1000,1.3x,3.64,3,4866,999,meters,jsons/MX_seq10_1_VE1000.json,327287,526476,56,Man
22,683997,final-intermixed-textured,v2,jsons/MX_seq10_1_VE1000.json,http://54.235.29.9/FacialAge/BNav_EC2/DepthDuration/MX_fS_VE_MTurk/MX_fS_HTML.html#230,230,1920,919,1920,1080,1-8-2024,16-31-53,23,VR_target_stimuli/s43_0.75x_2.2_348_BC.png,1000,0.75x,2.2,4,4943,1002,meters,jsons/MX_seq10_1_VE1000.json,327287,526476,56,Man
23,683997,final-intermixed-textured,v2,jsons/MX_seq10_1_VE1000.json,http://54.235.29.9/FacialAge/BNav_EC2/DepthDuration/MX_fS_VE_MTurk/MX_fS_HTML.html#230,230,1920,919,1920,1080,1-8-2024,16-31-53,24,VR_target_stimuli/s24_1.3x_3.3_352.png,1000,1.3x,3.3,5,5054,1008,meters,jsons/MX_seq10_1_VE1000.json,327287,526476,56,Man
24,683997,final-intermixed-textured,v2,jsons/MX_seq10_1_VE1000.json,http://54.235.29.9/FacialAge/BNav_EC2/DepthDuration/MX_fS_VE_MTurk/MX_fS_HTML.html#230,230,1920,919,1920,1080,1-8-2024,16-31-53,25,VR_target_stimuli/s10_1x_2.7_324_BC.png,1000,1x,2.7,3,4659,998,meters,jsons/MX_seq10_1_VE1000.json,327287,526476,56,Man
25,683997,final-intermixed-textured,v2,jsons/MX_seq10_1_VE1000.json,http://54.235.29.9/FacialAge/BNav_EC2/DepthDuration/MX_fS_VE_MTurk/MX_fS_HTML.html#230,230,1920,919,1920,1080,1-8-2024,16-31-53,26,catch_stimuli/c2.png,1000,,,0,4693,996,meters,jsons/MX_seq10_1_VE1000.json,327287,526476,56,Man
26,683997,final-intermixed-textured,v2,jsons/MX_seq10_1_VE1000.json,http://54.235.29.9/FacialAge/BNav_EC2/DepthDuration/MX_fS_VE_MTurk/MX_fS_HTML.html#230,230,1920,919,1920,1080,1-8-2024,16-31-53,27,VR_target_stimuli/s36_0.75x_4.1_407.png,1000,0.75x,4.1,5,4734,1004,meters,jsons/MX_seq10_1_VE1000.json,327287,526476,56,Man
27,683997,final-intermixed-textured,v2,jsons/MX_seq10_1_VE1000.json,http://54.235.29.9/FacialAge/BNav_EC2/DepthDuration/MX_fS_VE_MTurk/MX_fS_HTML.html#230,230,1920,919,1920,1080,1-8-2024,16-31-53,28,VR_target_stimuli/s40_0.75x_1.2_308.png,1000,0.75x,1.2,2,6419,1014,meters,jsons/MX_seq10_1_VE1000.json,327287,526476,56,Man
28,683997,final-intermixed-textured,v2,jsons/MX_seq10_1_VE1000.json,http://54.235.29.9/FacialAge/BNav_EC2/DepthDuration/MX_fS_VE_MTurk/MX_fS_HTML.html#230,230,1920,919,1920,1080,1-8-2024,16-31-53,29,VR_target_stimuli/s41_1.3x_2.1_294.png,1000,1.3x,2.1,3,5825,989,meters,jsons/MX_seq10_1_VE1000.json,327287,526476,56,Man
29,683997,final-intermixed-textured,v2,jsons/MX_seq10_1_VE1000.json,http://54.235.29.9/FacialAge/BNav_EC2/DepthDuration/MX_fS_VE_MTurk/MX_fS_HTML.html#230,230,1920,919,1920,1080,1-8-2024,16-31-53,30,VR_target_stimuli/s45_1x_3.5_368.png,1000,1x,3.5,5,4185,991,meters,jsons/MX_seq10_1_VE1000.json,327287,526476,56,Man
30,683997,final-intermixed-textured,v2,jsons/MX_seq10_1_VE1000.json,http://54.235.29.9/FacialAge/BNav_EC2/DepthDuration/MX_fS_VE_MTurk/MX_fS_HTML.html#230,230,1920,919,1920,1080,1-8-2024,16-31-53,31,VR_target_stimuli/s23_0.75x_3.65_351_BC.png,1000,0.75x,3.65,4,4740,999,meters,jsons/MX_seq10_1_VE1000.json,327287,526476,56,Man
31,683997,final-intermixed-textured,v2,jsons/MX_seq10_1_VE1000.json,http://54.235.29.9/FacialAge/BNav_EC2/DepthDuration/MX_fS_VE_MTurk/MX_fS_HTML.html#230,230,1920,919,1920,1080,1-8-2024,16-31-53,32,VR_target_stimuli/s26_1x_4_433_BC.png,1000,1x,4.0,3,4191,1002,meters,jsons/MX_seq10_1_VE1000.json,327287,526476,56,Man
32,683997,final-intermixed-textured,v2,jsons/MX_seq10_1_VE1000.json,http://54.235.29.9/FacialAge/BNav_EC2/DepthDuration/MX_fS_VE_MTurk/MX_fS_HTML.html#230,230,1920,919,1920,1080,1-8-2024,16-31-53,33,VR_target_stimuli/s12_1.3x_3.1_375_BC.png,1000,1.3x,3.1,3,4504,1003,meters,jsons/MX_seq10_1_VE1000.json,327287,526476,56,Man
33,683997,final-intermixed-textured,v2,jsons/MX_seq10_1_VE1000.json,http://54.235.29.9/FacialAge/BNav_EC2/DepthDuration/MX_fS_VE_MTurk/MX_fS_HTML.html#230,230,1920,919,1920,1080,1-8-2024,16-31-53,34,catch_stimuli/c3.png,1000,,,0,4546,996,meters,jsons/MX_seq10_1_VE1000.json,327287,526476,56,Man
34,683997,final-intermixed-textured,v2,jsons/MX_seq10_1_VE1000.json,http://54.235.29.9/FacialAge/BNav_EC2/DepthDuration/MX_fS_VE_MTurk/MX_fS_HTML.html#230,230,1920,919,1920,1080,1-8-2024,16-31-53,35,VR_target_stimuli/s30_1x_2.3_334.png,1000,1x,2.3,3,5138,998,meters,jsons/MX_seq10_1_VE1000.json,327287,526476,56,Man
35,683997,final-intermixed-textured,v2,jsons/MX_seq10_1_VE1000.json,http://54.235.29.9/FacialAge/BNav_EC2/DepthDuration/MX_fS_VE_MTurk/MX_fS_HTML.html#230,230,1920,919,1920,1080,1-8-2024,16-31-53,36,VR_target_stimuli/s16_0.75x_1_217.png,1000,0.75x,1.0,1,3766,992,meters,jsons/MX_seq10_1_VE1000.json,327287,526476,56,Man
36,683997,final-intermixed-textured,v2,jsons/MX_seq10_1_VE1000.json,http://54.235.29.9/FacialAge/BNav_EC2/DepthDuration/MX_fS_VE_MTurk/MX_fS_HTML.html#230,230,1920,919,1920,1080,1-8-2024,16-31-53,37,VR_target_stimuli/s17_1.3x_1.8_300.png,1000,1.3x,1.8,3,4666,998,meters,jsons/MX_seq10_1_VE1000.json,327287,526476,56,Man
37,683997,final-intermixed-textured,v2,jsons/MX_seq10_1_VE1000.json,http://54.235.29.9/FacialAge/BNav_EC2/DepthDuration/MX_fS_VE_MTurk/MX_fS_HTML.html#230,230,1920,919,1920,1080,1-8-2024,16-31-53,38,VR_target_stimuli/s5_1.3x_4_393_BC.png,1000,1.3x,4.0,6,4327,997,meters,jsons/MX_seq10_1_VE1000.json,327287,526476,56,Man
38,683997,final-intermixed-textured,v2,jsons/MX_seq10_1_VE1000.json,http://54.235.29.9/FacialAge/BNav_EC2/DepthDuration/MX_fS_VE_MTurk/MX_fS_HTML.html#230,230,1920,919,1920,1080,1-8-2024,16-31-53,39,VR_target_stimuli/s37_1x_3.3_563_BC.png,1000,1x,3.3,3,5170,999,meters,jsons/MX_seq10_1_VE1000.json,327287,526476,56,Man
39,683997,final-intermixed-textured,v2,jsons/MX_seq10_1_VE1000.json,http://54.235.29.9/FacialAge/BNav_EC2/DepthDuration/MX_fS_VE_MTurk/MX_fS_HTML.html#230,230,1920,919,1920,1080,1-8-2024,16-31-53,40,VR_target_stimuli/s46_0.75x_2.42_343_BC.png,1000,0.75x,2.42,3,5562,991,meters,jsons/MX_seq10_1_VE1000.json,327287,526476,56,Man
40,683997,final-intermixed-textured,v2,jsons/MX_seq10_1_VE1000.json,http://54.235.29.9/FacialAge/BNav_EC2/DepthDuration/MX_fS_VE_MTurk/MX_fS_HTML.html#230,230,1920,919,1920,1080,1-8-2024,16-31-53,41,VR_target_stimuli/s22_1x_4.29_354_BC.png,1000,1x,4.29,4,4870,1006,meters,jsons/MX_seq10_1_VE1000.json,327287,526476,56,Man
41,683997,final-intermixed-textured,v2,jsons/MX_seq10_1_VE1000.json,http://54.235.29.9/FacialAge/BNav_EC2/DepthDuration/MX_fS_VE_MTurk/MX_fS_HTML.html#230,230,1920,919,1920,1080,1-8-2024,16-31-53,42,VR_target_stimuli/s42_1.3x_3.2_305_BC.png,1000,1.3x,3.2,4,4288,999,meters,jsons/MX_seq10_1_VE1000.json,327287,526476,56,Man
42,683997,final-intermixed-textured,v2,jsons/MX_seq10_1_VE1000.json,http://54.235.29.9/FacialAge/BNav_EC2/DepthDuration/MX_fS_VE_MTurk/MX_fS_HTML.html#230,230,1920,919,1920,1080,1-8-2024,16-31-53,43,VR_target_stimuli/s25_0.75x_1.4_281_BC.png,1000,0.75x,1.4,2,4341,1000,meters,jsons/MX_seq10_1_VE1000.json,327287,526476,56,Man
43,683997,final-intermixed-textured,v2,jsons/MX_seq10_1_VE1000.json,http://54.235.29.9/FacialAge/BNav_EC2/DepthDuration/MX_fS_VE_MTurk/MX_fS_HTML.html#230,230,1920,919,1920,1080,1-8-2024,16-31-53,44,VR_target_stimuli/s50_1.3x_4.53_518.png,1000,1.3x,4.53,4,6122,997,meters,jsons/MX_seq10_1_VE1000.json,327287,526476,56,Man
44,683997,final-intermixed-textured,v2,jsons/MX_seq10_1_VE1000.json,http://54.235.29.9/FacialAge/BNav_EC2/DepthDuration/MX_fS_VE_MTurk/MX_fS_HTML.html#230,230,1920,919,1920,1080,1-8-2024,16-31-53,45,catch_stimuli/c4.png,1000,,,0,4477,990,meters,jsons/MX_seq10_1_VE1000.json,327287,526476,56,Man
45,683997,final-intermixed-textured,v2,jsons/MX_seq10_1_VE1000.json,http://54.235.29.9/FacialAge/BNav_EC2/DepthDuration/MX_fS_VE_MTurk/MX_fS_HTML.html#230,230,1920,919,1920,1080,1-8-2024,16-31-53,46,VR_target_stimuli/s53_1x_1.6_387.png,1000,1x,1.6,1,4120,999,meters,jsons/MX_seq10_1_VE1000.json,327287,526476,56,Man
46,683997,final-intermixed-textured,v2,jsons/MX_seq10_1_VE1000.json,http://54.235.29.9/FacialAge/BNav_EC2/DepthDuration/MX_fS_VE_MTurk/MX_fS_HTML.html#230,230,1920,919,1920,1080,1-8-2024,16-31-53,47,VR_target_stimuli/s38_0.75x_3.55_346.png,1000,0.75x,3.55,4,5391,1001,meters,jsons/MX_seq10_1_VE1000.json,327287,526476,56,Man
47,683997,final-intermixed-textured,v2,jsons/MX_seq10_1_VE1000.json,http://54.235.29.9/FacialAge/BNav_EC2/DepthDuration/MX_fS_VE_MTurk/MX_fS_HTML.html#230,230,1920,919,1920,1080,1-8-2024,16-31-53,48,VR_target_stimuli/s9_0.75x_1.2_260_BC.png,1000,0.75x,1.2,2,3753,999,meters,jsons/MX_seq10_1_VE1000.json,327287,526476,56,Man
48,683997,final-intermixed-textured,v2,jsons/MX_seq10_1_VE1000.json,http://54.235.29.9/FacialAge/BNav_EC2/DepthDuration/MX_fS_VE_MTurk/MX_fS_HTML.html#230,230,1920,919,1920,1080,1-8-2024,16-31-53,49,VR_target_stimuli/s44_1.3x_4.4_325.png,1000,1.3x,4.4,3,5726,1001,meters,jsons/MX_seq10_1_VE1000.json,327287,526476,56,Man
49,683997,final-intermixed-textured,v2,jsons/MX_seq10_1_VE1000.json,http://54.235.29.9/FacialAge/BNav_EC2/DepthDuration/MX_fS_VE_MTurk/MX_fS_HTML.html#230,230,1920,919,1920,1080,1-8-2024,16-31-53,50,VR_target_stimuli/s3_1x_5_385_BC.png,1000,1x,5.0,7,4522,995,meters,jsons/MX_seq10_1_VE1000.json,327287,526476,56,Man
50,683997,final-intermixed-textured,v2,jsons/MX_seq10_1_VE1000.json,http://54.235.29.9/FacialAge/BNav_EC2/DepthDuration/MX_fS_VE_MTurk/MX_fS_HTML.html#230,230,1920,919,1920,1080,1-8-2024,16-31-53,51,VR_target_stimuli/s1_1.3x_1.7_261_BC.png,1000,1.3x,1.7,3,4310,1003,meters,jsons/MX_seq10_1_VE1000.json,327287,526476,56,Man
51,683997,final-intermixed-textured,v2,jsons/MX_seq10_1_VE1000.json,http://54.235.29.9/FacialAge/BNav_EC2/DepthDuration/MX_fS_VE_MTurk/MX_fS_HTML.html#230,230,1920,919,1920,1080,1-8-2024,16-31-53,52,VR_target_stimuli/s11_0.75x_5_359.png,1000,0.75x,5.0,7,4666,1002,meters,jsons/MX_seq10_1_VE1000.json,327287,526476,56,Man
52,683997,final-intermixed-textured,v2,jsons/MX_seq10_1_VE1000.json,http://54.235.29.9/FacialAge/BNav_EC2/DepthDuration/MX_fS_VE_MTurk/MX_fS_HTML.html#230,230,1920,919,1920,1080,1-8-2024,16-31-53,53,catch_stimuli/c5.png,1000,,,0,4031,1007,meters,jsons/MX_seq10_1_VE1000.json,327287,526476,56,Man
53,683997,final-intermixed-textured,v2,jsons/MX_seq10_1_VE1000.json,http://54.235.29.9/FacialAge/BNav_EC2/DepthDuration/MX_fS_VE_MTurk/MX_fS_HTML.html#230,230,1920,919,1920,1080,1-8-2024,16-31-53,54,VR_target_stimuli/s2_1x_2.7_390.png,1000,1x,2.7,2,4364,1005,meters,jsons/MX_seq10_1_VE1000.json,327287,526476,56,Man
54,683997,final-intermixed-textured,v2,jsons/MX_seq10_1_VE1000.json,http://54.235.29.9/FacialAge/BNav_EC2/DepthDuration/MX_fS_VE_MTurk/MX_fS_HTML.html#230,230,1920,919,1920,1080,1-8-2024,16-31-53,55,VR_target_stimuli/s6_0.75x_2.1_290.png,1000,0.75x,2.1,3,4759,1001,meters,jsons/MX_seq10_1_VE1000.json,327287,526476,56,Man
55,683997,final-intermixed-textured,v2,jsons/MX_seq10_1_VE1000.json,http://54.235.29.9/FacialAge/BNav_EC2/DepthDuration/MX_fS_VE_MTurk/MX_fS_HTML.html#230,230,1920,919,1920,1080,1-8-2024,16-31-53,56,VR_target_stimuli/s0_1.3x_2.6_356_BC.png,1000,1.3x,2.6,3,4555,1013,meters,jsons/MX_seq10_1_VE1000.json,327287,526476,56,Man
56,683997,final-intermixed-textured,v2,jsons/MX_seq10_1_VE1000.json,http://54.235.29.9/FacialAge/BNav_EC2/DepthDuration/MX_fS_VE_MTurk/MX_fS_HTML.html#230,230,1920,919,1920,1080,1-8-2024,16-31-53,57,VR_target_stimuli/s34_1x_2.8_283_BC.png,1000,1x,2.8,3,4170,1014,meters,jsons/MX_seq10_1_VE1000.json,327287,526476,56,Man
57,683997,final-intermixed-textured,v2,jsons/MX_seq10_1_VE1000.json,http://54.235.29.9/FacialAge/BNav_EC2/DepthDuration/MX_fS_VE_MTurk/MX_fS_HTML.html#230,230,1920,919,1920,1080,1-8-2024,16-31-53,58,VR_target_stimuli/s13_1x_2.4_310.png,1000,1x,2.4,3,4093,997,meters,jsons/MX_seq10_1_VE1000.json,327287,526476,56,Man
58,683997,final-intermixed-textured,v2,jsons/MX_seq10_1_VE1000.json,http://54.235.29.9/FacialAge/BNav_EC2/DepthDuration/MX_fS_VE_MTurk/MX_fS_HTML.html#230,230,1920,919,1920,1080,1-8-2024,16-31-53,59,VR_target_stimuli/s14_0.75x_3.83_355_BC.png,1000,0.75x,3.83,4,5859,999,meters,jsons/MX_seq10_1_VE1000.json,327287,526476,56,Man
59,683997,final-intermixed-textured,v2,jsons/MX_seq10_1_VE1000.json,http://54.235.29.9/FacialAge/BNav_EC2/DepthDuration/MX_fS_VE_MTurk/MX_fS_HTML.html#230,230,1920,919,1920,1080,1-8-2024,16-31-53,60,VR_target_stimuli/s47_1.3x_3.45_373.png,1000,1.3x,3.45,3,4161,1014,meters,jsons/MX_seq10_1_VE1000.json,327287,526476,56,Man
