,subjID,experimentName,versionName,sequenceName,url,selected_row,windowWidth,windowHeight,screenWidth,screenHeight,startDate,startTime,trial,stimulus,duration,scale,actual_depth,depth_estimate,trial_RT,log_sceneDuration,unitSelection,seq_filepath,experimentTime,totalTime,age,gender
0,688641,final-intermixed-textured,v2,jsons/MX_seq27_0_VE1000_flipped.json,http://54.235.29.9/FacialAge/BNav_EC2/DepthDuration/MX_fS_VE_MTurk/MX_fS_HTML.html#238,238,980,1013,384,832,1-8-2024,14-48-52,1,VR_target_stimuli/s18_0.75x_2.25_341.png,1000,0.75x,2.25,2.0,3952,999,meters,jsons/MX_seq27_0_VE1000_flipped.json,280231,445676,31,Woman
1,688641,final-intermixed-textured,v2,jsons/MX_seq27_0_VE1000_flipped.json,http://54.235.29.9/FacialAge/BNav_EC2/DepthDuration/MX_fS_VE_MTurk/MX_fS_HTML.html#238,238,980,1013,384,832,1-8-2024,14-48-52,2,VR_target_stimuli/s39_1x_1_207_BC.png,1000,1x,1.0,1.0,4097,999,meters,jsons/MX_seq27_0_VE1000_flipped.json,280231,445676,31,Woman
2,688641,final-intermixed-textured,v2,jsons/MX_seq27_0_VE1000_flipped.json,http://54.235.29.9/FacialAge/BNav_EC2/DepthDuration/MX_fS_VE_MTurk/MX_fS_HTML.html#238,238,980,1013,384,832,1-8-2024,14-48-52,3,VR_target_stimuli/s51_1.3x_3.64_479_BC.png,1000,1.3x,3.64,1.5,4804,1001,meters,jsons/MX_seq27_0_VE1000_flipped.json,280231,445676,31,Woman
3,688641,final-intermixed-textured,v2,jsons/MX_seq27_0_VE1000_flipped.json,http://54.235.29.9/FacialAge/BNav_EC2/DepthDuration/MX_fS_VE_MTurk/MX_fS_HTML.html#238,238,980,1013,384,832,1-8-2024,14-48-52,4,VR_target_stimuli/s43_1x_2.2_354.png,1000,1x,2.2,2.0,4132,999,meters,jsons/MX_seq27_0_VE1000_flipped.json,280231,445676,31,Woman
4,688641,final-intermixed-textured,v2,jsons/MX_seq27_0_VE1000_flipped.json,http://54.235.29.9/FacialAge/BNav_EC2/DepthDuration/MX_fS_VE_MTurk/MX_fS_HTML.html#238,238,980,1013,384,832,1-8-2024,14-48-52,5,VR_target_stimuli/s24_0.75x_3.3_344_BC.png,1000,0.75x,3.3,3.0,4012,1000,meters,jsons/MX_seq27_0_VE1000_flipped.json,280231,445676,31,Woman
5,688641,final-intermixed-textured,v2,jsons/MX_seq27_0_VE1000_flipped.json,http://54.235.29.9/FacialAge/BNav_EC2/DepthDuration/MX_fS_VE_MTurk/MX_fS_HTML.html#238,238,980,1013,384,832,1-8-2024,14-48-52,6,VR_target_stimuli/s10_1.3x_2.7_325.png,1000,1.3x,2.7,2.0,4638,998,meters,jsons/MX_seq27_0_VE1000_flipped.json,280231,445676,31,Woman
6,688641,final-intermixed-textured,v2,jsons/MX_seq27_0_VE1000_flipped.json,http://54.235.29.9/FacialAge/BNav_EC2/DepthDuration/MX_fS_VE_MTurk/MX_fS_HTML.html#238,238,980,1013,384,832,1-8-2024,14-48-52,7,catch_stimuli/c0_BC.png,1000,,,0.0,4045,1000,meters,jsons/MX_seq27_0_VE1000_flipped.json,280231,445676,31,Woman
7,688641,final-intermixed-textured,v2,jsons/MX_seq27_0_VE1000_flipped.json,http://54.235.29.9/FacialAge/BNav_EC2/DepthDuration/MX_fS_VE_MTurk/MX_fS_HTML.html#238,238,980,1013,384,832,1-8-2024,14-48-52,8,VR_target_stimuli/s36_1.3x_4.1_442.png,1000,1.3x,4.1,2.0,4104,1001,meters,jsons/MX_seq27_0_VE1000_flipped.json,280231,445676,31,Woman
8,688641,final-intermixed-textured,v2,jsons/MX_seq27_0_VE1000_flipped.json,http://54.235.29.9/FacialAge/BNav_EC2/DepthDuration/MX_fS_VE_MTurk/MX_fS_HTML.html#238,238,980,1013,384,832,1-8-2024,14-48-52,9,VR_target_stimuli/s40_1x_1.2_319_BC.png,1000,1x,1.2,1.0,3843,999,meters,jsons/MX_seq27_0_VE1000_flipped.json,280231,445676,31,Woman
9,688641,final-intermixed-textured,v2,jsons/MX_seq27_0_VE1000_flipped.json,http://54.235.29.9/FacialAge/BNav_EC2/DepthDuration/MX_fS_VE_MTurk/MX_fS_HTML.html#238,238,980,1013,384,832,1-8-2024,14-48-52,10,VR_target_stimuli/s41_0.75x_2.1_281_BC.png,1000,0.75x,2.1,1.0,3828,1000,meters,jsons/MX_seq27_0_VE1000_flipped.json,280231,445676,31,Woman
10,688641,final-intermixed-textured,v2,jsons/MX_seq27_0_VE1000_flipped.json,http://54.235.29.9/FacialAge/BNav_EC2/DepthDuration/MX_fS_VE_MTurk/MX_fS_HTML.html#238,238,980,1013,384,832,1-8-2024,14-48-52,11,VR_target_stimuli/s45_1x_3.5_368.png,1000,1x,3.5,2.5,5584,1000,meters,jsons/MX_seq27_0_VE1000_flipped.json,280231,445676,31,Woman
11,688641,final-intermixed-textured,v2,jsons/MX_seq27_0_VE1000_flipped.json,http://54.235.29.9/FacialAge/BNav_EC2/DepthDuration/MX_fS_VE_MTurk/MX_fS_HTML.html#238,238,980,1013,384,832,1-8-2024,14-48-52,12,VR_target_stimuli/s23_1.3x_3.65_354_BC.png,1000,1.3x,3.65,1.5,4553,1000,meters,jsons/MX_seq27_0_VE1000_flipped.json,280231,445676,31,Woman
12,688641,final-intermixed-textured,v2,jsons/MX_seq27_0_VE1000_flipped.json,http://54.235.29.9/FacialAge/BNav_EC2/DepthDuration/MX_fS_VE_MTurk/MX_fS_HTML.html#238,238,980,1013,384,832,1-8-2024,14-48-52,13,VR_target_stimuli/s26_0.75x_4_430.png,1000,0.75x,4.0,3.0,3982,997,meters,jsons/MX_seq27_0_VE1000_flipped.json,280231,445676,31,Woman
13,688641,final-intermixed-textured,v2,jsons/MX_seq27_0_VE1000_flipped.json,http://54.235.29.9/FacialAge/BNav_EC2/DepthDuration/MX_fS_VE_MTurk/MX_fS_HTML.html#238,238,980,1013,384,832,1-8-2024,14-48-52,14,VR_target_stimuli/s12_1.3x_3.1_375.png,1000,1.3x,3.1,2.0,3873,1000,meters,jsons/MX_seq27_0_VE1000_flipped.json,280231,445676,31,Woman
14,688641,final-intermixed-textured,v2,jsons/MX_seq27_0_VE1000_flipped.json,http://54.235.29.9/FacialAge/BNav_EC2/DepthDuration/MX_fS_VE_MTurk/MX_fS_HTML.html#238,238,980,1013,384,832,1-8-2024,14-48-52,15,VR_target_stimuli/s30_1x_2.3_334.png,1000,1x,2.3,2.0,3897,1000,meters,jsons/MX_seq27_0_VE1000_flipped.json,280231,445676,31,Woman
15,688641,final-intermixed-textured,v2,jsons/MX_seq27_0_VE1000_flipped.json,http://54.235.29.9/FacialAge/BNav_EC2/DepthDuration/MX_fS_VE_MTurk/MX_fS_HTML.html#238,238,980,1013,384,832,1-8-2024,14-48-52,16,VR_target_stimuli/s16_0.75x_1_217.png,1000,0.75x,1.0,1.0,3891,997,meters,jsons/MX_seq27_0_VE1000_flipped.json,280231,445676,31,Woman
16,688641,final-intermixed-textured,v2,jsons/MX_seq27_0_VE1000_flipped.json,http://54.235.29.9/FacialAge/BNav_EC2/DepthDuration/MX_fS_VE_MTurk/MX_fS_HTML.html#238,238,980,1013,384,832,1-8-2024,14-48-52,17,catch_stimuli/c1_BC.png,1000,,,0.0,3733,1000,meters,jsons/MX_seq27_0_VE1000_flipped.json,280231,445676,31,Woman
17,688641,final-intermixed-textured,v2,jsons/MX_seq27_0_VE1000_flipped.json,http://54.235.29.9/FacialAge/BNav_EC2/DepthDuration/MX_fS_VE_MTurk/MX_fS_HTML.html#238,238,980,1013,384,832,1-8-2024,14-48-52,18,VR_target_stimuli/s17_0.75x_1.8_285_BC.png,1000,0.75x,1.8,2.0,3813,999,meters,jsons/MX_seq27_0_VE1000_flipped.json,280231,445676,31,Woman
18,688641,final-intermixed-textured,v2,jsons/MX_seq27_0_VE1000_flipped.json,http://54.235.29.9/FacialAge/BNav_EC2/DepthDuration/MX_fS_VE_MTurk/MX_fS_HTML.html#238,238,980,1013,384,832,1-8-2024,14-48-52,19,VR_target_stimuli/s5_1.3x_4_393_BC.png,1000,1.3x,4.0,4.0,3815,1000,meters,jsons/MX_seq27_0_VE1000_flipped.json,280231,445676,31,Woman
19,688641,final-intermixed-textured,v2,jsons/MX_seq27_0_VE1000_flipped.json,http://54.235.29.9/FacialAge/BNav_EC2/DepthDuration/MX_fS_VE_MTurk/MX_fS_HTML.html#238,238,980,1013,384,832,1-8-2024,14-48-52,20,VR_target_stimuli/s37_1x_3.3_563_BC.png,1000,1x,3.3,3.0,3964,999,meters,jsons/MX_seq27_0_VE1000_flipped.json,280231,445676,31,Woman
20,688641,final-intermixed-textured,v2,jsons/MX_seq27_0_VE1000_flipped.json,http://54.235.29.9/FacialAge/BNav_EC2/DepthDuration/MX_fS_VE_MTurk/MX_fS_HTML.html#238,238,980,1013,384,832,1-8-2024,14-48-52,21,VR_target_stimuli/s46_1.3x_2.42_354_BC.png,1000,1.3x,2.42,3.0,3826,1000,meters,jsons/MX_seq27_0_VE1000_flipped.json,280231,445676,31,Woman
21,688641,final-intermixed-textured,v2,jsons/MX_seq27_0_VE1000_flipped.json,http://54.235.29.9/FacialAge/BNav_EC2/DepthDuration/MX_fS_VE_MTurk/MX_fS_HTML.html#238,238,980,1013,384,832,1-8-2024,14-48-52,22,VR_target_stimuli/s22_0.75x_4.29_348_BC.png,1000,0.75x,4.29,4.5,5189,1000,meters,jsons/MX_seq27_0_VE1000_flipped.json,280231,445676,31,Woman
22,688641,final-intermixed-textured,v2,jsons/MX_seq27_0_VE1000_flipped.json,http://54.235.29.9/FacialAge/BNav_EC2/DepthDuration/MX_fS_VE_MTurk/MX_fS_HTML.html#238,238,980,1013,384,832,1-8-2024,14-48-52,23,VR_target_stimuli/s42_1x_3.2_303_BC.png,1000,1x,3.2,2.0,4557,1000,meters,jsons/MX_seq27_0_VE1000_flipped.json,280231,445676,31,Woman
23,688641,final-intermixed-textured,v2,jsons/MX_seq27_0_VE1000_flipped.json,http://54.235.29.9/FacialAge/BNav_EC2/DepthDuration/MX_fS_VE_MTurk/MX_fS_HTML.html#238,238,980,1013,384,832,1-8-2024,14-48-52,24,VR_target_stimuli/s25_0.75x_1.4_281.png,1000,0.75x,1.4,1.0,3833,1000,meters,jsons/MX_seq27_0_VE1000_flipped.json,280231,445676,31,Woman
24,688641,final-intermixed-textured,v2,jsons/MX_seq27_0_VE1000_flipped.json,http://54.235.29.9/FacialAge/BNav_EC2/DepthDuration/MX_fS_VE_MTurk/MX_fS_HTML.html#238,238,980,1013,384,832,1-8-2024,14-48-52,25,VR_target_stimuli/s50_1.3x_4.53_518.png,1000,1.3x,4.53,0.0,3719,1000,meters,jsons/MX_seq27_0_VE1000_flipped.json,280231,445676,31,Woman
25,688641,final-intermixed-textured,v2,jsons/MX_seq27_0_VE1000_flipped.json,http://54.235.29.9/FacialAge/BNav_EC2/DepthDuration/MX_fS_VE_MTurk/MX_fS_HTML.html#238,238,980,1013,384,832,1-8-2024,14-48-52,26,catch_stimuli/c2_BC.png,1000,,,0.0,3721,1000,meters,jsons/MX_seq27_0_VE1000_flipped.json,280231,445676,31,Woman
26,688641,final-intermixed-textured,v2,jsons/MX_seq27_0_VE1000_flipped.json,http://54.235.29.9/FacialAge/BNav_EC2/DepthDuration/MX_fS_VE_MTurk/MX_fS_HTML.html#238,238,980,1013,384,832,1-8-2024,14-48-52,27,VR_target_stimuli/s53_1x_1.6_387.png,1000,1x,1.6,1.0,4234,1000,meters,jsons/MX_seq27_0_VE1000_flipped.json,280231,445676,31,Woman
27,688641,final-intermixed-textured,v2,jsons/MX_seq27_0_VE1000_flipped.json,http://54.235.29.9/FacialAge/BNav_EC2/DepthDuration/MX_fS_VE_MTurk/MX_fS_HTML.html#238,238,980,1013,384,832,1-8-2024,14-48-52,28,VR_target_stimuli/s38_1x_3.55_353.png,1000,1x,3.55,3.5,4713,999,meters,jsons/MX_seq27_0_VE1000_flipped.json,280231,445676,31,Woman
28,688641,final-intermixed-textured,v2,jsons/MX_seq27_0_VE1000_flipped.json,http://54.235.29.9/FacialAge/BNav_EC2/DepthDuration/MX_fS_VE_MTurk/MX_fS_HTML.html#238,238,980,1013,384,832,1-8-2024,14-48-52,29,VR_target_stimuli/s9_0.75x_1.2_260.png,1000,0.75x,1.2,0.5,7427,999,meters,jsons/MX_seq27_0_VE1000_flipped.json,280231,445676,31,Woman
29,688641,final-intermixed-textured,v2,jsons/MX_seq27_0_VE1000_flipped.json,http://54.235.29.9/FacialAge/BNav_EC2/DepthDuration/MX_fS_VE_MTurk/MX_fS_HTML.html#238,238,980,1013,384,832,1-8-2024,14-48-52,30,VR_target_stimuli/s44_1.3x_4.4_325_BC.png,1000,1.3x,4.4,4.0,3953,999,meters,jsons/MX_seq27_0_VE1000_flipped.json,280231,445676,31,Woman
30,688641,final-intermixed-textured,v2,jsons/MX_seq27_0_VE1000_flipped.json,http://54.235.29.9/FacialAge/BNav_EC2/DepthDuration/MX_fS_VE_MTurk/MX_fS_HTML.html#238,238,980,1013,384,832,1-8-2024,14-48-52,31,VR_target_stimuli/s3_1x_5_385_BC.png,1000,1x,5.0,4.0,4003,1000,meters,jsons/MX_seq27_0_VE1000_flipped.json,280231,445676,31,Woman
31,688641,final-intermixed-textured,v2,jsons/MX_seq27_0_VE1000_flipped.json,http://54.235.29.9/FacialAge/BNav_EC2/DepthDuration/MX_fS_VE_MTurk/MX_fS_HTML.html#238,238,980,1013,384,832,1-8-2024,14-48-52,32,VR_target_stimuli/s1_1.3x_1.7_261.png,1000,1.3x,1.7,1.5,4371,1000,meters,jsons/MX_seq27_0_VE1000_flipped.json,280231,445676,31,Woman
32,688641,final-intermixed-textured,v2,jsons/MX_seq27_0_VE1000_flipped.json,http://54.235.29.9/FacialAge/BNav_EC2/DepthDuration/MX_fS_VE_MTurk/MX_fS_HTML.html#238,238,980,1013,384,832,1-8-2024,14-48-52,33,VR_target_stimuli/s11_0.75x_5_359_BC.png,1000,0.75x,5.0,5.0,4020,1000,meters,jsons/MX_seq27_0_VE1000_flipped.json,280231,445676,31,Woman
33,688641,final-intermixed-textured,v2,jsons/MX_seq27_0_VE1000_flipped.json,http://54.235.29.9/FacialAge/BNav_EC2/DepthDuration/MX_fS_VE_MTurk/MX_fS_HTML.html#238,238,980,1013,384,832,1-8-2024,14-48-52,34,catch_stimuli/c3_BC.png,1000,,,0.0,3852,999,meters,jsons/MX_seq27_0_VE1000_flipped.json,280231,445676,31,Woman
34,688641,final-intermixed-textured,v2,jsons/MX_seq27_0_VE1000_flipped.json,http://54.235.29.9/FacialAge/BNav_EC2/DepthDuration/MX_fS_VE_MTurk/MX_fS_HTML.html#238,238,980,1013,384,832,1-8-2024,14-48-52,35,VR_target_stimuli/s2_1.3x_2.7_397_BC.png,1000,1.3x,2.7,2.0,4510,996,meters,jsons/MX_seq27_0_VE1000_flipped.json,280231,445676,31,Woman
35,688641,final-intermixed-textured,v2,jsons/MX_seq27_0_VE1000_flipped.json,http://54.235.29.9/FacialAge/BNav_EC2/DepthDuration/MX_fS_VE_MTurk/MX_fS_HTML.html#238,238,980,1013,384,832,1-8-2024,14-48-52,36,VR_target_stimuli/s6_1x_2.1_293_BC.png,1000,1x,2.1,2.0,3744,999,meters,jsons/MX_seq27_0_VE1000_flipped.json,280231,445676,31,Woman
36,688641,final-intermixed-textured,v2,jsons/MX_seq27_0_VE1000_flipped.json,http://54.235.29.9/FacialAge/BNav_EC2/DepthDuration/MX_fS_VE_MTurk/MX_fS_HTML.html#238,238,980,1013,384,832,1-8-2024,14-48-52,37,VR_target_stimuli/s0_0.75x_2.6_345.png,1000,0.75x,2.6,2.5,4323,1000,meters,jsons/MX_seq27_0_VE1000_flipped.json,280231,445676,31,Woman
37,688641,final-intermixed-textured,v2,jsons/MX_seq27_0_VE1000_flipped.json,http://54.235.29.9/FacialAge/BNav_EC2/DepthDuration/MX_fS_VE_MTurk/MX_fS_HTML.html#238,238,980,1013,384,832,1-8-2024,14-48-52,38,VR_target_stimuli/s34_0.75x_2.8_269_BC.png,1000,0.75x,2.8,3.0,3861,999,meters,jsons/MX_seq27_0_VE1000_flipped.json,280231,445676,31,Woman
38,688641,final-intermixed-textured,v2,jsons/MX_seq27_0_VE1000_flipped.json,http://54.235.29.9/FacialAge/BNav_EC2/DepthDuration/MX_fS_VE_MTurk/MX_fS_HTML.html#238,238,980,1013,384,832,1-8-2024,14-48-52,39,VR_target_stimuli/s13_1.3x_2.4_313.png,1000,1.3x,2.4,2.5,4295,999,meters,jsons/MX_seq27_0_VE1000_flipped.json,280231,445676,31,Woman
39,688641,final-intermixed-textured,v2,jsons/MX_seq27_0_VE1000_flipped.json,http://54.235.29.9/FacialAge/BNav_EC2/DepthDuration/MX_fS_VE_MTurk/MX_fS_HTML.html#238,238,980,1013,384,832,1-8-2024,14-48-52,40,VR_target_stimuli/s14_1x_ 3.83_357.png,1000,1x,3.83,3.5,4186,1001,meters,jsons/MX_seq27_0_VE1000_flipped.json,280231,445676,31,Woman
40,688641,final-intermixed-textured,v2,jsons/MX_seq27_0_VE1000_flipped.json,http://54.235.29.9/FacialAge/BNav_EC2/DepthDuration/MX_fS_VE_MTurk/MX_fS_HTML.html#238,238,980,1013,384,832,1-8-2024,14-48-52,41,VR_target_stimuli/s47_1.3x_3.45_373_BC.png,1000,1.3x,3.45,2.5,4098,1000,meters,jsons/MX_seq27_0_VE1000_flipped.json,280231,445676,31,Woman
41,688641,final-intermixed-textured,v2,jsons/MX_seq27_0_VE1000_flipped.json,http://54.235.29.9/FacialAge/BNav_EC2/DepthDuration/MX_fS_VE_MTurk/MX_fS_HTML.html#238,238,980,1013,384,832,1-8-2024,14-48-52,42,VR_target_stimuli/s29_0.75x_1.3_246_BC.png,1000,0.75x,1.3,2.0,3706,1001,meters,jsons/MX_seq27_0_VE1000_flipped.json,280231,445676,31,Woman
42,688641,final-intermixed-textured,v2,jsons/MX_seq27_0_VE1000_flipped.json,http://54.235.29.9/FacialAge/BNav_EC2/DepthDuration/MX_fS_VE_MTurk/MX_fS_HTML.html#238,238,980,1013,384,832,1-8-2024,14-48-52,43,VR_target_stimuli/s28_1x_3.2_362_BC.png,1000,1x,3.2,1.0,4100,997,meters,jsons/MX_seq27_0_VE1000_flipped.json,280231,445676,31,Woman
43,688641,final-intermixed-textured,v2,jsons/MX_seq27_0_VE1000_flipped.json,http://54.235.29.9/FacialAge/BNav_EC2/DepthDuration/MX_fS_VE_MTurk/MX_fS_HTML.html#238,238,980,1013,384,832,1-8-2024,14-48-52,44,VR_target_stimuli/s48_0.75x_2.55_243.png,1000,0.75x,2.55,4.0,3998,1000,meters,jsons/MX_seq27_0_VE1000_flipped.json,280231,445676,31,Woman
44,688641,final-intermixed-textured,v2,jsons/MX_seq27_0_VE1000_flipped.json,http://54.235.29.9/FacialAge/BNav_EC2/DepthDuration/MX_fS_VE_MTurk/MX_fS_HTML.html#238,238,980,1013,384,832,1-8-2024,14-48-52,45,catch_stimuli/c4_BC.png,1000,,,0.0,3718,1001,meters,jsons/MX_seq27_0_VE1000_flipped.json,280231,445676,31,Woman
45,688641,final-intermixed-textured,v2,jsons/MX_seq27_0_VE1000_flipped.json,http://54.235.29.9/FacialAge/BNav_EC2/DepthDuration/MX_fS_VE_MTurk/MX_fS_HTML.html#238,238,980,1013,384,832,1-8-2024,14-48-52,46,VR_target_stimuli/s19_1.3x_1.21_270.png,1000,1.3x,1.21,1.0,3761,999,meters,jsons/MX_seq27_0_VE1000_flipped.json,280231,445676,31,Woman
46,688641,final-intermixed-textured,v2,jsons/MX_seq27_0_VE1000_flipped.json,http://54.235.29.9/FacialAge/BNav_EC2/DepthDuration/MX_fS_VE_MTurk/MX_fS_HTML.html#238,238,980,1013,384,832,1-8-2024,14-48-52,47,VR_target_stimuli/s21_1x_4.22_379.png,1000,1x,4.22,5.0,3979,999,meters,jsons/MX_seq27_0_VE1000_flipped.json,280231,445676,31,Woman
47,688641,final-intermixed-textured,v2,jsons/MX_seq27_0_VE1000_flipped.json,http://54.235.29.9/FacialAge/BNav_EC2/DepthDuration/MX_fS_VE_MTurk/MX_fS_HTML.html#238,238,980,1013,384,832,1-8-2024,14-48-52,48,VR_target_stimuli/s8_1x_3.1_332_BC.png,1000,1x,3.1,3.0,4819,1000,meters,jsons/MX_seq27_0_VE1000_flipped.json,280231,445676,31,Woman
48,688641,final-intermixed-textured,v2,jsons/MX_seq27_0_VE1000_flipped.json,http://54.235.29.9/FacialAge/BNav_EC2/DepthDuration/MX_fS_VE_MTurk/MX_fS_HTML.html#238,238,980,1013,384,832,1-8-2024,14-48-52,49,VR_target_stimuli/s27_0.75x_1.76_243_BC.png,1000,0.75x,1.76,3.0,4474,1000,meters,jsons/MX_seq27_0_VE1000_flipped.json,280231,445676,31,Woman
49,688641,final-intermixed-textured,v2,jsons/MX_seq27_0_VE1000_flipped.json,http://54.235.29.9/FacialAge/BNav_EC2/DepthDuration/MX_fS_VE_MTurk/MX_fS_HTML.html#238,238,980,1013,384,832,1-8-2024,14-48-52,50,VR_target_stimuli/s15_1.3x_4.2_389_BC.png,1000,1.3x,4.2,4.0,3977,1000,meters,jsons/MX_seq27_0_VE1000_flipped.json,280231,445676,31,Woman
50,688641,final-intermixed-textured,v2,jsons/MX_seq27_0_VE1000_flipped.json,http://54.235.29.9/FacialAge/BNav_EC2/DepthDuration/MX_fS_VE_MTurk/MX_fS_HTML.html#238,238,980,1013,384,832,1-8-2024,14-48-52,51,VR_target_stimuli/s4_0.75x_1.4_301.png,1000,0.75x,1.4,2.0,3875,1001,meters,jsons/MX_seq27_0_VE1000_flipped.json,280231,445676,31,Woman
51,688641,final-intermixed-textured,v2,jsons/MX_seq27_0_VE1000_flipped.json,http://54.235.29.9/FacialAge/BNav_EC2/DepthDuration/MX_fS_VE_MTurk/MX_fS_HTML.html#238,238,980,1013,384,832,1-8-2024,14-48-52,52,VR_target_stimuli/s35_1x_2_331.png,1000,1x,2.0,1.5,4304,1000,meters,jsons/MX_seq27_0_VE1000_flipped.json,280231,445676,31,Woman
52,688641,final-intermixed-textured,v2,jsons/MX_seq27_0_VE1000_flipped.json,http://54.235.29.9/FacialAge/BNav_EC2/DepthDuration/MX_fS_VE_MTurk/MX_fS_HTML.html#238,238,980,1013,384,832,1-8-2024,14-48-52,53,catch_stimuli/c5_BC.png,1000,,,0.0,3488,999,meters,jsons/MX_seq27_0_VE1000_flipped.json,280231,445676,31,Woman
53,688641,final-intermixed-textured,v2,jsons/MX_seq27_0_VE1000_flipped.json,http://54.235.29.9/FacialAge/BNav_EC2/DepthDuration/MX_fS_VE_MTurk/MX_fS_HTML.html#238,238,980,1013,384,832,1-8-2024,14-48-52,54,VR_target_stimuli/s49_1.3x_4.67_354.png,1000,1.3x,4.67,5.0,4755,998,meters,jsons/MX_seq27_0_VE1000_flipped.json,280231,445676,31,Woman
54,688641,final-intermixed-textured,v2,jsons/MX_seq27_0_VE1000_flipped.json,http://54.235.29.9/FacialAge/BNav_EC2/DepthDuration/MX_fS_VE_MTurk/MX_fS_HTML.html#238,238,980,1013,384,832,1-8-2024,14-48-52,55,VR_target_stimuli/s7_1x_1.5_255.png,1000,1x,1.5,3.0,3855,998,meters,jsons/MX_seq27_0_VE1000_flipped.json,280231,445676,31,Woman
55,688641,final-intermixed-textured,v2,jsons/MX_seq27_0_VE1000_flipped.json,http://54.235.29.9/FacialAge/BNav_EC2/DepthDuration/MX_fS_VE_MTurk/MX_fS_HTML.html#238,238,980,1013,384,832,1-8-2024,14-48-52,56,VR_target_stimuli/s20_0.75x_4.99_390.png,1000,0.75x,4.99,4.0,3818,999,meters,jsons/MX_seq27_0_VE1000_flipped.json,280231,445676,31,Woman
56,688641,final-intermixed-textured,v2,jsons/MX_seq27_0_VE1000_flipped.json,http://54.235.29.9/FacialAge/BNav_EC2/DepthDuration/MX_fS_VE_MTurk/MX_fS_HTML.html#238,238,980,1013,384,832,1-8-2024,14-48-52,57,VR_target_stimuli/s31_1.3x_4.96_342_BC.png,1000,1.3x,4.96,5.0,3978,998,meters,jsons/MX_seq27_0_VE1000_flipped.json,280231,445676,31,Woman
57,688641,final-intermixed-textured,v2,jsons/MX_seq27_0_VE1000_flipped.json,http://54.235.29.9/FacialAge/BNav_EC2/DepthDuration/MX_fS_VE_MTurk/MX_fS_HTML.html#238,238,980,1013,384,832,1-8-2024,14-48-52,58,VR_target_stimuli/s33_1.3x_3.1_378.png,1000,1.3x,3.1,3.0,3744,1001,meters,jsons/MX_seq27_0_VE1000_flipped.json,280231,445676,31,Woman
58,688641,final-intermixed-textured,v2,jsons/MX_seq27_0_VE1000_flipped.json,http://54.235.29.9/FacialAge/BNav_EC2/DepthDuration/MX_fS_VE_MTurk/MX_fS_HTML.html#238,238,980,1013,384,832,1-8-2024,14-48-52,59,VR_target_stimuli/s52_1x_3.2_275_BC.png,1000,1x,3.2,3.0,4037,999,meters,jsons/MX_seq27_0_VE1000_flipped.json,280231,445676,31,Woman
59,688641,final-intermixed-textured,v2,jsons/MX_seq27_0_VE1000_flipped.json,http://54.235.29.9/FacialAge/BNav_EC2/DepthDuration/MX_fS_VE_MTurk/MX_fS_HTML.html#238,238,980,1013,384,832,1-8-2024,14-48-52,60,VR_target_stimuli/s32_0.75x_1.5_213_BC.png,1000,0.75x,1.5,2.5,4765,1001,meters,jsons/MX_seq27_0_VE1000_flipped.json,280231,445676,31,Woman
