,subjID,experimentName,versionName,sequenceName,url,selected_row,windowWidth,windowHeight,screenWidth,screenHeight,startDate,startTime,trial,stimulus,duration,scale,actual_depth,depth_estimate,trial_RT,log_sceneDuration,unitSelection,seq_filepath,experimentTime,totalTime,age,gender
0,701559,final-intermixed-textured,v2,jsons/MX_seq12_1_VE1000.json,http://54.235.29.9/FacialAge/BNav_EC2/DepthDuration/MX_fS_VE_MTurk/MX_fS_HTML.html#140,140,1366,768,1366,768,1-8-2024,15-0-40,1,VR_target_stimuli/s48_1.3x_2.55_255.png,1000,1.3x,2.55,0.0,6958,994,meters,jsons/MX_seq12_1_VE1000.json,461470,1150344,30,Man
1,701559,final-intermixed-textured,v2,jsons/MX_seq12_1_VE1000.json,http://54.235.29.9/FacialAge/BNav_EC2/DepthDuration/MX_fS_VE_MTurk/MX_fS_HTML.html#140,140,1366,768,1366,768,1-8-2024,15-0-40,2,VR_target_stimuli/s19_0.75x_1.21_257.png,1000,0.75x,1.21,0.0,7455,1010,meters,jsons/MX_seq12_1_VE1000.json,461470,1150344,30,Man
2,701559,final-intermixed-textured,v2,jsons/MX_seq12_1_VE1000.json,http://54.235.29.9/FacialAge/BNav_EC2/DepthDuration/MX_fS_VE_MTurk/MX_fS_HTML.html#140,140,1366,768,1366,768,1-8-2024,15-0-40,3,VR_target_stimuli/s21_1x_4.22_379_BC.png,1000,1x,4.22,0.0,6276,990,meters,jsons/MX_seq12_1_VE1000.json,461470,1150344,30,Man
3,701559,final-intermixed-textured,v2,jsons/MX_seq12_1_VE1000.json,http://54.235.29.9/FacialAge/BNav_EC2/DepthDuration/MX_fS_VE_MTurk/MX_fS_HTML.html#140,140,1366,768,1366,768,1-8-2024,15-0-40,4,VR_target_stimuli/s8_0.75x_3.1_325_BC.png,1000,0.75x,3.1,0.0,7424,1002,meters,jsons/MX_seq12_1_VE1000.json,461470,1150344,30,Man
4,701559,final-intermixed-textured,v2,jsons/MX_seq12_1_VE1000.json,http://54.235.29.9/FacialAge/BNav_EC2/DepthDuration/MX_fS_VE_MTurk/MX_fS_HTML.html#140,140,1366,768,1366,768,1-8-2024,15-0-40,5,VR_target_stimuli/s27_1.3x_1.76_250_BC.png,1000,1.3x,1.76,0.0,6323,990,meters,jsons/MX_seq12_1_VE1000.json,461470,1150344,30,Man
5,701559,final-intermixed-textured,v2,jsons/MX_seq12_1_VE1000.json,http://54.235.29.9/FacialAge/BNav_EC2/DepthDuration/MX_fS_VE_MTurk/MX_fS_HTML.html#140,140,1366,768,1366,768,1-8-2024,15-0-40,6,VR_target_stimuli/s15_1x_4.2_390.png,1000,1x,4.2,1.0,33870,986,meters,jsons/MX_seq12_1_VE1000.json,461470,1150344,30,Man
6,701559,final-intermixed-textured,v2,jsons/MX_seq12_1_VE1000.json,http://54.235.29.9/FacialAge/BNav_EC2/DepthDuration/MX_fS_VE_MTurk/MX_fS_HTML.html#140,140,1366,768,1366,768,1-8-2024,15-0-40,7,catch_stimuli/c0.png,1000,,,0.0,6133,997,meters,jsons/MX_seq12_1_VE1000.json,461470,1150344,30,Man
7,701559,final-intermixed-textured,v2,jsons/MX_seq12_1_VE1000.json,http://54.235.29.9/FacialAge/BNav_EC2/DepthDuration/MX_fS_VE_MTurk/MX_fS_HTML.html#140,140,1366,768,1366,768,1-8-2024,15-0-40,8,VR_target_stimuli/s4_1x_1.4_313.png,1000,1x,1.4,0.0,6765,1006,meters,jsons/MX_seq12_1_VE1000.json,461470,1150344,30,Man
8,701559,final-intermixed-textured,v2,jsons/MX_seq12_1_VE1000.json,http://54.235.29.9/FacialAge/BNav_EC2/DepthDuration/MX_fS_VE_MTurk/MX_fS_HTML.html#140,140,1366,768,1366,768,1-8-2024,15-0-40,9,VR_target_stimuli/s35_0.75x_2_323.png,1000,0.75x,2.0,0.0,8155,993,meters,jsons/MX_seq12_1_VE1000.json,461470,1150344,30,Man
9,701559,final-intermixed-textured,v2,jsons/MX_seq12_1_VE1000.json,http://54.235.29.9/FacialAge/BNav_EC2/DepthDuration/MX_fS_VE_MTurk/MX_fS_HTML.html#140,140,1366,768,1366,768,1-8-2024,15-0-40,10,VR_target_stimuli/s49_1.3x_4.67_354_BC.png,1000,1.3x,4.67,0.0,6231,990,meters,jsons/MX_seq12_1_VE1000.json,461470,1150344,30,Man
10,701559,final-intermixed-textured,v2,jsons/MX_seq12_1_VE1000.json,http://54.235.29.9/FacialAge/BNav_EC2/DepthDuration/MX_fS_VE_MTurk/MX_fS_HTML.html#140,140,1366,768,1366,768,1-8-2024,15-0-40,11,VR_target_stimuli/s7_0.75x_1.5_253_BC.png,1000,0.75x,1.5,0.0,6601,1008,meters,jsons/MX_seq12_1_VE1000.json,461470,1150344,30,Man
11,701559,final-intermixed-textured,v2,jsons/MX_seq12_1_VE1000.json,http://54.235.29.9/FacialAge/BNav_EC2/DepthDuration/MX_fS_VE_MTurk/MX_fS_HTML.html#140,140,1366,768,1366,768,1-8-2024,15-0-40,12,VR_target_stimuli/s20_1x_4.99_398_BC.png,1000,1x,4.99,0.0,6158,998,meters,jsons/MX_seq12_1_VE1000.json,461470,1150344,30,Man
12,701559,final-intermixed-textured,v2,jsons/MX_seq12_1_VE1000.json,http://54.235.29.9/FacialAge/BNav_EC2/DepthDuration/MX_fS_VE_MTurk/MX_fS_HTML.html#140,140,1366,768,1366,768,1-8-2024,15-0-40,13,VR_target_stimuli/s31_1.3x_4.96_342.png,1000,1.3x,4.96,0.0,5851,1003,meters,jsons/MX_seq12_1_VE1000.json,461470,1150344,30,Man
13,701559,final-intermixed-textured,v2,jsons/MX_seq12_1_VE1000.json,http://54.235.29.9/FacialAge/BNav_EC2/DepthDuration/MX_fS_VE_MTurk/MX_fS_HTML.html#140,140,1366,768,1366,768,1-8-2024,15-0-40,14,VR_target_stimuli/s33_1x_3.1_366.png,1000,1x,3.1,0.0,5879,990,meters,jsons/MX_seq12_1_VE1000.json,461470,1150344,30,Man
14,701559,final-intermixed-textured,v2,jsons/MX_seq12_1_VE1000.json,http://54.235.29.9/FacialAge/BNav_EC2/DepthDuration/MX_fS_VE_MTurk/MX_fS_HTML.html#140,140,1366,768,1366,768,1-8-2024,15-0-40,15,VR_target_stimuli/s52_0.75x_3.2_270_BC.png,1000,0.75x,3.2,0.0,6552,1005,meters,jsons/MX_seq12_1_VE1000.json,461470,1150344,30,Man
15,701559,final-intermixed-textured,v2,jsons/MX_seq12_1_VE1000.json,http://54.235.29.9/FacialAge/BNav_EC2/DepthDuration/MX_fS_VE_MTurk/MX_fS_HTML.html#140,140,1366,768,1366,768,1-8-2024,15-0-40,16,VR_target_stimuli/s32_1.3x_1.5_224.png,1000,1.3x,1.5,0.0,5614,998,meters,jsons/MX_seq12_1_VE1000.json,461470,1150344,30,Man
16,701559,final-intermixed-textured,v2,jsons/MX_seq12_1_VE1000.json,http://54.235.29.9/FacialAge/BNav_EC2/DepthDuration/MX_fS_VE_MTurk/MX_fS_HTML.html#140,140,1366,768,1366,768,1-8-2024,15-0-40,17,catch_stimuli/c1.png,1000,,,0.0,9665,1000,meters,jsons/MX_seq12_1_VE1000.json,461470,1150344,30,Man
17,701559,final-intermixed-textured,v2,jsons/MX_seq12_1_VE1000.json,http://54.235.29.9/FacialAge/BNav_EC2/DepthDuration/MX_fS_VE_MTurk/MX_fS_HTML.html#140,140,1366,768,1366,768,1-8-2024,15-0-40,18,VR_target_stimuli/s18_1.3x_2.25_368_BC.png,1000,1.3x,2.25,0.0,6004,993,meters,jsons/MX_seq12_1_VE1000.json,461470,1150344,30,Man
18,701559,final-intermixed-textured,v2,jsons/MX_seq12_1_VE1000.json,http://54.235.29.9/FacialAge/BNav_EC2/DepthDuration/MX_fS_VE_MTurk/MX_fS_HTML.html#140,140,1366,768,1366,768,1-8-2024,15-0-40,19,VR_target_stimuli/s39_1x_1_207_BC.png,1000,1x,1.0,0.0,5628,1008,meters,jsons/MX_seq12_1_VE1000.json,461470,1150344,30,Man
19,701559,final-intermixed-textured,v2,jsons/MX_seq12_1_VE1000.json,http://54.235.29.9/FacialAge/BNav_EC2/DepthDuration/MX_fS_VE_MTurk/MX_fS_HTML.html#140,140,1366,768,1366,768,1-8-2024,15-0-40,20,VR_target_stimuli/s51_0.75x_3.64_460.png,1000,0.75x,3.64,0.0,5582,1005,meters,jsons/MX_seq12_1_VE1000.json,461470,1150344,30,Man
20,701559,final-intermixed-textured,v2,jsons/MX_seq12_1_VE1000.json,http://54.235.29.9/FacialAge/BNav_EC2/DepthDuration/MX_fS_VE_MTurk/MX_fS_HTML.html#140,140,1366,768,1366,768,1-8-2024,15-0-40,21,VR_target_stimuli/s43_1x_2.2_354.png,1000,1x,2.2,0.0,5595,1001,meters,jsons/MX_seq12_1_VE1000.json,461470,1150344,30,Man
21,701559,final-intermixed-textured,v2,jsons/MX_seq12_1_VE1000.json,http://54.235.29.9/FacialAge/BNav_EC2/DepthDuration/MX_fS_VE_MTurk/MX_fS_HTML.html#140,140,1366,768,1366,768,1-8-2024,15-0-40,22,VR_target_stimuli/s24_1.3x_3.3_352_BC.png,1000,1.3x,3.3,0.0,5866,989,meters,jsons/MX_seq12_1_VE1000.json,461470,1150344,30,Man
22,701559,final-intermixed-textured,v2,jsons/MX_seq12_1_VE1000.json,http://54.235.29.9/FacialAge/BNav_EC2/DepthDuration/MX_fS_VE_MTurk/MX_fS_HTML.html#140,140,1366,768,1366,768,1-8-2024,15-0-40,23,VR_target_stimuli/s10_0.75x_2.7_321.png,1000,0.75x,2.7,0.0,5302,1002,meters,jsons/MX_seq12_1_VE1000.json,461470,1150344,30,Man
23,701559,final-intermixed-textured,v2,jsons/MX_seq12_1_VE1000.json,http://54.235.29.9/FacialAge/BNav_EC2/DepthDuration/MX_fS_VE_MTurk/MX_fS_HTML.html#140,140,1366,768,1366,768,1-8-2024,15-0-40,24,VR_target_stimuli/s36_1.3x_4.1_442.png,1000,1.3x,4.1,0.0,5614,1004,meters,jsons/MX_seq12_1_VE1000.json,461470,1150344,30,Man
24,701559,final-intermixed-textured,v2,jsons/MX_seq12_1_VE1000.json,http://54.235.29.9/FacialAge/BNav_EC2/DepthDuration/MX_fS_VE_MTurk/MX_fS_HTML.html#140,140,1366,768,1366,768,1-8-2024,15-0-40,25,VR_target_stimuli/s40_1x_1.2_319_BC.png,1000,1x,1.2,0.0,6001,1008,meters,jsons/MX_seq12_1_VE1000.json,461470,1150344,30,Man
25,701559,final-intermixed-textured,v2,jsons/MX_seq12_1_VE1000.json,http://54.235.29.9/FacialAge/BNav_EC2/DepthDuration/MX_fS_VE_MTurk/MX_fS_HTML.html#140,140,1366,768,1366,768,1-8-2024,15-0-40,26,catch_stimuli/c2.png,1000,,,0.0,5787,1000,meters,jsons/MX_seq12_1_VE1000.json,461470,1150344,30,Man
26,701559,final-intermixed-textured,v2,jsons/MX_seq12_1_VE1000.json,http://54.235.29.9/FacialAge/BNav_EC2/DepthDuration/MX_fS_VE_MTurk/MX_fS_HTML.html#140,140,1366,768,1366,768,1-8-2024,15-0-40,27,VR_target_stimuli/s41_0.75x_2.1_281_BC.png,1000,0.75x,2.1,0.0,5789,1005,meters,jsons/MX_seq12_1_VE1000.json,461470,1150344,30,Man
27,701559,final-intermixed-textured,v2,jsons/MX_seq12_1_VE1000.json,http://54.235.29.9/FacialAge/BNav_EC2/DepthDuration/MX_fS_VE_MTurk/MX_fS_HTML.html#140,140,1366,768,1366,768,1-8-2024,15-0-40,28,VR_target_stimuli/s45_0.75x_3.5_362.png,1000,0.75x,3.5,1.2,15834,993,meters,jsons/MX_seq12_1_VE1000.json,461470,1150344,30,Man
28,701559,final-intermixed-textured,v2,jsons/MX_seq12_1_VE1000.json,http://54.235.29.9/FacialAge/BNav_EC2/DepthDuration/MX_fS_VE_MTurk/MX_fS_HTML.html#140,140,1366,768,1366,768,1-8-2024,15-0-40,29,VR_target_stimuli/s23_1.3x_3.65_354_BC.png,1000,1.3x,3.65,0.0,5669,989,meters,jsons/MX_seq12_1_VE1000.json,461470,1150344,30,Man
29,701559,final-intermixed-textured,v2,jsons/MX_seq12_1_VE1000.json,http://54.235.29.9/FacialAge/BNav_EC2/DepthDuration/MX_fS_VE_MTurk/MX_fS_HTML.html#140,140,1366,768,1366,768,1-8-2024,15-0-40,30,VR_target_stimuli/s26_1x_4_433_BC.png,1000,1x,4.0,0.0,5804,1001,meters,jsons/MX_seq12_1_VE1000.json,461470,1150344,30,Man
30,701559,final-intermixed-textured,v2,jsons/MX_seq12_1_VE1000.json,http://54.235.29.9/FacialAge/BNav_EC2/DepthDuration/MX_fS_VE_MTurk/MX_fS_HTML.html#140,140,1366,768,1366,768,1-8-2024,15-0-40,31,VR_target_stimuli/s12_0.75x_3.1_364_BC.png,1000,0.75x,3.1,0.0,5417,1007,meters,jsons/MX_seq12_1_VE1000.json,461470,1150344,30,Man
31,701559,final-intermixed-textured,v2,jsons/MX_seq12_1_VE1000.json,http://54.235.29.9/FacialAge/BNav_EC2/DepthDuration/MX_fS_VE_MTurk/MX_fS_HTML.html#140,140,1366,768,1366,768,1-8-2024,15-0-40,32,VR_target_stimuli/s30_1x_2.3_334.png,1000,1x,2.3,0.0,4963,994,meters,jsons/MX_seq12_1_VE1000.json,461470,1150344,30,Man
32,701559,final-intermixed-textured,v2,jsons/MX_seq12_1_VE1000.json,http://54.235.29.9/FacialAge/BNav_EC2/DepthDuration/MX_fS_VE_MTurk/MX_fS_HTML.html#140,140,1366,768,1366,768,1-8-2024,15-0-40,33,VR_target_stimuli/s16_1.3x_1_223.png,1000,1.3x,1.0,0.0,6122,1005,meters,jsons/MX_seq12_1_VE1000.json,461470,1150344,30,Man
33,701559,final-intermixed-textured,v2,jsons/MX_seq12_1_VE1000.json,http://54.235.29.9/FacialAge/BNav_EC2/DepthDuration/MX_fS_VE_MTurk/MX_fS_HTML.html#140,140,1366,768,1366,768,1-8-2024,15-0-40,34,catch_stimuli/c3.png,1000,,,0.0,6872,1003,meters,jsons/MX_seq12_1_VE1000.json,461470,1150344,30,Man
34,701559,final-intermixed-textured,v2,jsons/MX_seq12_1_VE1000.json,http://54.235.29.9/FacialAge/BNav_EC2/DepthDuration/MX_fS_VE_MTurk/MX_fS_HTML.html#140,140,1366,768,1366,768,1-8-2024,15-0-40,35,VR_target_stimuli/s17_1x_1.8_291.png,1000,1x,1.8,0.0,5932,997,meters,jsons/MX_seq12_1_VE1000.json,461470,1150344,30,Man
35,701559,final-intermixed-textured,v2,jsons/MX_seq12_1_VE1000.json,http://54.235.29.9/FacialAge/BNav_EC2/DepthDuration/MX_fS_VE_MTurk/MX_fS_HTML.html#140,140,1366,768,1366,768,1-8-2024,15-0-40,36,VR_target_stimuli/s5_0.75x_4_375_BC.png,1000,0.75x,4.0,0.0,5743,999,meters,jsons/MX_seq12_1_VE1000.json,461470,1150344,30,Man
36,701559,final-intermixed-textured,v2,jsons/MX_seq12_1_VE1000.json,http://54.235.29.9/FacialAge/BNav_EC2/DepthDuration/MX_fS_VE_MTurk/MX_fS_HTML.html#140,140,1366,768,1366,768,1-8-2024,15-0-40,37,VR_target_stimuli/s37_1.3x_3.3_555.png,1000,1.3x,3.3,3.0,12306,991,meters,jsons/MX_seq12_1_VE1000.json,461470,1150344,30,Man
37,701559,final-intermixed-textured,v2,jsons/MX_seq12_1_VE1000.json,http://54.235.29.9/FacialAge/BNav_EC2/DepthDuration/MX_fS_VE_MTurk/MX_fS_HTML.html#140,140,1366,768,1366,768,1-8-2024,15-0-40,38,VR_target_stimuli/s46_1.3x_2.42_354_BC.png,1000,1.3x,2.42,0.0,6184,990,meters,jsons/MX_seq12_1_VE1000.json,461470,1150344,30,Man
38,701559,final-intermixed-textured,v2,jsons/MX_seq12_1_VE1000.json,http://54.235.29.9/FacialAge/BNav_EC2/DepthDuration/MX_fS_VE_MTurk/MX_fS_HTML.html#140,140,1366,768,1366,768,1-8-2024,15-0-40,39,VR_target_stimuli/s22_1x_4.29_354_BC.png,1000,1x,4.29,0.0,6763,1008,meters,jsons/MX_seq12_1_VE1000.json,461470,1150344,30,Man
39,701559,final-intermixed-textured,v2,jsons/MX_seq12_1_VE1000.json,http://54.235.29.9/FacialAge/BNav_EC2/DepthDuration/MX_fS_VE_MTurk/MX_fS_HTML.html#140,140,1366,768,1366,768,1-8-2024,15-0-40,40,VR_target_stimuli/s42_0.75x_3.2_301.png,1000,0.75x,3.2,0.0,6223,990,meters,jsons/MX_seq12_1_VE1000.json,461470,1150344,30,Man
40,701559,final-intermixed-textured,v2,jsons/MX_seq12_1_VE1000.json,http://54.235.29.9/FacialAge/BNav_EC2/DepthDuration/MX_fS_VE_MTurk/MX_fS_HTML.html#140,140,1366,768,1366,768,1-8-2024,15-0-40,41,VR_target_stimuli/s25_1x_1.4_290_BC.png,1000,1x,1.4,0.0,6448,1005,meters,jsons/MX_seq12_1_VE1000.json,461470,1150344,30,Man
41,701559,final-intermixed-textured,v2,jsons/MX_seq12_1_VE1000.json,http://54.235.29.9/FacialAge/BNav_EC2/DepthDuration/MX_fS_VE_MTurk/MX_fS_HTML.html#140,140,1366,768,1366,768,1-8-2024,15-0-40,42,VR_target_stimuli/s50_1.3x_4.53_518_BC.png,1000,1.3x,4.53,0.0,6793,1003,meters,jsons/MX_seq12_1_VE1000.json,461470,1150344,30,Man
42,701559,final-intermixed-textured,v2,jsons/MX_seq12_1_VE1000.json,http://54.235.29.9/FacialAge/BNav_EC2/DepthDuration/MX_fS_VE_MTurk/MX_fS_HTML.html#140,140,1366,768,1366,768,1-8-2024,15-0-40,43,VR_target_stimuli/s53_0.75x_1.6_403.png,1000,0.75x,1.6,0.0,8205,1005,meters,jsons/MX_seq12_1_VE1000.json,461470,1150344,30,Man
43,701559,final-intermixed-textured,v2,jsons/MX_seq12_1_VE1000.json,http://54.235.29.9/FacialAge/BNav_EC2/DepthDuration/MX_fS_VE_MTurk/MX_fS_HTML.html#140,140,1366,768,1366,768,1-8-2024,15-0-40,44,VR_target_stimuli/s38_1.3x_3.55_358.png,1000,1.3x,3.55,0.0,5767,1005,meters,jsons/MX_seq12_1_VE1000.json,461470,1150344,30,Man
44,701559,final-intermixed-textured,v2,jsons/MX_seq12_1_VE1000.json,http://54.235.29.9/FacialAge/BNav_EC2/DepthDuration/MX_fS_VE_MTurk/MX_fS_HTML.html#140,140,1366,768,1366,768,1-8-2024,15-0-40,45,catch_stimuli/c4.png,1000,,,0.0,6122,996,meters,jsons/MX_seq12_1_VE1000.json,461470,1150344,30,Man
45,701559,final-intermixed-textured,v2,jsons/MX_seq12_1_VE1000.json,http://54.235.29.9/FacialAge/BNav_EC2/DepthDuration/MX_fS_VE_MTurk/MX_fS_HTML.html#140,140,1366,768,1366,768,1-8-2024,15-0-40,46,VR_target_stimuli/s9_1x_1.2_263.png,1000,1x,1.2,0.0,6695,1009,meters,jsons/MX_seq12_1_VE1000.json,461470,1150344,30,Man
46,701559,final-intermixed-textured,v2,jsons/MX_seq12_1_VE1000.json,http://54.235.29.9/FacialAge/BNav_EC2/DepthDuration/MX_fS_VE_MTurk/MX_fS_HTML.html#140,140,1366,768,1366,768,1-8-2024,15-0-40,47,VR_target_stimuli/s44_0.75x_4.4_314_BC.png,1000,0.75x,4.4,1.1,13869,995,meters,jsons/MX_seq12_1_VE1000.json,461470,1150344,30,Man
47,701559,final-intermixed-textured,v2,jsons/MX_seq12_1_VE1000.json,http://54.235.29.9/FacialAge/BNav_EC2/DepthDuration/MX_fS_VE_MTurk/MX_fS_HTML.html#140,140,1366,768,1366,768,1-8-2024,15-0-40,48,VR_target_stimuli/s3_0.75x_5_381_BC.png,1000,0.75x,5.0,0.0,7964,1005,meters,jsons/MX_seq12_1_VE1000.json,461470,1150344,30,Man
48,701559,final-intermixed-textured,v2,jsons/MX_seq12_1_VE1000.json,http://54.235.29.9/FacialAge/BNav_EC2/DepthDuration/MX_fS_VE_MTurk/MX_fS_HTML.html#140,140,1366,768,1366,768,1-8-2024,15-0-40,49,VR_target_stimuli/s1_1.3x_1.7_261_BC.png,1000,1.3x,1.7,0.0,6767,1005,meters,jsons/MX_seq12_1_VE1000.json,461470,1150344,30,Man
49,701559,final-intermixed-textured,v2,jsons/MX_seq12_1_VE1000.json,http://54.235.29.9/FacialAge/BNav_EC2/DepthDuration/MX_fS_VE_MTurk/MX_fS_HTML.html#140,140,1366,768,1366,768,1-8-2024,15-0-40,50,VR_target_stimuli/s11_1x_5_361.png,1000,1x,5.0,0.0,6403,1003,meters,jsons/MX_seq12_1_VE1000.json,461470,1150344,30,Man
50,701559,final-intermixed-textured,v2,jsons/MX_seq12_1_VE1000.json,http://54.235.29.9/FacialAge/BNav_EC2/DepthDuration/MX_fS_VE_MTurk/MX_fS_HTML.html#140,140,1366,768,1366,768,1-8-2024,15-0-40,51,VR_target_stimuli/s2_1.3x_2.7_397.png,1000,1.3x,2.7,0.0,5210,994,meters,jsons/MX_seq12_1_VE1000.json,461470,1150344,30,Man
51,701559,final-intermixed-textured,v2,jsons/MX_seq12_1_VE1000.json,http://54.235.29.9/FacialAge/BNav_EC2/DepthDuration/MX_fS_VE_MTurk/MX_fS_HTML.html#140,140,1366,768,1366,768,1-8-2024,15-0-40,52,VR_target_stimuli/s6_0.75x_2.1_290.png,1000,0.75x,2.1,1.0,10366,1009,meters,jsons/MX_seq12_1_VE1000.json,461470,1150344,30,Man
52,701559,final-intermixed-textured,v2,jsons/MX_seq12_1_VE1000.json,http://54.235.29.9/FacialAge/BNav_EC2/DepthDuration/MX_fS_VE_MTurk/MX_fS_HTML.html#140,140,1366,768,1366,768,1-8-2024,15-0-40,53,catch_stimuli/c5.png,1000,,,0.0,6401,996,meters,jsons/MX_seq12_1_VE1000.json,461470,1150344,30,Man
53,701559,final-intermixed-textured,v2,jsons/MX_seq12_1_VE1000.json,http://54.235.29.9/FacialAge/BNav_EC2/DepthDuration/MX_fS_VE_MTurk/MX_fS_HTML.html#140,140,1366,768,1366,768,1-8-2024,15-0-40,54,VR_target_stimuli/s0_1x_2.6_351_BC.png,1000,1x,2.6,0.0,6082,1007,meters,jsons/MX_seq12_1_VE1000.json,461470,1150344,30,Man
54,701559,final-intermixed-textured,v2,jsons/MX_seq12_1_VE1000.json,http://54.235.29.9/FacialAge/BNav_EC2/DepthDuration/MX_fS_VE_MTurk/MX_fS_HTML.html#140,140,1366,768,1366,768,1-8-2024,15-0-40,55,VR_target_stimuli/s34_0.75x_2.8_269_BC.png,1000,0.75x,2.8,0.0,5474,989,meters,jsons/MX_seq12_1_VE1000.json,461470,1150344,30,Man
55,701559,final-intermixed-textured,v2,jsons/MX_seq12_1_VE1000.json,http://54.235.29.9/FacialAge/BNav_EC2/DepthDuration/MX_fS_VE_MTurk/MX_fS_HTML.html#140,140,1366,768,1366,768,1-8-2024,15-0-40,56,VR_target_stimuli/s13_1.3x_2.4_313_BC.png,1000,1.3x,2.4,0.0,5491,991,meters,jsons/MX_seq12_1_VE1000.json,461470,1150344,30,Man
56,701559,final-intermixed-textured,v2,jsons/MX_seq12_1_VE1000.json,http://54.235.29.9/FacialAge/BNav_EC2/DepthDuration/MX_fS_VE_MTurk/MX_fS_HTML.html#140,140,1366,768,1366,768,1-8-2024,15-0-40,57,VR_target_stimuli/s14_1x_ 3.83_357.png,1000,1x,3.83,0.0,5982,1005,meters,jsons/MX_seq12_1_VE1000.json,461470,1150344,30,Man
57,701559,final-intermixed-textured,v2,jsons/MX_seq12_1_VE1000.json,http://54.235.29.9/FacialAge/BNav_EC2/DepthDuration/MX_fS_VE_MTurk/MX_fS_HTML.html#140,140,1366,768,1366,768,1-8-2024,15-0-40,58,VR_target_stimuli/s47_1x_3.45_370_BC.png,1000,1x,3.45,0.0,6276,1003,meters,jsons/MX_seq12_1_VE1000.json,461470,1150344,30,Man
58,701559,final-intermixed-textured,v2,jsons/MX_seq12_1_VE1000.json,http://54.235.29.9/FacialAge/BNav_EC2/DepthDuration/MX_fS_VE_MTurk/MX_fS_HTML.html#140,140,1366,768,1366,768,1-8-2024,15-0-40,59,VR_target_stimuli/s29_0.75x_1.3_246.png,1000,0.75x,1.3,0.0,5649,989,meters,jsons/MX_seq12_1_VE1000.json,461470,1150344,30,Man
59,701559,final-intermixed-textured,v2,jsons/MX_seq12_1_VE1000.json,http://54.235.29.9/FacialAge/BNav_EC2/DepthDuration/MX_fS_VE_MTurk/MX_fS_HTML.html#140,140,1366,768,1366,768,1-8-2024,15-0-40,60,VR_target_stimuli/s28_1.3x_3.2_365.png,1000,1.3x,3.2,0.0,6086,1005,meters,jsons/MX_seq12_1_VE1000.json,461470,1150344,30,Man
