,subjID,experimentName,versionName,sequenceName,url,selected_row,windowWidth,windowHeight,screenWidth,screenHeight,startDate,startTime,trial,stimulus,duration,scale,actual_depth,depth_estimate,trial_RT,log_sceneDuration,unitSelection,seq_filepath,experimentTime,totalTime,age,gender
0,708764,final-intermixed-textured,v2,jsons/MX_seq10_0_VE1000.json,http://54.235.29.9/FacialAge/BNav_EC2/DepthDuration/MX_fS_VE_MTurk/MX_fS_HTML.html#10,10,1920,1080,1920,1080,1-8-2024,17-29-12,1,VR_target_stimuli/s29_0.75x_1.3_246_BC.png,1000,0.75x,1.3,1.5,8400,1002,meters,jsons/MX_seq10_0_VE1000.json,312064,475196,43,Woman
1,708764,final-intermixed-textured,v2,jsons/MX_seq10_0_VE1000.json,http://54.235.29.9/FacialAge/BNav_EC2/DepthDuration/MX_fS_VE_MTurk/MX_fS_HTML.html#10,10,1920,1080,1920,1080,1-8-2024,17-29-12,2,VR_target_stimuli/s28_1x_3.2_362_BC.png,1000,1x,3.2,2.0,3762,999,meters,jsons/MX_seq10_0_VE1000.json,312064,475196,43,Woman
2,708764,final-intermixed-textured,v2,jsons/MX_seq10_0_VE1000.json,http://54.235.29.9/FacialAge/BNav_EC2/DepthDuration/MX_fS_VE_MTurk/MX_fS_HTML.html#10,10,1920,1080,1920,1080,1-8-2024,17-29-12,3,VR_target_stimuli/s48_1.3x_2.55_255.png,1000,1.3x,2.55,2.0,5134,1003,meters,jsons/MX_seq10_0_VE1000.json,312064,475196,43,Woman
3,708764,final-intermixed-textured,v2,jsons/MX_seq10_0_VE1000.json,http://54.235.29.9/FacialAge/BNav_EC2/DepthDuration/MX_fS_VE_MTurk/MX_fS_HTML.html#10,10,1920,1080,1920,1080,1-8-2024,17-29-12,4,VR_target_stimuli/s19_1x_1.21_263.png,1000,1x,1.21,2.0,3848,1003,meters,jsons/MX_seq10_0_VE1000.json,312064,475196,43,Woman
4,708764,final-intermixed-textured,v2,jsons/MX_seq10_0_VE1000.json,http://54.235.29.9/FacialAge/BNav_EC2/DepthDuration/MX_fS_VE_MTurk/MX_fS_HTML.html#10,10,1920,1080,1920,1080,1-8-2024,17-29-12,5,VR_target_stimuli/s21_0.75x_4.22_374.png,1000,0.75x,4.22,6.0,7548,1003,meters,jsons/MX_seq10_0_VE1000.json,312064,475196,43,Woman
5,708764,final-intermixed-textured,v2,jsons/MX_seq10_0_VE1000.json,http://54.235.29.9/FacialAge/BNav_EC2/DepthDuration/MX_fS_VE_MTurk/MX_fS_HTML.html#10,10,1920,1080,1920,1080,1-8-2024,17-29-12,6,VR_target_stimuli/s8_1.3x_3.1_345_BC.png,1000,1.3x,3.1,3.0,5532,991,meters,jsons/MX_seq10_0_VE1000.json,312064,475196,43,Woman
6,708764,final-intermixed-textured,v2,jsons/MX_seq10_0_VE1000.json,http://54.235.29.9/FacialAge/BNav_EC2/DepthDuration/MX_fS_VE_MTurk/MX_fS_HTML.html#10,10,1920,1080,1920,1080,1-8-2024,17-29-12,7,catch_stimuli/c0.png,1000,,,0.0,3857,999,meters,jsons/MX_seq10_0_VE1000.json,312064,475196,43,Woman
7,708764,final-intermixed-textured,v2,jsons/MX_seq10_0_VE1000.json,http://54.235.29.9/FacialAge/BNav_EC2/DepthDuration/MX_fS_VE_MTurk/MX_fS_HTML.html#10,10,1920,1080,1920,1080,1-8-2024,17-29-12,8,VR_target_stimuli/s27_1.3x_1.76_250_BC.png,1000,1.3x,1.76,2.0,4742,986,meters,jsons/MX_seq10_0_VE1000.json,312064,475196,43,Woman
8,708764,final-intermixed-textured,v2,jsons/MX_seq10_0_VE1000.json,http://54.235.29.9/FacialAge/BNav_EC2/DepthDuration/MX_fS_VE_MTurk/MX_fS_HTML.html#10,10,1920,1080,1920,1080,1-8-2024,17-29-12,9,VR_target_stimuli/s15_1x_4.2_390.png,1000,1x,4.2,3.5,6094,996,meters,jsons/MX_seq10_0_VE1000.json,312064,475196,43,Woman
9,708764,final-intermixed-textured,v2,jsons/MX_seq10_0_VE1000.json,http://54.235.29.9/FacialAge/BNav_EC2/DepthDuration/MX_fS_VE_MTurk/MX_fS_HTML.html#10,10,1920,1080,1920,1080,1-8-2024,17-29-12,10,VR_target_stimuli/s4_0.75x_1.4_301_BC.png,1000,0.75x,1.4,2.0,4418,1001,meters,jsons/MX_seq10_0_VE1000.json,312064,475196,43,Woman
10,708764,final-intermixed-textured,v2,jsons/MX_seq10_0_VE1000.json,http://54.235.29.9/FacialAge/BNav_EC2/DepthDuration/MX_fS_VE_MTurk/MX_fS_HTML.html#10,10,1920,1080,1920,1080,1-8-2024,17-29-12,11,VR_target_stimuli/s35_1x_2_331_BC.png,1000,1x,2.0,2.0,4783,1002,meters,jsons/MX_seq10_0_VE1000.json,312064,475196,43,Woman
11,708764,final-intermixed-textured,v2,jsons/MX_seq10_0_VE1000.json,http://54.235.29.9/FacialAge/BNav_EC2/DepthDuration/MX_fS_VE_MTurk/MX_fS_HTML.html#10,10,1920,1080,1920,1080,1-8-2024,17-29-12,12,VR_target_stimuli/s49_1.3x_4.67_354.png,1000,1.3x,4.67,4.0,4310,1005,meters,jsons/MX_seq10_0_VE1000.json,312064,475196,43,Woman
12,708764,final-intermixed-textured,v2,jsons/MX_seq10_0_VE1000.json,http://54.235.29.9/FacialAge/BNav_EC2/DepthDuration/MX_fS_VE_MTurk/MX_fS_HTML.html#10,10,1920,1080,1920,1080,1-8-2024,17-29-12,13,VR_target_stimuli/s7_0.75x_1.5_253.png,1000,0.75x,1.5,2.0,5119,998,meters,jsons/MX_seq10_0_VE1000.json,312064,475196,43,Woman
13,708764,final-intermixed-textured,v2,jsons/MX_seq10_0_VE1000.json,http://54.235.29.9/FacialAge/BNav_EC2/DepthDuration/MX_fS_VE_MTurk/MX_fS_HTML.html#10,10,1920,1080,1920,1080,1-8-2024,17-29-12,14,VR_target_stimuli/s20_1.3x_4.99_412.png,1000,1.3x,4.99,4.0,3977,999,meters,jsons/MX_seq10_0_VE1000.json,312064,475196,43,Woman
14,708764,final-intermixed-textured,v2,jsons/MX_seq10_0_VE1000.json,http://54.235.29.9/FacialAge/BNav_EC2/DepthDuration/MX_fS_VE_MTurk/MX_fS_HTML.html#10,10,1920,1080,1920,1080,1-8-2024,17-29-12,15,VR_target_stimuli/s31_1x_4.96_333.png,1000,1x,4.96,5.0,8661,997,meters,jsons/MX_seq10_0_VE1000.json,312064,475196,43,Woman
15,708764,final-intermixed-textured,v2,jsons/MX_seq10_0_VE1000.json,http://54.235.29.9/FacialAge/BNav_EC2/DepthDuration/MX_fS_VE_MTurk/MX_fS_HTML.html#10,10,1920,1080,1920,1080,1-8-2024,17-29-12,16,VR_target_stimuli/s33_0.75x_3.1_361_BC.png,1000,0.75x,3.1,4.0,4269,987,meters,jsons/MX_seq10_0_VE1000.json,312064,475196,43,Woman
16,708764,final-intermixed-textured,v2,jsons/MX_seq10_0_VE1000.json,http://54.235.29.9/FacialAge/BNav_EC2/DepthDuration/MX_fS_VE_MTurk/MX_fS_HTML.html#10,10,1920,1080,1920,1080,1-8-2024,17-29-12,17,catch_stimuli/c1.png,1000,,,0.0,3894,1001,meters,jsons/MX_seq10_0_VE1000.json,312064,475196,43,Woman
17,708764,final-intermixed-textured,v2,jsons/MX_seq10_0_VE1000.json,http://54.235.29.9/FacialAge/BNav_EC2/DepthDuration/MX_fS_VE_MTurk/MX_fS_HTML.html#10,10,1920,1080,1920,1080,1-8-2024,17-29-12,18,VR_target_stimuli/s52_0.75x_3.2_270.png,1000,0.75x,3.2,3.0,5624,998,meters,jsons/MX_seq10_0_VE1000.json,312064,475196,43,Woman
18,708764,final-intermixed-textured,v2,jsons/MX_seq10_0_VE1000.json,http://54.235.29.9/FacialAge/BNav_EC2/DepthDuration/MX_fS_VE_MTurk/MX_fS_HTML.html#10,10,1920,1080,1920,1080,1-8-2024,17-29-12,19,VR_target_stimuli/s32_1.3x_1.5_224_BC.png,1000,1.3x,1.5,1.5,5195,1004,meters,jsons/MX_seq10_0_VE1000.json,312064,475196,43,Woman
19,708764,final-intermixed-textured,v2,jsons/MX_seq10_0_VE1000.json,http://54.235.29.9/FacialAge/BNav_EC2/DepthDuration/MX_fS_VE_MTurk/MX_fS_HTML.html#10,10,1920,1080,1920,1080,1-8-2024,17-29-12,20,VR_target_stimuli/s18_1x_2.25_353_BC.png,1000,1x,2.25,2.0,4211,1001,meters,jsons/MX_seq10_0_VE1000.json,312064,475196,43,Woman
20,708764,final-intermixed-textured,v2,jsons/MX_seq10_0_VE1000.json,http://54.235.29.9/FacialAge/BNav_EC2/DepthDuration/MX_fS_VE_MTurk/MX_fS_HTML.html#10,10,1920,1080,1920,1080,1-8-2024,17-29-12,21,VR_target_stimuli/s39_1.3x_1_208_BC.png,1000,1.3x,1.0,1.0,3828,986,meters,jsons/MX_seq10_0_VE1000.json,312064,475196,43,Woman
21,708764,final-intermixed-textured,v2,jsons/MX_seq10_0_VE1000.json,http://54.235.29.9/FacialAge/BNav_EC2/DepthDuration/MX_fS_VE_MTurk/MX_fS_HTML.html#10,10,1920,1080,1920,1080,1-8-2024,17-29-12,22,VR_target_stimuli/s51_0.75x_3.64_460_BC.png,1000,0.75x,3.64,2.5,4532,1003,meters,jsons/MX_seq10_0_VE1000.json,312064,475196,43,Woman
22,708764,final-intermixed-textured,v2,jsons/MX_seq10_0_VE1000.json,http://54.235.29.9/FacialAge/BNav_EC2/DepthDuration/MX_fS_VE_MTurk/MX_fS_HTML.html#10,10,1920,1080,1920,1080,1-8-2024,17-29-12,23,VR_target_stimuli/s43_1x_2.2_354_BC.png,1000,1x,2.2,2.0,4626,1003,meters,jsons/MX_seq10_0_VE1000.json,312064,475196,43,Woman
23,708764,final-intermixed-textured,v2,jsons/MX_seq10_0_VE1000.json,http://54.235.29.9/FacialAge/BNav_EC2/DepthDuration/MX_fS_VE_MTurk/MX_fS_HTML.html#10,10,1920,1080,1920,1080,1-8-2024,17-29-12,24,VR_target_stimuli/s24_0.75x_3.3_344.png,1000,0.75x,3.3,3.5,5107,1007,meters,jsons/MX_seq10_0_VE1000.json,312064,475196,43,Woman
24,708764,final-intermixed-textured,v2,jsons/MX_seq10_0_VE1000.json,http://54.235.29.9/FacialAge/BNav_EC2/DepthDuration/MX_fS_VE_MTurk/MX_fS_HTML.html#10,10,1920,1080,1920,1080,1-8-2024,17-29-12,25,VR_target_stimuli/s10_1.3x_2.7_325.png,1000,1.3x,2.7,2.5,4958,989,meters,jsons/MX_seq10_0_VE1000.json,312064,475196,43,Woman
25,708764,final-intermixed-textured,v2,jsons/MX_seq10_0_VE1000.json,http://54.235.29.9/FacialAge/BNav_EC2/DepthDuration/MX_fS_VE_MTurk/MX_fS_HTML.html#10,10,1920,1080,1920,1080,1-8-2024,17-29-12,26,catch_stimuli/c2.png,1000,,,0.0,4071,1003,meters,jsons/MX_seq10_0_VE1000.json,312064,475196,43,Woman
26,708764,final-intermixed-textured,v2,jsons/MX_seq10_0_VE1000.json,http://54.235.29.9/FacialAge/BNav_EC2/DepthDuration/MX_fS_VE_MTurk/MX_fS_HTML.html#10,10,1920,1080,1920,1080,1-8-2024,17-29-12,27,VR_target_stimuli/s36_1x_4.1_423.png,1000,1x,4.1,3.0,4204,1000,meters,jsons/MX_seq10_0_VE1000.json,312064,475196,43,Woman
27,708764,final-intermixed-textured,v2,jsons/MX_seq10_0_VE1000.json,http://54.235.29.9/FacialAge/BNav_EC2/DepthDuration/MX_fS_VE_MTurk/MX_fS_HTML.html#10,10,1920,1080,1920,1080,1-8-2024,17-29-12,28,VR_target_stimuli/s40_1x_1.2_319_BC.png,1000,1x,1.2,1.5,4576,1003,meters,jsons/MX_seq10_0_VE1000.json,312064,475196,43,Woman
28,708764,final-intermixed-textured,v2,jsons/MX_seq10_0_VE1000.json,http://54.235.29.9/FacialAge/BNav_EC2/DepthDuration/MX_fS_VE_MTurk/MX_fS_HTML.html#10,10,1920,1080,1920,1080,1-8-2024,17-29-12,29,VR_target_stimuli/s41_0.75x_2.1_281_BC.png,1000,0.75x,2.1,2.0,4992,989,meters,jsons/MX_seq10_0_VE1000.json,312064,475196,43,Woman
29,708764,final-intermixed-textured,v2,jsons/MX_seq10_0_VE1000.json,http://54.235.29.9/FacialAge/BNav_EC2/DepthDuration/MX_fS_VE_MTurk/MX_fS_HTML.html#10,10,1920,1080,1920,1080,1-8-2024,17-29-12,30,VR_target_stimuli/s45_1.3x_3.5_377.png,1000,1.3x,3.5,3.0,5336,1004,meters,jsons/MX_seq10_0_VE1000.json,312064,475196,43,Woman
30,708764,final-intermixed-textured,v2,jsons/MX_seq10_0_VE1000.json,http://54.235.29.9/FacialAge/BNav_EC2/DepthDuration/MX_fS_VE_MTurk/MX_fS_HTML.html#10,10,1920,1080,1920,1080,1-8-2024,17-29-12,31,VR_target_stimuli/s23_1x_3.65_353.png,1000,1x,3.65,2.5,5234,1000,meters,jsons/MX_seq10_0_VE1000.json,312064,475196,43,Woman
31,708764,final-intermixed-textured,v2,jsons/MX_seq10_0_VE1000.json,http://54.235.29.9/FacialAge/BNav_EC2/DepthDuration/MX_fS_VE_MTurk/MX_fS_HTML.html#10,10,1920,1080,1920,1080,1-8-2024,17-29-12,32,VR_target_stimuli/s26_1.3x_4_441_BC.png,1000,1.3x,4.0,2.0,3911,998,meters,jsons/MX_seq10_0_VE1000.json,312064,475196,43,Woman
32,708764,final-intermixed-textured,v2,jsons/MX_seq10_0_VE1000.json,http://54.235.29.9/FacialAge/BNav_EC2/DepthDuration/MX_fS_VE_MTurk/MX_fS_HTML.html#10,10,1920,1080,1920,1080,1-8-2024,17-29-12,33,VR_target_stimuli/s12_0.75x_3.1_364.png,1000,0.75x,3.1,3.0,4356,998,meters,jsons/MX_seq10_0_VE1000.json,312064,475196,43,Woman
33,708764,final-intermixed-textured,v2,jsons/MX_seq10_0_VE1000.json,http://54.235.29.9/FacialAge/BNav_EC2/DepthDuration/MX_fS_VE_MTurk/MX_fS_HTML.html#10,10,1920,1080,1920,1080,1-8-2024,17-29-12,34,catch_stimuli/c3.png,1000,,,0.0,3701,1002,meters,jsons/MX_seq10_0_VE1000.json,312064,475196,43,Woman
34,708764,final-intermixed-textured,v2,jsons/MX_seq10_0_VE1000.json,http://54.235.29.9/FacialAge/BNav_EC2/DepthDuration/MX_fS_VE_MTurk/MX_fS_HTML.html#10,10,1920,1080,1920,1080,1-8-2024,17-29-12,35,VR_target_stimuli/s30_1.3x_2.3_337_BC.png,1000,1.3x,2.3,2.0,3592,993,meters,jsons/MX_seq10_0_VE1000.json,312064,475196,43,Woman
35,708764,final-intermixed-textured,v2,jsons/MX_seq10_0_VE1000.json,http://54.235.29.9/FacialAge/BNav_EC2/DepthDuration/MX_fS_VE_MTurk/MX_fS_HTML.html#10,10,1920,1080,1920,1080,1-8-2024,17-29-12,36,VR_target_stimuli/s16_1x_1_219.png,1000,1x,1.0,1.5,6416,1001,meters,jsons/MX_seq10_0_VE1000.json,312064,475196,43,Woman
36,708764,final-intermixed-textured,v2,jsons/MX_seq10_0_VE1000.json,http://54.235.29.9/FacialAge/BNav_EC2/DepthDuration/MX_fS_VE_MTurk/MX_fS_HTML.html#10,10,1920,1080,1920,1080,1-8-2024,17-29-12,37,VR_target_stimuli/s17_0.75x_1.8_285_BC.png,1000,0.75x,1.8,2.5,4552,1008,meters,jsons/MX_seq10_0_VE1000.json,312064,475196,43,Woman
37,708764,final-intermixed-textured,v2,jsons/MX_seq10_0_VE1000.json,http://54.235.29.9/FacialAge/BNav_EC2/DepthDuration/MX_fS_VE_MTurk/MX_fS_HTML.html#10,10,1920,1080,1920,1080,1-8-2024,17-29-12,38,VR_target_stimuli/s5_0.75x_4_375.png,1000,0.75x,4.0,4.0,3863,1003,meters,jsons/MX_seq10_0_VE1000.json,312064,475196,43,Woman
38,708764,final-intermixed-textured,v2,jsons/MX_seq10_0_VE1000.json,http://54.235.29.9/FacialAge/BNav_EC2/DepthDuration/MX_fS_VE_MTurk/MX_fS_HTML.html#10,10,1920,1080,1920,1080,1-8-2024,17-29-12,39,VR_target_stimuli/s37_1.3x_3.3_555.png,1000,1.3x,3.3,1.0,4131,1001,meters,jsons/MX_seq10_0_VE1000.json,312064,475196,43,Woman
39,708764,final-intermixed-textured,v2,jsons/MX_seq10_0_VE1000.json,http://54.235.29.9/FacialAge/BNav_EC2/DepthDuration/MX_fS_VE_MTurk/MX_fS_HTML.html#10,10,1920,1080,1920,1080,1-8-2024,17-29-12,40,VR_target_stimuli/s46_1x_2.42_348_BC.png,1000,1x,2.42,2.5,4578,1002,meters,jsons/MX_seq10_0_VE1000.json,312064,475196,43,Woman
40,708764,final-intermixed-textured,v2,jsons/MX_seq10_0_VE1000.json,http://54.235.29.9/FacialAge/BNav_EC2/DepthDuration/MX_fS_VE_MTurk/MX_fS_HTML.html#10,10,1920,1080,1920,1080,1-8-2024,17-29-12,41,VR_target_stimuli/s22_1.3x_4.29_364_BC.png,1000,1.3x,4.29,4.0,4425,991,meters,jsons/MX_seq10_0_VE1000.json,312064,475196,43,Woman
41,708764,final-intermixed-textured,v2,jsons/MX_seq10_0_VE1000.json,http://54.235.29.9/FacialAge/BNav_EC2/DepthDuration/MX_fS_VE_MTurk/MX_fS_HTML.html#10,10,1920,1080,1920,1080,1-8-2024,17-29-12,42,VR_target_stimuli/s42_0.75x_3.2_301.png,1000,0.75x,3.2,3.0,3922,1003,meters,jsons/MX_seq10_0_VE1000.json,312064,475196,43,Woman
42,708764,final-intermixed-textured,v2,jsons/MX_seq10_0_VE1000.json,http://54.235.29.9/FacialAge/BNav_EC2/DepthDuration/MX_fS_VE_MTurk/MX_fS_HTML.html#10,10,1920,1080,1920,1080,1-8-2024,17-29-12,43,VR_target_stimuli/s25_1x_1.4_290.png,1000,1x,1.4,2.0,4257,1015,meters,jsons/MX_seq10_0_VE1000.json,312064,475196,43,Woman
43,708764,final-intermixed-textured,v2,jsons/MX_seq10_0_VE1000.json,http://54.235.29.9/FacialAge/BNav_EC2/DepthDuration/MX_fS_VE_MTurk/MX_fS_HTML.html#10,10,1920,1080,1920,1080,1-8-2024,17-29-12,44,VR_target_stimuli/s50_0.75x_4.53_517_BC.png,1000,0.75x,4.53,2.5,6095,998,meters,jsons/MX_seq10_0_VE1000.json,312064,475196,43,Woman
44,708764,final-intermixed-textured,v2,jsons/MX_seq10_0_VE1000.json,http://54.235.29.9/FacialAge/BNav_EC2/DepthDuration/MX_fS_VE_MTurk/MX_fS_HTML.html#10,10,1920,1080,1920,1080,1-8-2024,17-29-12,45,catch_stimuli/c4.png,1000,,,0.0,3927,999,meters,jsons/MX_seq10_0_VE1000.json,312064,475196,43,Woman
45,708764,final-intermixed-textured,v2,jsons/MX_seq10_0_VE1000.json,http://54.235.29.9/FacialAge/BNav_EC2/DepthDuration/MX_fS_VE_MTurk/MX_fS_HTML.html#10,10,1920,1080,1920,1080,1-8-2024,17-29-12,46,VR_target_stimuli/s53_1.3x_1.6_355.png,1000,1.3x,1.6,1.0,3912,1007,meters,jsons/MX_seq10_0_VE1000.json,312064,475196,43,Woman
46,708764,final-intermixed-textured,v2,jsons/MX_seq10_0_VE1000.json,http://54.235.29.9/FacialAge/BNav_EC2/DepthDuration/MX_fS_VE_MTurk/MX_fS_HTML.html#10,10,1920,1080,1920,1080,1-8-2024,17-29-12,47,VR_target_stimuli/s38_1x_3.55_353_BC.png,1000,1x,3.55,3.0,4904,990,meters,jsons/MX_seq10_0_VE1000.json,312064,475196,43,Woman
47,708764,final-intermixed-textured,v2,jsons/MX_seq10_0_VE1000.json,http://54.235.29.9/FacialAge/BNav_EC2/DepthDuration/MX_fS_VE_MTurk/MX_fS_HTML.html#10,10,1920,1080,1920,1080,1-8-2024,17-29-12,48,VR_target_stimuli/s9_1x_1.2_263_BC.png,1000,1x,1.2,1.5,4151,997,meters,jsons/MX_seq10_0_VE1000.json,312064,475196,43,Woman
48,708764,final-intermixed-textured,v2,jsons/MX_seq10_0_VE1000.json,http://54.235.29.9/FacialAge/BNav_EC2/DepthDuration/MX_fS_VE_MTurk/MX_fS_HTML.html#10,10,1920,1080,1920,1080,1-8-2024,17-29-12,49,VR_target_stimuli/s44_0.75x_4.4_314.png,1000,0.75x,4.4,3.0,3968,996,meters,jsons/MX_seq10_0_VE1000.json,312064,475196,43,Woman
49,708764,final-intermixed-textured,v2,jsons/MX_seq10_0_VE1000.json,http://54.235.29.9/FacialAge/BNav_EC2/DepthDuration/MX_fS_VE_MTurk/MX_fS_HTML.html#10,10,1920,1080,1920,1080,1-8-2024,17-29-12,50,VR_target_stimuli/s3_1.3x_5_390_BC.png,1000,1.3x,5.0,3.0,4488,1008,meters,jsons/MX_seq10_0_VE1000.json,312064,475196,43,Woman
50,708764,final-intermixed-textured,v2,jsons/MX_seq10_0_VE1000.json,http://54.235.29.9/FacialAge/BNav_EC2/DepthDuration/MX_fS_VE_MTurk/MX_fS_HTML.html#10,10,1920,1080,1920,1080,1-8-2024,17-29-12,51,VR_target_stimuli/s1_0.75x_1.7_265_BC.png,1000,0.75x,1.7,3.0,4284,999,meters,jsons/MX_seq10_0_VE1000.json,312064,475196,43,Woman
51,708764,final-intermixed-textured,v2,jsons/MX_seq10_0_VE1000.json,http://54.235.29.9/FacialAge/BNav_EC2/DepthDuration/MX_fS_VE_MTurk/MX_fS_HTML.html#10,10,1920,1080,1920,1080,1-8-2024,17-29-12,52,VR_target_stimuli/s11_1x_5_361.png,1000,1x,5.0,5.0,4335,1003,meters,jsons/MX_seq10_0_VE1000.json,312064,475196,43,Woman
52,708764,final-intermixed-textured,v2,jsons/MX_seq10_0_VE1000.json,http://54.235.29.9/FacialAge/BNav_EC2/DepthDuration/MX_fS_VE_MTurk/MX_fS_HTML.html#10,10,1920,1080,1920,1080,1-8-2024,17-29-12,53,catch_stimuli/c5.png,1000,,,0.0,4090,1010,meters,jsons/MX_seq10_0_VE1000.json,312064,475196,43,Woman
53,708764,final-intermixed-textured,v2,jsons/MX_seq10_0_VE1000.json,http://54.235.29.9/FacialAge/BNav_EC2/DepthDuration/MX_fS_VE_MTurk/MX_fS_HTML.html#10,10,1920,1080,1920,1080,1-8-2024,17-29-12,54,VR_target_stimuli/s2_1.3x_2.7_397.png,1000,1.3x,2.7,1.5,4118,1007,meters,jsons/MX_seq10_0_VE1000.json,312064,475196,43,Woman
54,708764,final-intermixed-textured,v2,jsons/MX_seq10_0_VE1000.json,http://54.235.29.9/FacialAge/BNav_EC2/DepthDuration/MX_fS_VE_MTurk/MX_fS_HTML.html#10,10,1920,1080,1920,1080,1-8-2024,17-29-12,55,VR_target_stimuli/s6_1x_2.1_293.png,1000,1x,2.1,1.5,4957,994,meters,jsons/MX_seq10_0_VE1000.json,312064,475196,43,Woman
55,708764,final-intermixed-textured,v2,jsons/MX_seq10_0_VE1000.json,http://54.235.29.9/FacialAge/BNav_EC2/DepthDuration/MX_fS_VE_MTurk/MX_fS_HTML.html#10,10,1920,1080,1920,1080,1-8-2024,17-29-12,56,VR_target_stimuli/s0_0.75x_2.6_345.png,1000,0.75x,2.6,2.5,4124,987,meters,jsons/MX_seq10_0_VE1000.json,312064,475196,43,Woman
56,708764,final-intermixed-textured,v2,jsons/MX_seq10_0_VE1000.json,http://54.235.29.9/FacialAge/BNav_EC2/DepthDuration/MX_fS_VE_MTurk/MX_fS_HTML.html#10,10,1920,1080,1920,1080,1-8-2024,17-29-12,57,VR_target_stimuli/s34_1.3x_2.8_294.png,1000,1.3x,2.8,3.0,4218,1001,meters,jsons/MX_seq10_0_VE1000.json,312064,475196,43,Woman
57,708764,final-intermixed-textured,v2,jsons/MX_seq10_0_VE1000.json,http://54.235.29.9/FacialAge/BNav_EC2/DepthDuration/MX_fS_VE_MTurk/MX_fS_HTML.html#10,10,1920,1080,1920,1080,1-8-2024,17-29-12,58,VR_target_stimuli/s13_1.3x_2.4_313_BC.png,1000,1.3x,2.4,2.5,4343,1002,meters,jsons/MX_seq10_0_VE1000.json,312064,475196,43,Woman
58,708764,final-intermixed-textured,v2,jsons/MX_seq10_0_VE1000.json,http://54.235.29.9/FacialAge/BNav_EC2/DepthDuration/MX_fS_VE_MTurk/MX_fS_HTML.html#10,10,1920,1080,1920,1080,1-8-2024,17-29-12,59,VR_target_stimuli/s14_1x_ 3.83_357_BC.png,1000,1x,3.83,3.0,4208,997,meters,jsons/MX_seq10_0_VE1000.json,312064,475196,43,Woman
59,708764,final-intermixed-textured,v2,jsons/MX_seq10_0_VE1000.json,http://54.235.29.9/FacialAge/BNav_EC2/DepthDuration/MX_fS_VE_MTurk/MX_fS_HTML.html#10,10,1920,1080,1920,1080,1-8-2024,17-29-12,60,VR_target_stimuli/s47_0.75x_3.45_366_BC.png,1000,0.75x,3.45,3.0,4863,1001,meters,jsons/MX_seq10_0_VE1000.json,312064,475196,43,Woman
