,subjID,experimentName,versionName,sequenceName,url,selected_row,windowWidth,windowHeight,screenWidth,screenHeight,startDate,startTime,trial,stimulus,duration,scale,actual_depth,depth_estimate,trial_RT,log_sceneDuration,unitSelection,seq_filepath,experimentTime,totalTime,age,gender
0,716907,final-intermixed-textured,v2,jsons/MX_seq13_2_VE1000.json,http://54.235.29.9/FacialAge/BNav_EC2/DepthDuration/MX_fS_VE_MTurk/MX_fS_HTML.html#318,318,1920,1080,1920,1080,1-8-2024,7-45-34,1,VR_target_stimuli/s19_1x_1.21_263_BC.png,1000,1x,1.21,1.5,6534,1001,meters,jsons/MX_seq13_2_VE1000.json,422969,584165,24,Man
1,716907,final-intermixed-textured,v2,jsons/MX_seq13_2_VE1000.json,http://54.235.29.9/FacialAge/BNav_EC2/DepthDuration/MX_fS_VE_MTurk/MX_fS_HTML.html#318,318,1920,1080,1920,1080,1-8-2024,7-45-34,2,VR_target_stimuli/s21_1.3x_4.22_384.png,1000,1.3x,4.22,6.0,4372,999,meters,jsons/MX_seq13_2_VE1000.json,422969,584165,24,Man
2,716907,final-intermixed-textured,v2,jsons/MX_seq13_2_VE1000.json,http://54.235.29.9/FacialAge/BNav_EC2/DepthDuration/MX_fS_VE_MTurk/MX_fS_HTML.html#318,318,1920,1080,1920,1080,1-8-2024,7-45-34,3,VR_target_stimuli/s8_0.75x_3.1_325_BC.png,1000,0.75x,3.1,3.7,5717,1004,meters,jsons/MX_seq13_2_VE1000.json,422969,584165,24,Man
3,716907,final-intermixed-textured,v2,jsons/MX_seq13_2_VE1000.json,http://54.235.29.9/FacialAge/BNav_EC2/DepthDuration/MX_fS_VE_MTurk/MX_fS_HTML.html#318,318,1920,1080,1920,1080,1-8-2024,7-45-34,4,VR_target_stimuli/s27_1.3x_1.76_250_BC.png,1000,1.3x,1.76,2.0,3689,983,meters,jsons/MX_seq13_2_VE1000.json,422969,584165,24,Man
4,716907,final-intermixed-textured,v2,jsons/MX_seq13_2_VE1000.json,http://54.235.29.9/FacialAge/BNav_EC2/DepthDuration/MX_fS_VE_MTurk/MX_fS_HTML.html#318,318,1920,1080,1920,1080,1-8-2024,7-45-34,5,VR_target_stimuli/s15_1x_4.2_390.png,1000,1x,4.2,2.8,5195,1001,meters,jsons/MX_seq13_2_VE1000.json,422969,584165,24,Man
5,716907,final-intermixed-textured,v2,jsons/MX_seq13_2_VE1000.json,http://54.235.29.9/FacialAge/BNav_EC2/DepthDuration/MX_fS_VE_MTurk/MX_fS_HTML.html#318,318,1920,1080,1920,1080,1-8-2024,7-45-34,6,VR_target_stimuli/s4_0.75x_1.4_301.png,1000,0.75x,1.4,1.2,3966,1003,meters,jsons/MX_seq13_2_VE1000.json,422969,584165,24,Man
6,716907,final-intermixed-textured,v2,jsons/MX_seq13_2_VE1000.json,http://54.235.29.9/FacialAge/BNav_EC2/DepthDuration/MX_fS_VE_MTurk/MX_fS_HTML.html#318,318,1920,1080,1920,1080,1-8-2024,7-45-34,7,catch_stimuli/c0.png,1000,,,0.0,3185,1001,meters,jsons/MX_seq13_2_VE1000.json,422969,584165,24,Man
7,716907,final-intermixed-textured,v2,jsons/MX_seq13_2_VE1000.json,http://54.235.29.9/FacialAge/BNav_EC2/DepthDuration/MX_fS_VE_MTurk/MX_fS_HTML.html#318,318,1920,1080,1920,1080,1-8-2024,7-45-34,8,VR_target_stimuli/s35_0.75x_2_323.png,1000,0.75x,2.0,2.0,4396,1012,meters,jsons/MX_seq13_2_VE1000.json,422969,584165,24,Man
8,716907,final-intermixed-textured,v2,jsons/MX_seq13_2_VE1000.json,http://54.235.29.9/FacialAge/BNav_EC2/DepthDuration/MX_fS_VE_MTurk/MX_fS_HTML.html#318,318,1920,1080,1920,1080,1-8-2024,7-45-34,9,VR_target_stimuli/s49_1.3x_4.67_354.png,1000,1.3x,4.67,3.0,6704,1001,meters,jsons/MX_seq13_2_VE1000.json,422969,584165,24,Man
9,716907,final-intermixed-textured,v2,jsons/MX_seq13_2_VE1000.json,http://54.235.29.9/FacialAge/BNav_EC2/DepthDuration/MX_fS_VE_MTurk/MX_fS_HTML.html#318,318,1920,1080,1920,1080,1-8-2024,7-45-34,10,VR_target_stimuli/s7_1x_1.5_255_BC.png,1000,1x,1.5,1.6,5349,994,meters,jsons/MX_seq13_2_VE1000.json,422969,584165,24,Man
10,716907,final-intermixed-textured,v2,jsons/MX_seq13_2_VE1000.json,http://54.235.29.9/FacialAge/BNav_EC2/DepthDuration/MX_fS_VE_MTurk/MX_fS_HTML.html#318,318,1920,1080,1920,1080,1-8-2024,7-45-34,11,VR_target_stimuli/s20_1.3x_4.99_412_BC.png,1000,1.3x,4.99,5.0,6776,999,meters,jsons/MX_seq13_2_VE1000.json,422969,584165,24,Man
11,716907,final-intermixed-textured,v2,jsons/MX_seq13_2_VE1000.json,http://54.235.29.9/FacialAge/BNav_EC2/DepthDuration/MX_fS_VE_MTurk/MX_fS_HTML.html#318,318,1920,1080,1920,1080,1-8-2024,7-45-34,12,VR_target_stimuli/s31_0.75x_4.96_329_BC.png,1000,0.75x,4.96,3.0,7274,995,meters,jsons/MX_seq13_2_VE1000.json,422969,584165,24,Man
12,716907,final-intermixed-textured,v2,jsons/MX_seq13_2_VE1000.json,http://54.235.29.9/FacialAge/BNav_EC2/DepthDuration/MX_fS_VE_MTurk/MX_fS_HTML.html#318,318,1920,1080,1920,1080,1-8-2024,7-45-34,13,VR_target_stimuli/s33_1x_3.1_366.png,1000,1x,3.1,3.5,5162,982,meters,jsons/MX_seq13_2_VE1000.json,422969,584165,24,Man
13,716907,final-intermixed-textured,v2,jsons/MX_seq13_2_VE1000.json,http://54.235.29.9/FacialAge/BNav_EC2/DepthDuration/MX_fS_VE_MTurk/MX_fS_HTML.html#318,318,1920,1080,1920,1080,1-8-2024,7-45-34,14,VR_target_stimuli/s52_0.75x_3.2_270.png,1000,0.75x,3.2,3.3,9010,994,meters,jsons/MX_seq13_2_VE1000.json,422969,584165,24,Man
14,716907,final-intermixed-textured,v2,jsons/MX_seq13_2_VE1000.json,http://54.235.29.9/FacialAge/BNav_EC2/DepthDuration/MX_fS_VE_MTurk/MX_fS_HTML.html#318,318,1920,1080,1920,1080,1-8-2024,7-45-34,15,VR_target_stimuli/s32_1.3x_1.5_224_BC.png,1000,1.3x,1.5,2.3,10144,1006,meters,jsons/MX_seq13_2_VE1000.json,422969,584165,24,Man
15,716907,final-intermixed-textured,v2,jsons/MX_seq13_2_VE1000.json,http://54.235.29.9/FacialAge/BNav_EC2/DepthDuration/MX_fS_VE_MTurk/MX_fS_HTML.html#318,318,1920,1080,1920,1080,1-8-2024,7-45-34,16,VR_target_stimuli/s18_1x_2.25_353.png,1000,1x,2.25,1.8,7938,1010,meters,jsons/MX_seq13_2_VE1000.json,422969,584165,24,Man
16,716907,final-intermixed-textured,v2,jsons/MX_seq13_2_VE1000.json,http://54.235.29.9/FacialAge/BNav_EC2/DepthDuration/MX_fS_VE_MTurk/MX_fS_HTML.html#318,318,1920,1080,1920,1080,1-8-2024,7-45-34,17,catch_stimuli/c1.png,1000,,,0.0,3139,1001,meters,jsons/MX_seq13_2_VE1000.json,422969,584165,24,Man
17,716907,final-intermixed-textured,v2,jsons/MX_seq13_2_VE1000.json,http://54.235.29.9/FacialAge/BNav_EC2/DepthDuration/MX_fS_VE_MTurk/MX_fS_HTML.html#318,318,1920,1080,1920,1080,1-8-2024,7-45-34,18,VR_target_stimuli/s39_1x_1_207_BC.png,1000,1x,1.0,1.6,6637,994,meters,jsons/MX_seq13_2_VE1000.json,422969,584165,24,Man
18,716907,final-intermixed-textured,v2,jsons/MX_seq13_2_VE1000.json,http://54.235.29.9/FacialAge/BNav_EC2/DepthDuration/MX_fS_VE_MTurk/MX_fS_HTML.html#318,318,1920,1080,1920,1080,1-8-2024,7-45-34,19,VR_target_stimuli/s51_0.75x_3.64_460_BC.png,1000,0.75x,3.64,2.0,4114,995,meters,jsons/MX_seq13_2_VE1000.json,422969,584165,24,Man
19,716907,final-intermixed-textured,v2,jsons/MX_seq13_2_VE1000.json,http://54.235.29.9/FacialAge/BNav_EC2/DepthDuration/MX_fS_VE_MTurk/MX_fS_HTML.html#318,318,1920,1080,1920,1080,1-8-2024,7-45-34,20,VR_target_stimuli/s43_1.3x_2.2_363.png,1000,1.3x,2.2,1.4,5560,1001,meters,jsons/MX_seq13_2_VE1000.json,422969,584165,24,Man
20,716907,final-intermixed-textured,v2,jsons/MX_seq13_2_VE1000.json,http://54.235.29.9/FacialAge/BNav_EC2/DepthDuration/MX_fS_VE_MTurk/MX_fS_HTML.html#318,318,1920,1080,1920,1080,1-8-2024,7-45-34,21,VR_target_stimuli/s24_0.75x_3.3_344.png,1000,0.75x,3.3,2.1,11791,1004,meters,jsons/MX_seq13_2_VE1000.json,422969,584165,24,Man
21,716907,final-intermixed-textured,v2,jsons/MX_seq13_2_VE1000.json,http://54.235.29.9/FacialAge/BNav_EC2/DepthDuration/MX_fS_VE_MTurk/MX_fS_HTML.html#318,318,1920,1080,1920,1080,1-8-2024,7-45-34,22,VR_target_stimuli/s10_1x_2.7_324.png,1000,1x,2.7,3.1,12679,991,meters,jsons/MX_seq13_2_VE1000.json,422969,584165,24,Man
22,716907,final-intermixed-textured,v2,jsons/MX_seq13_2_VE1000.json,http://54.235.29.9/FacialAge/BNav_EC2/DepthDuration/MX_fS_VE_MTurk/MX_fS_HTML.html#318,318,1920,1080,1920,1080,1-8-2024,7-45-34,23,VR_target_stimuli/s36_1.3x_4.1_442.png,1000,1.3x,4.1,2.9,6975,1002,meters,jsons/MX_seq13_2_VE1000.json,422969,584165,24,Man
23,716907,final-intermixed-textured,v2,jsons/MX_seq13_2_VE1000.json,http://54.235.29.9/FacialAge/BNav_EC2/DepthDuration/MX_fS_VE_MTurk/MX_fS_HTML.html#318,318,1920,1080,1920,1080,1-8-2024,7-45-34,24,VR_target_stimuli/s40_1x_1.2_319_BC.png,1000,1x,1.2,1.0,5230,1007,meters,jsons/MX_seq13_2_VE1000.json,422969,584165,24,Man
24,716907,final-intermixed-textured,v2,jsons/MX_seq13_2_VE1000.json,http://54.235.29.9/FacialAge/BNav_EC2/DepthDuration/MX_fS_VE_MTurk/MX_fS_HTML.html#318,318,1920,1080,1920,1080,1-8-2024,7-45-34,25,VR_target_stimuli/s41_0.75x_2.1_281_BC.png,1000,0.75x,2.1,2.3,6646,1003,meters,jsons/MX_seq13_2_VE1000.json,422969,584165,24,Man
25,716907,final-intermixed-textured,v2,jsons/MX_seq13_2_VE1000.json,http://54.235.29.9/FacialAge/BNav_EC2/DepthDuration/MX_fS_VE_MTurk/MX_fS_HTML.html#318,318,1920,1080,1920,1080,1-8-2024,7-45-34,26,catch_stimuli/c2.png,1000,,,0.0,3320,999,meters,jsons/MX_seq13_2_VE1000.json,422969,584165,24,Man
26,716907,final-intermixed-textured,v2,jsons/MX_seq13_2_VE1000.json,http://54.235.29.9/FacialAge/BNav_EC2/DepthDuration/MX_fS_VE_MTurk/MX_fS_HTML.html#318,318,1920,1080,1920,1080,1-8-2024,7-45-34,27,VR_target_stimuli/s45_1.3x_3.5_377_BC.png,1000,1.3x,3.5,2.8,7664,990,meters,jsons/MX_seq13_2_VE1000.json,422969,584165,24,Man
27,716907,final-intermixed-textured,v2,jsons/MX_seq13_2_VE1000.json,http://54.235.29.9/FacialAge/BNav_EC2/DepthDuration/MX_fS_VE_MTurk/MX_fS_HTML.html#318,318,1920,1080,1920,1080,1-8-2024,7-45-34,28,VR_target_stimuli/s23_1.3x_3.65_354.png,1000,1.3x,3.65,4.2,8030,1001,meters,jsons/MX_seq13_2_VE1000.json,422969,584165,24,Man
28,716907,final-intermixed-textured,v2,jsons/MX_seq13_2_VE1000.json,http://54.235.29.9/FacialAge/BNav_EC2/DepthDuration/MX_fS_VE_MTurk/MX_fS_HTML.html#318,318,1920,1080,1920,1080,1-8-2024,7-45-34,29,VR_target_stimuli/s26_1x_4_433_BC.png,1000,1x,4.0,4.0,5580,995,meters,jsons/MX_seq13_2_VE1000.json,422969,584165,24,Man
29,716907,final-intermixed-textured,v2,jsons/MX_seq13_2_VE1000.json,http://54.235.29.9/FacialAge/BNav_EC2/DepthDuration/MX_fS_VE_MTurk/MX_fS_HTML.html#318,318,1920,1080,1920,1080,1-8-2024,7-45-34,30,VR_target_stimuli/s12_0.75x_3.1_364.png,1000,0.75x,3.1,2.6,7286,1001,meters,jsons/MX_seq13_2_VE1000.json,422969,584165,24,Man
30,716907,final-intermixed-textured,v2,jsons/MX_seq13_2_VE1000.json,http://54.235.29.9/FacialAge/BNav_EC2/DepthDuration/MX_fS_VE_MTurk/MX_fS_HTML.html#318,318,1920,1080,1920,1080,1-8-2024,7-45-34,31,VR_target_stimuli/s30_1.3x_2.3_337_BC.png,1000,1.3x,2.3,2.3,7272,1012,meters,jsons/MX_seq13_2_VE1000.json,422969,584165,24,Man
31,716907,final-intermixed-textured,v2,jsons/MX_seq13_2_VE1000.json,http://54.235.29.9/FacialAge/BNav_EC2/DepthDuration/MX_fS_VE_MTurk/MX_fS_HTML.html#318,318,1920,1080,1920,1080,1-8-2024,7-45-34,32,VR_target_stimuli/s16_0.75x_1_217_BC.png,1000,0.75x,1.0,1.7,7540,998,meters,jsons/MX_seq13_2_VE1000.json,422969,584165,24,Man
32,716907,final-intermixed-textured,v2,jsons/MX_seq13_2_VE1000.json,http://54.235.29.9/FacialAge/BNav_EC2/DepthDuration/MX_fS_VE_MTurk/MX_fS_HTML.html#318,318,1920,1080,1920,1080,1-8-2024,7-45-34,33,VR_target_stimuli/s17_1x_1.8_291.png,1000,1x,1.8,2.8,4003,1001,meters,jsons/MX_seq13_2_VE1000.json,422969,584165,24,Man
33,716907,final-intermixed-textured,v2,jsons/MX_seq13_2_VE1000.json,http://54.235.29.9/FacialAge/BNav_EC2/DepthDuration/MX_fS_VE_MTurk/MX_fS_HTML.html#318,318,1920,1080,1920,1080,1-8-2024,7-45-34,34,catch_stimuli/c3.png,1000,,,0.0,3211,989,meters,jsons/MX_seq13_2_VE1000.json,422969,584165,24,Man
34,716907,final-intermixed-textured,v2,jsons/MX_seq13_2_VE1000.json,http://54.235.29.9/FacialAge/BNav_EC2/DepthDuration/MX_fS_VE_MTurk/MX_fS_HTML.html#318,318,1920,1080,1920,1080,1-8-2024,7-45-34,35,VR_target_stimuli/s5_0.75x_4_375_BC.png,1000,0.75x,4.0,2.7,6879,988,meters,jsons/MX_seq13_2_VE1000.json,422969,584165,24,Man
35,716907,final-intermixed-textured,v2,jsons/MX_seq13_2_VE1000.json,http://54.235.29.9/FacialAge/BNav_EC2/DepthDuration/MX_fS_VE_MTurk/MX_fS_HTML.html#318,318,1920,1080,1920,1080,1-8-2024,7-45-34,36,VR_target_stimuli/s37_1.3x_3.3_555.png,1000,1.3x,3.3,0.8,4506,1002,meters,jsons/MX_seq13_2_VE1000.json,422969,584165,24,Man
36,716907,final-intermixed-textured,v2,jsons/MX_seq13_2_VE1000.json,http://54.235.29.9/FacialAge/BNav_EC2/DepthDuration/MX_fS_VE_MTurk/MX_fS_HTML.html#318,318,1920,1080,1920,1080,1-8-2024,7-45-34,37,VR_target_stimuli/s46_1x_2.42_348.png,1000,1x,2.42,3.3,6228,1002,meters,jsons/MX_seq13_2_VE1000.json,422969,584165,24,Man
37,716907,final-intermixed-textured,v2,jsons/MX_seq13_2_VE1000.json,http://54.235.29.9/FacialAge/BNav_EC2/DepthDuration/MX_fS_VE_MTurk/MX_fS_HTML.html#318,318,1920,1080,1920,1080,1-8-2024,7-45-34,38,VR_target_stimuli/s22_1x_4.29_354_BC.png,1000,1x,4.29,6.0,4073,1008,meters,jsons/MX_seq13_2_VE1000.json,422969,584165,24,Man
38,716907,final-intermixed-textured,v2,jsons/MX_seq13_2_VE1000.json,http://54.235.29.9/FacialAge/BNav_EC2/DepthDuration/MX_fS_VE_MTurk/MX_fS_HTML.html#318,318,1920,1080,1920,1080,1-8-2024,7-45-34,39,VR_target_stimuli/s42_0.75x_3.2_301.png,1000,0.75x,3.2,4.8,6042,1001,meters,jsons/MX_seq13_2_VE1000.json,422969,584165,24,Man
39,716907,final-intermixed-textured,v2,jsons/MX_seq13_2_VE1000.json,http://54.235.29.9/FacialAge/BNav_EC2/DepthDuration/MX_fS_VE_MTurk/MX_fS_HTML.html#318,318,1920,1080,1920,1080,1-8-2024,7-45-34,40,VR_target_stimuli/s25_1.3x_1.4_299_BC.png,1000,1.3x,1.4,1.7,4876,1006,meters,jsons/MX_seq13_2_VE1000.json,422969,584165,24,Man
40,716907,final-intermixed-textured,v2,jsons/MX_seq13_2_VE1000.json,http://54.235.29.9/FacialAge/BNav_EC2/DepthDuration/MX_fS_VE_MTurk/MX_fS_HTML.html#318,318,1920,1080,1920,1080,1-8-2024,7-45-34,41,VR_target_stimuli/s50_0.75x_4.53_517.png,1000,0.75x,4.53,2.8,8553,998,meters,jsons/MX_seq13_2_VE1000.json,422969,584165,24,Man
41,716907,final-intermixed-textured,v2,jsons/MX_seq13_2_VE1000.json,http://54.235.29.9/FacialAge/BNav_EC2/DepthDuration/MX_fS_VE_MTurk/MX_fS_HTML.html#318,318,1920,1080,1920,1080,1-8-2024,7-45-34,42,VR_target_stimuli/s53_1x_1.6_387_BC.png,1000,1x,1.6,0.6,4600,991,meters,jsons/MX_seq13_2_VE1000.json,422969,584165,24,Man
42,716907,final-intermixed-textured,v2,jsons/MX_seq13_2_VE1000.json,http://54.235.29.9/FacialAge/BNav_EC2/DepthDuration/MX_fS_VE_MTurk/MX_fS_HTML.html#318,318,1920,1080,1920,1080,1-8-2024,7-45-34,43,VR_target_stimuli/s38_1.3x_3.55_358.png,1000,1.3x,3.55,3.4,8979,993,meters,jsons/MX_seq13_2_VE1000.json,422969,584165,24,Man
43,716907,final-intermixed-textured,v2,jsons/MX_seq13_2_VE1000.json,http://54.235.29.9/FacialAge/BNav_EC2/DepthDuration/MX_fS_VE_MTurk/MX_fS_HTML.html#318,318,1920,1080,1920,1080,1-8-2024,7-45-34,44,VR_target_stimuli/s9_1x_1.2_263.png,1000,1x,1.2,2.1,6152,1013,meters,jsons/MX_seq13_2_VE1000.json,422969,584165,24,Man
44,716907,final-intermixed-textured,v2,jsons/MX_seq13_2_VE1000.json,http://54.235.29.9/FacialAge/BNav_EC2/DepthDuration/MX_fS_VE_MTurk/MX_fS_HTML.html#318,318,1920,1080,1920,1080,1-8-2024,7-45-34,45,catch_stimuli/c4.png,1000,,,0.0,3247,1001,meters,jsons/MX_seq13_2_VE1000.json,422969,584165,24,Man
45,716907,final-intermixed-textured,v2,jsons/MX_seq13_2_VE1000.json,http://54.235.29.9/FacialAge/BNav_EC2/DepthDuration/MX_fS_VE_MTurk/MX_fS_HTML.html#318,318,1920,1080,1920,1080,1-8-2024,7-45-34,46,VR_target_stimuli/s44_0.75x_4.4_314_BC.png,1000,0.75x,4.4,3.4,5869,998,meters,jsons/MX_seq13_2_VE1000.json,422969,584165,24,Man
46,716907,final-intermixed-textured,v2,jsons/MX_seq13_2_VE1000.json,http://54.235.29.9/FacialAge/BNav_EC2/DepthDuration/MX_fS_VE_MTurk/MX_fS_HTML.html#318,318,1920,1080,1920,1080,1-8-2024,7-45-34,47,VR_target_stimuli/s3_1.3x_5_390_BC.png,1000,1.3x,5.0,4.6,5383,994,meters,jsons/MX_seq13_2_VE1000.json,422969,584165,24,Man
47,716907,final-intermixed-textured,v2,jsons/MX_seq13_2_VE1000.json,http://54.235.29.9/FacialAge/BNav_EC2/DepthDuration/MX_fS_VE_MTurk/MX_fS_HTML.html#318,318,1920,1080,1920,1080,1-8-2024,7-45-34,48,VR_target_stimuli/s1_1.3x_1.7_261.png,1000,1.3x,1.7,1.5,7429,1003,meters,jsons/MX_seq13_2_VE1000.json,422969,584165,24,Man
48,716907,final-intermixed-textured,v2,jsons/MX_seq13_2_VE1000.json,http://54.235.29.9/FacialAge/BNav_EC2/DepthDuration/MX_fS_VE_MTurk/MX_fS_HTML.html#318,318,1920,1080,1920,1080,1-8-2024,7-45-34,49,VR_target_stimuli/s11_1x_5_361_BC.png,1000,1x,5.0,5.9,6524,996,meters,jsons/MX_seq13_2_VE1000.json,422969,584165,24,Man
49,716907,final-intermixed-textured,v2,jsons/MX_seq13_2_VE1000.json,http://54.235.29.9/FacialAge/BNav_EC2/DepthDuration/MX_fS_VE_MTurk/MX_fS_HTML.html#318,318,1920,1080,1920,1080,1-8-2024,7-45-34,50,VR_target_stimuli/s2_0.75x_2.7_384_BC.png,1000,0.75x,2.7,2.7,11895,995,meters,jsons/MX_seq13_2_VE1000.json,422969,584165,24,Man
50,716907,final-intermixed-textured,v2,jsons/MX_seq13_2_VE1000.json,http://54.235.29.9/FacialAge/BNav_EC2/DepthDuration/MX_fS_VE_MTurk/MX_fS_HTML.html#318,318,1920,1080,1920,1080,1-8-2024,7-45-34,51,VR_target_stimuli/s6_1x_2.1_293.png,1000,1x,2.1,3.4,15284,1002,meters,jsons/MX_seq13_2_VE1000.json,422969,584165,24,Man
51,716907,final-intermixed-textured,v2,jsons/MX_seq13_2_VE1000.json,http://54.235.29.9/FacialAge/BNav_EC2/DepthDuration/MX_fS_VE_MTurk/MX_fS_HTML.html#318,318,1920,1080,1920,1080,1-8-2024,7-45-34,52,VR_target_stimuli/s0_1.3x_2.6_356_BC.png,1000,1.3x,2.6,3.5,6084,997,meters,jsons/MX_seq13_2_VE1000.json,422969,584165,24,Man
52,716907,final-intermixed-textured,v2,jsons/MX_seq13_2_VE1000.json,http://54.235.29.9/FacialAge/BNav_EC2/DepthDuration/MX_fS_VE_MTurk/MX_fS_HTML.html#318,318,1920,1080,1920,1080,1-8-2024,7-45-34,53,catch_stimuli/c5.png,1000,,,0.0,2938,999,meters,jsons/MX_seq13_2_VE1000.json,422969,584165,24,Man
53,716907,final-intermixed-textured,v2,jsons/MX_seq13_2_VE1000.json,http://54.235.29.9/FacialAge/BNav_EC2/DepthDuration/MX_fS_VE_MTurk/MX_fS_HTML.html#318,318,1920,1080,1920,1080,1-8-2024,7-45-34,54,VR_target_stimuli/s34_0.75x_2.8_269.png,1000,0.75x,2.8,2.3,6690,994,meters,jsons/MX_seq13_2_VE1000.json,422969,584165,24,Man
54,716907,final-intermixed-textured,v2,jsons/MX_seq13_2_VE1000.json,http://54.235.29.9/FacialAge/BNav_EC2/DepthDuration/MX_fS_VE_MTurk/MX_fS_HTML.html#318,318,1920,1080,1920,1080,1-8-2024,7-45-34,55,VR_target_stimuli/s13_1.3x_2.4_313.png,1000,1.3x,2.4,1.9,11460,994,meters,jsons/MX_seq13_2_VE1000.json,422969,584165,24,Man
55,716907,final-intermixed-textured,v2,jsons/MX_seq13_2_VE1000.json,http://54.235.29.9/FacialAge/BNav_EC2/DepthDuration/MX_fS_VE_MTurk/MX_fS_HTML.html#318,318,1920,1080,1920,1080,1-8-2024,7-45-34,56,VR_target_stimuli/s14_1x_ 3.83_357_BC.png,1000,1x,3.83,2.8,5690,991,meters,jsons/MX_seq13_2_VE1000.json,422969,584165,24,Man
56,716907,final-intermixed-textured,v2,jsons/MX_seq13_2_VE1000.json,http://54.235.29.9/FacialAge/BNav_EC2/DepthDuration/MX_fS_VE_MTurk/MX_fS_HTML.html#318,318,1920,1080,1920,1080,1-8-2024,7-45-34,57,VR_target_stimuli/s47_0.75x_3.45_366.png,1000,0.75x,3.45,2.0,8040,1001,meters,jsons/MX_seq13_2_VE1000.json,422969,584165,24,Man
57,716907,final-intermixed-textured,v2,jsons/MX_seq13_2_VE1000.json,http://54.235.29.9/FacialAge/BNav_EC2/DepthDuration/MX_fS_VE_MTurk/MX_fS_HTML.html#318,318,1920,1080,1920,1080,1-8-2024,7-45-34,58,VR_target_stimuli/s29_0.75x_1.3_246_BC.png,1000,0.75x,1.3,2.7,11624,1002,meters,jsons/MX_seq13_2_VE1000.json,422969,584165,24,Man
58,716907,final-intermixed-textured,v2,jsons/MX_seq13_2_VE1000.json,http://54.235.29.9/FacialAge/BNav_EC2/DepthDuration/MX_fS_VE_MTurk/MX_fS_HTML.html#318,318,1920,1080,1920,1080,1-8-2024,7-45-34,59,VR_target_stimuli/s28_1.3x_3.2_365_BC.png,1000,1.3x,3.2,3.0,4228,1001,meters,jsons/MX_seq13_2_VE1000.json,422969,584165,24,Man
59,716907,final-intermixed-textured,v2,jsons/MX_seq13_2_VE1000.json,http://54.235.29.9/FacialAge/BNav_EC2/DepthDuration/MX_fS_VE_MTurk/MX_fS_HTML.html#318,318,1920,1080,1920,1080,1-8-2024,7-45-34,60,VR_target_stimuli/s48_1x_2.55_256.png,1000,1x,2.55,1.9,7063,998,meters,jsons/MX_seq13_2_VE1000.json,422969,584165,24,Man
