,subjID,experimentName,versionName,sequenceName,url,selected_row,windowWidth,windowHeight,screenWidth,screenHeight,startDate,startTime,trial,stimulus,duration,scale,actual_depth,depth_estimate,trial_RT,log_sceneDuration,unitSelection,seq_filepath,experimentTime,totalTime,age,gender
0,727512,final-intermixed-textured,v2,jsons/MX_seq35_0_VE1000_flipped.json,http://54.235.29.9/FacialAge/BNav_EC2/DepthDuration/MX_fS_VE_MTurk/MX_fS_HTML.html#301,301,1280,632,1280,720,1-8-2024,16-46-4,1,VR_target_stimuli/s41_0.75x_2.1_281.png,1000,0.75x,2.1,3,7823,1003,meters,jsons/MX_seq35_0_VE1000_flipped.json,355256,515498,26,Woman
1,727512,final-intermixed-textured,v2,jsons/MX_seq35_0_VE1000_flipped.json,http://54.235.29.9/FacialAge/BNav_EC2/DepthDuration/MX_fS_VE_MTurk/MX_fS_HTML.html#301,301,1280,632,1280,720,1-8-2024,16-46-4,2,VR_target_stimuli/s45_1x_3.5_368_BC.png,1000,1x,3.5,7,5258,1003,meters,jsons/MX_seq35_0_VE1000_flipped.json,355256,515498,26,Woman
2,727512,final-intermixed-textured,v2,jsons/MX_seq35_0_VE1000_flipped.json,http://54.235.29.9/FacialAge/BNav_EC2/DepthDuration/MX_fS_VE_MTurk/MX_fS_HTML.html#301,301,1280,632,1280,720,1-8-2024,16-46-4,3,VR_target_stimuli/s23_1.3x_3.65_354_BC.png,1000,1.3x,3.65,5,4089,1001,meters,jsons/MX_seq35_0_VE1000_flipped.json,355256,515498,26,Woman
3,727512,final-intermixed-textured,v2,jsons/MX_seq35_0_VE1000_flipped.json,http://54.235.29.9/FacialAge/BNav_EC2/DepthDuration/MX_fS_VE_MTurk/MX_fS_HTML.html#301,301,1280,632,1280,720,1-8-2024,16-46-4,4,VR_target_stimuli/s26_1x_4_433.png,1000,1x,4.0,7,5187,1000,meters,jsons/MX_seq35_0_VE1000_flipped.json,355256,515498,26,Woman
4,727512,final-intermixed-textured,v2,jsons/MX_seq35_0_VE1000_flipped.json,http://54.235.29.9/FacialAge/BNav_EC2/DepthDuration/MX_fS_VE_MTurk/MX_fS_HTML.html#301,301,1280,632,1280,720,1-8-2024,16-46-4,5,VR_target_stimuli/s12_0.75x_3.1_364_BC.png,1000,0.75x,3.1,8,4855,1001,meters,jsons/MX_seq35_0_VE1000_flipped.json,355256,515498,26,Woman
5,727512,final-intermixed-textured,v2,jsons/MX_seq35_0_VE1000_flipped.json,http://54.235.29.9/FacialAge/BNav_EC2/DepthDuration/MX_fS_VE_MTurk/MX_fS_HTML.html#301,301,1280,632,1280,720,1-8-2024,16-46-4,6,VR_target_stimuli/s30_1.3x_2.3_337.png,1000,1.3x,2.3,6,4223,1001,meters,jsons/MX_seq35_0_VE1000_flipped.json,355256,515498,26,Woman
6,727512,final-intermixed-textured,v2,jsons/MX_seq35_0_VE1000_flipped.json,http://54.235.29.9/FacialAge/BNav_EC2/DepthDuration/MX_fS_VE_MTurk/MX_fS_HTML.html#301,301,1280,632,1280,720,1-8-2024,16-46-4,7,catch_stimuli/c0_BC.png,1000,,,0,4472,1001,meters,jsons/MX_seq35_0_VE1000_flipped.json,355256,515498,26,Woman
7,727512,final-intermixed-textured,v2,jsons/MX_seq35_0_VE1000_flipped.json,http://54.235.29.9/FacialAge/BNav_EC2/DepthDuration/MX_fS_VE_MTurk/MX_fS_HTML.html#301,301,1280,632,1280,720,1-8-2024,16-46-4,8,VR_target_stimuli/s16_1.3x_1_223_BC.png,1000,1.3x,1.0,4,4740,1001,meters,jsons/MX_seq35_0_VE1000_flipped.json,355256,515498,26,Woman
8,727512,final-intermixed-textured,v2,jsons/MX_seq35_0_VE1000_flipped.json,http://54.235.29.9/FacialAge/BNav_EC2/DepthDuration/MX_fS_VE_MTurk/MX_fS_HTML.html#301,301,1280,632,1280,720,1-8-2024,16-46-4,9,VR_target_stimuli/s17_1x_1.8_291_BC.png,1000,1x,1.8,5,4354,1001,meters,jsons/MX_seq35_0_VE1000_flipped.json,355256,515498,26,Woman
9,727512,final-intermixed-textured,v2,jsons/MX_seq35_0_VE1000_flipped.json,http://54.235.29.9/FacialAge/BNav_EC2/DepthDuration/MX_fS_VE_MTurk/MX_fS_HTML.html#301,301,1280,632,1280,720,1-8-2024,16-46-4,10,VR_target_stimuli/s5_0.75x_4_375_BC.png,1000,0.75x,4.0,8,3988,1001,meters,jsons/MX_seq35_0_VE1000_flipped.json,355256,515498,26,Woman
10,727512,final-intermixed-textured,v2,jsons/MX_seq35_0_VE1000_flipped.json,http://54.235.29.9/FacialAge/BNav_EC2/DepthDuration/MX_fS_VE_MTurk/MX_fS_HTML.html#301,301,1280,632,1280,720,1-8-2024,16-46-4,11,VR_target_stimuli/s37_1x_3.3_563.png,1000,1x,3.3,6,4039,1001,meters,jsons/MX_seq35_0_VE1000_flipped.json,355256,515498,26,Woman
11,727512,final-intermixed-textured,v2,jsons/MX_seq35_0_VE1000_flipped.json,http://54.235.29.9/FacialAge/BNav_EC2/DepthDuration/MX_fS_VE_MTurk/MX_fS_HTML.html#301,301,1280,632,1280,720,1-8-2024,16-46-4,12,VR_target_stimuli/s46_1.3x_2.42_354.png,1000,1.3x,2.42,6,5636,1000,meters,jsons/MX_seq35_0_VE1000_flipped.json,355256,515498,26,Woman
12,727512,final-intermixed-textured,v2,jsons/MX_seq35_0_VE1000_flipped.json,http://54.235.29.9/FacialAge/BNav_EC2/DepthDuration/MX_fS_VE_MTurk/MX_fS_HTML.html#301,301,1280,632,1280,720,1-8-2024,16-46-4,13,VR_target_stimuli/s22_0.75x_4.29_348.png,1000,0.75x,4.29,10,4888,1000,meters,jsons/MX_seq35_0_VE1000_flipped.json,355256,515498,26,Woman
13,727512,final-intermixed-textured,v2,jsons/MX_seq35_0_VE1000_flipped.json,http://54.235.29.9/FacialAge/BNav_EC2/DepthDuration/MX_fS_VE_MTurk/MX_fS_HTML.html#301,301,1280,632,1280,720,1-8-2024,16-46-4,14,VR_target_stimuli/s42_1.3x_3.2_305.png,1000,1.3x,3.2,8,4122,1000,meters,jsons/MX_seq35_0_VE1000_flipped.json,355256,515498,26,Woman
14,727512,final-intermixed-textured,v2,jsons/MX_seq35_0_VE1000_flipped.json,http://54.235.29.9/FacialAge/BNav_EC2/DepthDuration/MX_fS_VE_MTurk/MX_fS_HTML.html#301,301,1280,632,1280,720,1-8-2024,16-46-4,15,VR_target_stimuli/s25_1x_1.4_290_BC.png,1000,1x,1.4,7,4724,1002,meters,jsons/MX_seq35_0_VE1000_flipped.json,355256,515498,26,Woman
15,727512,final-intermixed-textured,v2,jsons/MX_seq35_0_VE1000_flipped.json,http://54.235.29.9/FacialAge/BNav_EC2/DepthDuration/MX_fS_VE_MTurk/MX_fS_HTML.html#301,301,1280,632,1280,720,1-8-2024,16-46-4,16,VR_target_stimuli/s50_0.75x_4.53_517_BC.png,1000,0.75x,4.53,9,5104,1001,meters,jsons/MX_seq35_0_VE1000_flipped.json,355256,515498,26,Woman
16,727512,final-intermixed-textured,v2,jsons/MX_seq35_0_VE1000_flipped.json,http://54.235.29.9/FacialAge/BNav_EC2/DepthDuration/MX_fS_VE_MTurk/MX_fS_HTML.html#301,301,1280,632,1280,720,1-8-2024,16-46-4,17,catch_stimuli/c1_BC.png,1000,,,0,4956,1001,meters,jsons/MX_seq35_0_VE1000_flipped.json,355256,515498,26,Woman
17,727512,final-intermixed-textured,v2,jsons/MX_seq35_0_VE1000_flipped.json,http://54.235.29.9/FacialAge/BNav_EC2/DepthDuration/MX_fS_VE_MTurk/MX_fS_HTML.html#301,301,1280,632,1280,720,1-8-2024,16-46-4,18,VR_target_stimuli/s53_0.75x_1.6_403.png,1000,0.75x,1.6,5,4670,1000,meters,jsons/MX_seq35_0_VE1000_flipped.json,355256,515498,26,Woman
18,727512,final-intermixed-textured,v2,jsons/MX_seq35_0_VE1000_flipped.json,http://54.235.29.9/FacialAge/BNav_EC2/DepthDuration/MX_fS_VE_MTurk/MX_fS_HTML.html#301,301,1280,632,1280,720,1-8-2024,16-46-4,19,VR_target_stimuli/s38_1.3x_3.55_358_BC.png,1000,1.3x,3.55,8,5187,1000,meters,jsons/MX_seq35_0_VE1000_flipped.json,355256,515498,26,Woman
19,727512,final-intermixed-textured,v2,jsons/MX_seq35_0_VE1000_flipped.json,http://54.235.29.9/FacialAge/BNav_EC2/DepthDuration/MX_fS_VE_MTurk/MX_fS_HTML.html#301,301,1280,632,1280,720,1-8-2024,16-46-4,20,VR_target_stimuli/s9_1x_1.2_263.png,1000,1x,1.2,5,4604,1001,meters,jsons/MX_seq35_0_VE1000_flipped.json,355256,515498,26,Woman
20,727512,final-intermixed-textured,v2,jsons/MX_seq35_0_VE1000_flipped.json,http://54.235.29.9/FacialAge/BNav_EC2/DepthDuration/MX_fS_VE_MTurk/MX_fS_HTML.html#301,301,1280,632,1280,720,1-8-2024,16-46-4,21,VR_target_stimuli/s44_1.3x_4.4_325_BC.png,1000,1.3x,4.4,9,4722,1001,meters,jsons/MX_seq35_0_VE1000_flipped.json,355256,515498,26,Woman
21,727512,final-intermixed-textured,v2,jsons/MX_seq35_0_VE1000_flipped.json,http://54.235.29.9/FacialAge/BNav_EC2/DepthDuration/MX_fS_VE_MTurk/MX_fS_HTML.html#301,301,1280,632,1280,720,1-8-2024,16-46-4,22,VR_target_stimuli/s3_0.75x_5_381.png,1000,0.75x,5.0,11,4772,1001,meters,jsons/MX_seq35_0_VE1000_flipped.json,355256,515498,26,Woman
22,727512,final-intermixed-textured,v2,jsons/MX_seq35_0_VE1000_flipped.json,http://54.235.29.9/FacialAge/BNav_EC2/DepthDuration/MX_fS_VE_MTurk/MX_fS_HTML.html#301,301,1280,632,1280,720,1-8-2024,16-46-4,23,VR_target_stimuli/s1_1x_1.7_262.png,1000,1x,1.7,4,4708,1001,meters,jsons/MX_seq35_0_VE1000_flipped.json,355256,515498,26,Woman
23,727512,final-intermixed-textured,v2,jsons/MX_seq35_0_VE1000_flipped.json,http://54.235.29.9/FacialAge/BNav_EC2/DepthDuration/MX_fS_VE_MTurk/MX_fS_HTML.html#301,301,1280,632,1280,720,1-8-2024,16-46-4,24,VR_target_stimuli/s11_0.75x_5_359_BC.png,1000,0.75x,5.0,9,4605,1003,meters,jsons/MX_seq35_0_VE1000_flipped.json,355256,515498,26,Woman
24,727512,final-intermixed-textured,v2,jsons/MX_seq35_0_VE1000_flipped.json,http://54.235.29.9/FacialAge/BNav_EC2/DepthDuration/MX_fS_VE_MTurk/MX_fS_HTML.html#301,301,1280,632,1280,720,1-8-2024,16-46-4,25,VR_target_stimuli/s2_1.3x_2.7_397.png,1000,1.3x,2.7,6,5088,1002,meters,jsons/MX_seq35_0_VE1000_flipped.json,355256,515498,26,Woman
25,727512,final-intermixed-textured,v2,jsons/MX_seq35_0_VE1000_flipped.json,http://54.235.29.9/FacialAge/BNav_EC2/DepthDuration/MX_fS_VE_MTurk/MX_fS_HTML.html#301,301,1280,632,1280,720,1-8-2024,16-46-4,26,catch_stimuli/c2_BC.png,1000,,,0,4238,1002,meters,jsons/MX_seq35_0_VE1000_flipped.json,355256,515498,26,Woman
26,727512,final-intermixed-textured,v2,jsons/MX_seq35_0_VE1000_flipped.json,http://54.235.29.9/FacialAge/BNav_EC2/DepthDuration/MX_fS_VE_MTurk/MX_fS_HTML.html#301,301,1280,632,1280,720,1-8-2024,16-46-4,27,VR_target_stimuli/s6_1x_2.1_293_BC.png,1000,1x,2.1,5,4703,1002,meters,jsons/MX_seq35_0_VE1000_flipped.json,355256,515498,26,Woman
27,727512,final-intermixed-textured,v2,jsons/MX_seq35_0_VE1000_flipped.json,http://54.235.29.9/FacialAge/BNav_EC2/DepthDuration/MX_fS_VE_MTurk/MX_fS_HTML.html#301,301,1280,632,1280,720,1-8-2024,16-46-4,28,VR_target_stimuli/s0_1x_2.6_351_BC.png,1000,1x,2.6,5,4972,996,meters,jsons/MX_seq35_0_VE1000_flipped.json,355256,515498,26,Woman
28,727512,final-intermixed-textured,v2,jsons/MX_seq35_0_VE1000_flipped.json,http://54.235.29.9/FacialAge/BNav_EC2/DepthDuration/MX_fS_VE_MTurk/MX_fS_HTML.html#301,301,1280,632,1280,720,1-8-2024,16-46-4,29,VR_target_stimuli/s34_0.75x_2.8_269_BC.png,1000,0.75x,2.8,7,4641,997,meters,jsons/MX_seq35_0_VE1000_flipped.json,355256,515498,26,Woman
29,727512,final-intermixed-textured,v2,jsons/MX_seq35_0_VE1000_flipped.json,http://54.235.29.9/FacialAge/BNav_EC2/DepthDuration/MX_fS_VE_MTurk/MX_fS_HTML.html#301,301,1280,632,1280,720,1-8-2024,16-46-4,30,VR_target_stimuli/s13_1.3x_2.4_313.png,1000,1.3x,2.4,8,4955,1002,meters,jsons/MX_seq35_0_VE1000_flipped.json,355256,515498,26,Woman
30,727512,final-intermixed-textured,v2,jsons/MX_seq35_0_VE1000_flipped.json,http://54.235.29.9/FacialAge/BNav_EC2/DepthDuration/MX_fS_VE_MTurk/MX_fS_HTML.html#301,301,1280,632,1280,720,1-8-2024,16-46-4,31,VR_target_stimuli/s14_1x_ 3.83_357.png,1000,1x,3.83,7,5306,1002,meters,jsons/MX_seq35_0_VE1000_flipped.json,355256,515498,26,Woman
31,727512,final-intermixed-textured,v2,jsons/MX_seq35_0_VE1000_flipped.json,http://54.235.29.9/FacialAge/BNav_EC2/DepthDuration/MX_fS_VE_MTurk/MX_fS_HTML.html#301,301,1280,632,1280,720,1-8-2024,16-46-4,32,VR_target_stimuli/s47_1.3x_3.45_373_BC.png,1000,1.3x,3.45,9,4587,1000,meters,jsons/MX_seq35_0_VE1000_flipped.json,355256,515498,26,Woman
32,727512,final-intermixed-textured,v2,jsons/MX_seq35_0_VE1000_flipped.json,http://54.235.29.9/FacialAge/BNav_EC2/DepthDuration/MX_fS_VE_MTurk/MX_fS_HTML.html#301,301,1280,632,1280,720,1-8-2024,16-46-4,33,VR_target_stimuli/s29_0.75x_1.3_246.png,1000,0.75x,1.3,4,4977,1003,meters,jsons/MX_seq35_0_VE1000_flipped.json,355256,515498,26,Woman
33,727512,final-intermixed-textured,v2,jsons/MX_seq35_0_VE1000_flipped.json,http://54.235.29.9/FacialAge/BNav_EC2/DepthDuration/MX_fS_VE_MTurk/MX_fS_HTML.html#301,301,1280,632,1280,720,1-8-2024,16-46-4,34,catch_stimuli/c3_BC.png,1000,,,0,4461,998,meters,jsons/MX_seq35_0_VE1000_flipped.json,355256,515498,26,Woman
34,727512,final-intermixed-textured,v2,jsons/MX_seq35_0_VE1000_flipped.json,http://54.235.29.9/FacialAge/BNav_EC2/DepthDuration/MX_fS_VE_MTurk/MX_fS_HTML.html#301,301,1280,632,1280,720,1-8-2024,16-46-4,35,VR_target_stimuli/s28_1.3x_3.2_365.png,1000,1.3x,3.2,6,4385,991,meters,jsons/MX_seq35_0_VE1000_flipped.json,355256,515498,26,Woman
35,727512,final-intermixed-textured,v2,jsons/MX_seq35_0_VE1000_flipped.json,http://54.235.29.9/FacialAge/BNav_EC2/DepthDuration/MX_fS_VE_MTurk/MX_fS_HTML.html#301,301,1280,632,1280,720,1-8-2024,16-46-4,36,VR_target_stimuli/s48_1x_2.55_256.png,1000,1x,2.55,6,5120,992,meters,jsons/MX_seq35_0_VE1000_flipped.json,355256,515498,26,Woman
36,727512,final-intermixed-textured,v2,jsons/MX_seq35_0_VE1000_flipped.json,http://54.235.29.9/FacialAge/BNav_EC2/DepthDuration/MX_fS_VE_MTurk/MX_fS_HTML.html#301,301,1280,632,1280,720,1-8-2024,16-46-4,37,VR_target_stimuli/s19_0.75x_1.21_257.png,1000,0.75x,1.21,5,4438,988,meters,jsons/MX_seq35_0_VE1000_flipped.json,355256,515498,26,Woman
37,727512,final-intermixed-textured,v2,jsons/MX_seq35_0_VE1000_flipped.json,http://54.235.29.9/FacialAge/BNav_EC2/DepthDuration/MX_fS_VE_MTurk/MX_fS_HTML.html#301,301,1280,632,1280,720,1-8-2024,16-46-4,38,VR_target_stimuli/s21_0.75x_4.22_374_BC.png,1000,0.75x,4.22,9,4468,989,meters,jsons/MX_seq35_0_VE1000_flipped.json,355256,515498,26,Woman
38,727512,final-intermixed-textured,v2,jsons/MX_seq35_0_VE1000_flipped.json,http://54.235.29.9/FacialAge/BNav_EC2/DepthDuration/MX_fS_VE_MTurk/MX_fS_HTML.html#301,301,1280,632,1280,720,1-8-2024,16-46-4,39,VR_target_stimuli/s8_1.3x_3.1_345_BC.png,1000,1.3x,3.1,9,5904,991,meters,jsons/MX_seq35_0_VE1000_flipped.json,355256,515498,26,Woman
39,727512,final-intermixed-textured,v2,jsons/MX_seq35_0_VE1000_flipped.json,http://54.235.29.9/FacialAge/BNav_EC2/DepthDuration/MX_fS_VE_MTurk/MX_fS_HTML.html#301,301,1280,632,1280,720,1-8-2024,16-46-4,40,VR_target_stimuli/s27_1x_1.76_248_BC.png,1000,1x,1.76,7,5985,991,meters,jsons/MX_seq35_0_VE1000_flipped.json,355256,515498,26,Woman
40,727512,final-intermixed-textured,v2,jsons/MX_seq35_0_VE1000_flipped.json,http://54.235.29.9/FacialAge/BNav_EC2/DepthDuration/MX_fS_VE_MTurk/MX_fS_HTML.html#301,301,1280,632,1280,720,1-8-2024,16-46-4,41,VR_target_stimuli/s15_1.3x_4.2_389.png,1000,1.3x,4.2,10,4936,989,meters,jsons/MX_seq35_0_VE1000_flipped.json,355256,515498,26,Woman
41,727512,final-intermixed-textured,v2,jsons/MX_seq35_0_VE1000_flipped.json,http://54.235.29.9/FacialAge/BNav_EC2/DepthDuration/MX_fS_VE_MTurk/MX_fS_HTML.html#301,301,1280,632,1280,720,1-8-2024,16-46-4,42,VR_target_stimuli/s4_0.75x_1.4_301.png,1000,0.75x,1.4,7,5072,994,meters,jsons/MX_seq35_0_VE1000_flipped.json,355256,515498,26,Woman
42,727512,final-intermixed-textured,v2,jsons/MX_seq35_0_VE1000_flipped.json,http://54.235.29.9/FacialAge/BNav_EC2/DepthDuration/MX_fS_VE_MTurk/MX_fS_HTML.html#301,301,1280,632,1280,720,1-8-2024,16-46-4,43,VR_target_stimuli/s35_1x_2_331.png,1000,1x,2.0,6,4868,988,meters,jsons/MX_seq35_0_VE1000_flipped.json,355256,515498,26,Woman
43,727512,final-intermixed-textured,v2,jsons/MX_seq35_0_VE1000_flipped.json,http://54.235.29.9/FacialAge/BNav_EC2/DepthDuration/MX_fS_VE_MTurk/MX_fS_HTML.html#301,301,1280,632,1280,720,1-8-2024,16-46-4,44,VR_target_stimuli/s49_0.75x_4.67_328_BC.png,1000,0.75x,4.67,6,5038,991,meters,jsons/MX_seq35_0_VE1000_flipped.json,355256,515498,26,Woman
44,727512,final-intermixed-textured,v2,jsons/MX_seq35_0_VE1000_flipped.json,http://54.235.29.9/FacialAge/BNav_EC2/DepthDuration/MX_fS_VE_MTurk/MX_fS_HTML.html#301,301,1280,632,1280,720,1-8-2024,16-46-4,45,catch_stimuli/c4_BC.png,1000,,,0,4420,990,meters,jsons/MX_seq35_0_VE1000_flipped.json,355256,515498,26,Woman
45,727512,final-intermixed-textured,v2,jsons/MX_seq35_0_VE1000_flipped.json,http://54.235.29.9/FacialAge/BNav_EC2/DepthDuration/MX_fS_VE_MTurk/MX_fS_HTML.html#301,301,1280,632,1280,720,1-8-2024,16-46-4,46,VR_target_stimuli/s7_1.3x_1.5_256_BC.png,1000,1.3x,1.5,5,4134,990,meters,jsons/MX_seq35_0_VE1000_flipped.json,355256,515498,26,Woman
46,727512,final-intermixed-textured,v2,jsons/MX_seq35_0_VE1000_flipped.json,http://54.235.29.9/FacialAge/BNav_EC2/DepthDuration/MX_fS_VE_MTurk/MX_fS_HTML.html#301,301,1280,632,1280,720,1-8-2024,16-46-4,47,VR_target_stimuli/s20_1x_4.99_398_BC.png,1000,1x,4.99,8,4474,992,meters,jsons/MX_seq35_0_VE1000_flipped.json,355256,515498,26,Woman
47,727512,final-intermixed-textured,v2,jsons/MX_seq35_0_VE1000_flipped.json,http://54.235.29.9/FacialAge/BNav_EC2/DepthDuration/MX_fS_VE_MTurk/MX_fS_HTML.html#301,301,1280,632,1280,720,1-8-2024,16-46-4,48,VR_target_stimuli/s31_1x_4.96_333_BC.png,1000,1x,4.96,8,4387,1004,meters,jsons/MX_seq35_0_VE1000_flipped.json,355256,515498,26,Woman
48,727512,final-intermixed-textured,v2,jsons/MX_seq35_0_VE1000_flipped.json,http://54.235.29.9/FacialAge/BNav_EC2/DepthDuration/MX_fS_VE_MTurk/MX_fS_HTML.html#301,301,1280,632,1280,720,1-8-2024,16-46-4,49,VR_target_stimuli/s33_0.75x_3.1_361.png,1000,0.75x,3.1,9,3834,991,meters,jsons/MX_seq35_0_VE1000_flipped.json,355256,515498,26,Woman
49,727512,final-intermixed-textured,v2,jsons/MX_seq35_0_VE1000_flipped.json,http://54.235.29.9/FacialAge/BNav_EC2/DepthDuration/MX_fS_VE_MTurk/MX_fS_HTML.html#301,301,1280,632,1280,720,1-8-2024,16-46-4,50,VR_target_stimuli/s52_1.3x_3.2_280.png,1000,1.3x,3.2,7,16128,988,meters,jsons/MX_seq35_0_VE1000_flipped.json,355256,515498,26,Woman
50,727512,final-intermixed-textured,v2,jsons/MX_seq35_0_VE1000_flipped.json,http://54.235.29.9/FacialAge/BNav_EC2/DepthDuration/MX_fS_VE_MTurk/MX_fS_HTML.html#301,301,1280,632,1280,720,1-8-2024,16-46-4,51,VR_target_stimuli/s32_0.75x_1.5_213_BC.png,1000,0.75x,1.5,5,6652,1006,meters,jsons/MX_seq35_0_VE1000_flipped.json,355256,515498,26,Woman
51,727512,final-intermixed-textured,v2,jsons/MX_seq35_0_VE1000_flipped.json,http://54.235.29.9/FacialAge/BNav_EC2/DepthDuration/MX_fS_VE_MTurk/MX_fS_HTML.html#301,301,1280,632,1280,720,1-8-2024,16-46-4,52,VR_target_stimuli/s18_1x_2.25_353.png,1000,1x,2.25,5,11935,994,meters,jsons/MX_seq35_0_VE1000_flipped.json,355256,515498,26,Woman
52,727512,final-intermixed-textured,v2,jsons/MX_seq35_0_VE1000_flipped.json,http://54.235.29.9/FacialAge/BNav_EC2/DepthDuration/MX_fS_VE_MTurk/MX_fS_HTML.html#301,301,1280,632,1280,720,1-8-2024,16-46-4,53,catch_stimuli/c5_BC.png,1000,,,0,4672,991,meters,jsons/MX_seq35_0_VE1000_flipped.json,355256,515498,26,Woman
53,727512,final-intermixed-textured,v2,jsons/MX_seq35_0_VE1000_flipped.json,http://54.235.29.9/FacialAge/BNav_EC2/DepthDuration/MX_fS_VE_MTurk/MX_fS_HTML.html#301,301,1280,632,1280,720,1-8-2024,16-46-4,54,VR_target_stimuli/s39_1.3x_1_208_BC.png,1000,1.3x,1.0,4,4569,990,meters,jsons/MX_seq35_0_VE1000_flipped.json,355256,515498,26,Woman
54,727512,final-intermixed-textured,v2,jsons/MX_seq35_0_VE1000_flipped.json,http://54.235.29.9/FacialAge/BNav_EC2/DepthDuration/MX_fS_VE_MTurk/MX_fS_HTML.html#301,301,1280,632,1280,720,1-8-2024,16-46-4,55,VR_target_stimuli/s51_1x_3.64_461.png,1000,1x,3.64,6,5052,989,meters,jsons/MX_seq35_0_VE1000_flipped.json,355256,515498,26,Woman
55,727512,final-intermixed-textured,v2,jsons/MX_seq35_0_VE1000_flipped.json,http://54.235.29.9/FacialAge/BNav_EC2/DepthDuration/MX_fS_VE_MTurk/MX_fS_HTML.html#301,301,1280,632,1280,720,1-8-2024,16-46-4,56,VR_target_stimuli/s43_0.75x_2.2_348_BC.png,1000,0.75x,2.2,7,4751,989,meters,jsons/MX_seq35_0_VE1000_flipped.json,355256,515498,26,Woman
56,727512,final-intermixed-textured,v2,jsons/MX_seq35_0_VE1000_flipped.json,http://54.235.29.9/FacialAge/BNav_EC2/DepthDuration/MX_fS_VE_MTurk/MX_fS_HTML.html#301,301,1280,632,1280,720,1-8-2024,16-46-4,57,VR_target_stimuli/s24_1.3x_3.3_352_BC.png,1000,1.3x,3.3,8,4305,992,meters,jsons/MX_seq35_0_VE1000_flipped.json,355256,515498,26,Woman
57,727512,final-intermixed-textured,v2,jsons/MX_seq35_0_VE1000_flipped.json,http://54.235.29.9/FacialAge/BNav_EC2/DepthDuration/MX_fS_VE_MTurk/MX_fS_HTML.html#301,301,1280,632,1280,720,1-8-2024,16-46-4,58,VR_target_stimuli/s10_1.3x_2.7_325.png,1000,1.3x,2.7,7,22287,989,meters,jsons/MX_seq35_0_VE1000_flipped.json,355256,515498,26,Woman
58,727512,final-intermixed-textured,v2,jsons/MX_seq35_0_VE1000_flipped.json,http://54.235.29.9/FacialAge/BNav_EC2/DepthDuration/MX_fS_VE_MTurk/MX_fS_HTML.html#301,301,1280,632,1280,720,1-8-2024,16-46-4,59,VR_target_stimuli/s36_1x_4.1_423_BC.png,1000,1x,4.1,8,4366,988,meters,jsons/MX_seq35_0_VE1000_flipped.json,355256,515498,26,Woman
59,727512,final-intermixed-textured,v2,jsons/MX_seq35_0_VE1000_flipped.json,http://54.235.29.9/FacialAge/BNav_EC2/DepthDuration/MX_fS_VE_MTurk/MX_fS_HTML.html#301,301,1280,632,1280,720,1-8-2024,16-46-4,60,VR_target_stimuli/s40_0.75x_1.2_308.png,1000,0.75x,1.2,5,4718,990,meters,jsons/MX_seq35_0_VE1000_flipped.json,355256,515498,26,Woman
