,subjID,experimentName,versionName,sequenceName,url,selected_row,windowWidth,windowHeight,screenWidth,screenHeight,startDate,startTime,trial,stimulus,duration,scale,actual_depth,depth_estimate,trial_RT,log_sceneDuration,unitSelection,seq_filepath,experimentTime,totalTime,age,gender
0,740230,final-intermixed-textured,v2,jsons/MX_seq44_2_VE1000_flipped.json,http://54.235.29.9/FacialAge/BNav_EC2/DepthDuration/MX_fS_VE_MTurk/MX_fS_HTML.html#157,157,1848,948,1920,1080,1-8-2024,19-59-28,1,VR_target_stimuli/s37_1x_3.3_563_BC.png,1000,1x,3.3,4,5828,1000,feet,jsons/MX_seq44_2_VE1000_flipped.json,251809,552597,33,Man
1,740230,final-intermixed-textured,v2,jsons/MX_seq44_2_VE1000_flipped.json,http://54.235.29.9/FacialAge/BNav_EC2/DepthDuration/MX_fS_VE_MTurk/MX_fS_HTML.html#157,157,1848,948,1920,1080,1-8-2024,19-59-28,2,VR_target_stimuli/s46_1.3x_2.42_354.png,1000,1.3x,2.42,5,4390,1000,feet,jsons/MX_seq44_2_VE1000_flipped.json,251809,552597,33,Man
2,740230,final-intermixed-textured,v2,jsons/MX_seq44_2_VE1000_flipped.json,http://54.235.29.9/FacialAge/BNav_EC2/DepthDuration/MX_fS_VE_MTurk/MX_fS_HTML.html#157,157,1848,948,1920,1080,1-8-2024,19-59-28,3,VR_target_stimuli/s22_0.75x_4.29_348_BC.png,1000,0.75x,4.29,8,4023,1000,feet,jsons/MX_seq44_2_VE1000_flipped.json,251809,552597,33,Man
3,740230,final-intermixed-textured,v2,jsons/MX_seq44_2_VE1000_flipped.json,http://54.235.29.9/FacialAge/BNav_EC2/DepthDuration/MX_fS_VE_MTurk/MX_fS_HTML.html#157,157,1848,948,1920,1080,1-8-2024,19-59-28,4,VR_target_stimuli/s42_1.3x_3.2_305_BC.png,1000,1.3x,3.2,8,4133,1000,feet,jsons/MX_seq44_2_VE1000_flipped.json,251809,552597,33,Man
4,740230,final-intermixed-textured,v2,jsons/MX_seq44_2_VE1000_flipped.json,http://54.235.29.9/FacialAge/BNav_EC2/DepthDuration/MX_fS_VE_MTurk/MX_fS_HTML.html#157,157,1848,948,1920,1080,1-8-2024,19-59-28,5,VR_target_stimuli/s25_1x_1.4_290.png,1000,1x,1.4,0,3907,1000,feet,jsons/MX_seq44_2_VE1000_flipped.json,251809,552597,33,Man
5,740230,final-intermixed-textured,v2,jsons/MX_seq44_2_VE1000_flipped.json,http://54.235.29.9/FacialAge/BNav_EC2/DepthDuration/MX_fS_VE_MTurk/MX_fS_HTML.html#157,157,1848,948,1920,1080,1-8-2024,19-59-28,6,VR_target_stimuli/s50_0.75x_4.53_517.png,1000,0.75x,4.53,3,5600,1008,feet,jsons/MX_seq44_2_VE1000_flipped.json,251809,552597,33,Man
6,740230,final-intermixed-textured,v2,jsons/MX_seq44_2_VE1000_flipped.json,http://54.235.29.9/FacialAge/BNav_EC2/DepthDuration/MX_fS_VE_MTurk/MX_fS_HTML.html#157,157,1848,948,1920,1080,1-8-2024,19-59-28,7,catch_stimuli/c0_BC.png,1000,,,0,3426,1000,feet,jsons/MX_seq44_2_VE1000_flipped.json,251809,552597,33,Man
7,740230,final-intermixed-textured,v2,jsons/MX_seq44_2_VE1000_flipped.json,http://54.235.29.9/FacialAge/BNav_EC2/DepthDuration/MX_fS_VE_MTurk/MX_fS_HTML.html#157,157,1848,948,1920,1080,1-8-2024,19-59-28,8,VR_target_stimuli/s53_0.75x_1.6_403_BC.png,1000,0.75x,1.6,2,5345,1000,feet,jsons/MX_seq44_2_VE1000_flipped.json,251809,552597,33,Man
8,740230,final-intermixed-textured,v2,jsons/MX_seq44_2_VE1000_flipped.json,http://54.235.29.9/FacialAge/BNav_EC2/DepthDuration/MX_fS_VE_MTurk/MX_fS_HTML.html#157,157,1848,948,1920,1080,1-8-2024,19-59-28,9,VR_target_stimuli/s38_1.3x_3.55_358_BC.png,1000,1.3x,3.55,6,3444,1000,feet,jsons/MX_seq44_2_VE1000_flipped.json,251809,552597,33,Man
9,740230,final-intermixed-textured,v2,jsons/MX_seq44_2_VE1000_flipped.json,http://54.235.29.9/FacialAge/BNav_EC2/DepthDuration/MX_fS_VE_MTurk/MX_fS_HTML.html#157,157,1848,948,1920,1080,1-8-2024,19-59-28,10,VR_target_stimuli/s9_1x_1.2_263.png,1000,1x,1.2,2,3486,1000,feet,jsons/MX_seq44_2_VE1000_flipped.json,251809,552597,33,Man
10,740230,final-intermixed-textured,v2,jsons/MX_seq44_2_VE1000_flipped.json,http://54.235.29.9/FacialAge/BNav_EC2/DepthDuration/MX_fS_VE_MTurk/MX_fS_HTML.html#157,157,1848,948,1920,1080,1-8-2024,19-59-28,11,VR_target_stimuli/s44_1.3x_4.4_325.png,1000,1.3x,4.4,7,3174,1000,feet,jsons/MX_seq44_2_VE1000_flipped.json,251809,552597,33,Man
11,740230,final-intermixed-textured,v2,jsons/MX_seq44_2_VE1000_flipped.json,http://54.235.29.9/FacialAge/BNav_EC2/DepthDuration/MX_fS_VE_MTurk/MX_fS_HTML.html#157,157,1848,948,1920,1080,1-8-2024,19-59-28,12,VR_target_stimuli/s3_0.75x_5_381.png,1000,0.75x,5.0,10,3805,1000,feet,jsons/MX_seq44_2_VE1000_flipped.json,251809,552597,33,Man
12,740230,final-intermixed-textured,v2,jsons/MX_seq44_2_VE1000_flipped.json,http://54.235.29.9/FacialAge/BNav_EC2/DepthDuration/MX_fS_VE_MTurk/MX_fS_HTML.html#157,157,1848,948,1920,1080,1-8-2024,19-59-28,13,VR_target_stimuli/s1_1x_1.7_262_BC.png,1000,1x,1.7,3,5968,1000,feet,jsons/MX_seq44_2_VE1000_flipped.json,251809,552597,33,Man
13,740230,final-intermixed-textured,v2,jsons/MX_seq44_2_VE1000_flipped.json,http://54.235.29.9/FacialAge/BNav_EC2/DepthDuration/MX_fS_VE_MTurk/MX_fS_HTML.html#157,157,1848,948,1920,1080,1-8-2024,19-59-28,14,VR_target_stimuli/s11_0.75x_5_359.png,1000,0.75x,5.0,7,3580,1000,feet,jsons/MX_seq44_2_VE1000_flipped.json,251809,552597,33,Man
14,740230,final-intermixed-textured,v2,jsons/MX_seq44_2_VE1000_flipped.json,http://54.235.29.9/FacialAge/BNav_EC2/DepthDuration/MX_fS_VE_MTurk/MX_fS_HTML.html#157,157,1848,948,1920,1080,1-8-2024,19-59-28,15,VR_target_stimuli/s2_1.3x_2.7_397.png,1000,1.3x,2.7,3,3317,1000,feet,jsons/MX_seq44_2_VE1000_flipped.json,251809,552597,33,Man
15,740230,final-intermixed-textured,v2,jsons/MX_seq44_2_VE1000_flipped.json,http://54.235.29.9/FacialAge/BNav_EC2/DepthDuration/MX_fS_VE_MTurk/MX_fS_HTML.html#157,157,1848,948,1920,1080,1-8-2024,19-59-28,16,VR_target_stimuli/s6_1x_2.1_293.png,1000,1x,2.1,4,3159,1000,feet,jsons/MX_seq44_2_VE1000_flipped.json,251809,552597,33,Man
16,740230,final-intermixed-textured,v2,jsons/MX_seq44_2_VE1000_flipped.json,http://54.235.29.9/FacialAge/BNav_EC2/DepthDuration/MX_fS_VE_MTurk/MX_fS_HTML.html#157,157,1848,948,1920,1080,1-8-2024,19-59-28,17,catch_stimuli/c1_BC.png,1000,,,0,3257,1000,feet,jsons/MX_seq44_2_VE1000_flipped.json,251809,552597,33,Man
17,740230,final-intermixed-textured,v2,jsons/MX_seq44_2_VE1000_flipped.json,http://54.235.29.9/FacialAge/BNav_EC2/DepthDuration/MX_fS_VE_MTurk/MX_fS_HTML.html#157,157,1848,948,1920,1080,1-8-2024,19-59-28,18,VR_target_stimuli/s0_1x_2.6_351_BC.png,1000,1x,2.6,4,3601,1000,feet,jsons/MX_seq44_2_VE1000_flipped.json,251809,552597,33,Man
18,740230,final-intermixed-textured,v2,jsons/MX_seq44_2_VE1000_flipped.json,http://54.235.29.9/FacialAge/BNav_EC2/DepthDuration/MX_fS_VE_MTurk/MX_fS_HTML.html#157,157,1848,948,1920,1080,1-8-2024,19-59-28,19,VR_target_stimuli/s34_0.75x_2.8_269_BC.png,1000,0.75x,2.8,5,3260,1000,feet,jsons/MX_seq44_2_VE1000_flipped.json,251809,552597,33,Man
19,740230,final-intermixed-textured,v2,jsons/MX_seq44_2_VE1000_flipped.json,http://54.235.29.9/FacialAge/BNav_EC2/DepthDuration/MX_fS_VE_MTurk/MX_fS_HTML.html#157,157,1848,948,1920,1080,1-8-2024,19-59-28,20,VR_target_stimuli/s13_1.3x_2.4_313_BC.png,1000,1.3x,2.4,4,2988,1000,feet,jsons/MX_seq44_2_VE1000_flipped.json,251809,552597,33,Man
20,740230,final-intermixed-textured,v2,jsons/MX_seq44_2_VE1000_flipped.json,http://54.235.29.9/FacialAge/BNav_EC2/DepthDuration/MX_fS_VE_MTurk/MX_fS_HTML.html#157,157,1848,948,1920,1080,1-8-2024,19-59-28,21,VR_target_stimuli/s14_0.75x_3.83_355_BC.png,1000,0.75x,3.83,5,3079,1000,feet,jsons/MX_seq44_2_VE1000_flipped.json,251809,552597,33,Man
21,740230,final-intermixed-textured,v2,jsons/MX_seq44_2_VE1000_flipped.json,http://54.235.29.9/FacialAge/BNav_EC2/DepthDuration/MX_fS_VE_MTurk/MX_fS_HTML.html#157,157,1848,948,1920,1080,1-8-2024,19-59-28,22,VR_target_stimuli/s47_1x_3.45_370.png,1000,1x,3.45,4,3014,1000,feet,jsons/MX_seq44_2_VE1000_flipped.json,251809,552597,33,Man
22,740230,final-intermixed-textured,v2,jsons/MX_seq44_2_VE1000_flipped.json,http://54.235.29.9/FacialAge/BNav_EC2/DepthDuration/MX_fS_VE_MTurk/MX_fS_HTML.html#157,157,1848,948,1920,1080,1-8-2024,19-59-28,23,VR_target_stimuli/s29_1.3x_1.3_253_BC.png,1000,1.3x,1.3,2,3202,1000,feet,jsons/MX_seq44_2_VE1000_flipped.json,251809,552597,33,Man
23,740230,final-intermixed-textured,v2,jsons/MX_seq44_2_VE1000_flipped.json,http://54.235.29.9/FacialAge/BNav_EC2/DepthDuration/MX_fS_VE_MTurk/MX_fS_HTML.html#157,157,1848,948,1920,1080,1-8-2024,19-59-28,24,VR_target_stimuli/s28_1x_3.2_362_BC.png,1000,1x,3.2,5,3328,1000,feet,jsons/MX_seq44_2_VE1000_flipped.json,251809,552597,33,Man
24,740230,final-intermixed-textured,v2,jsons/MX_seq44_2_VE1000_flipped.json,http://54.235.29.9/FacialAge/BNav_EC2/DepthDuration/MX_fS_VE_MTurk/MX_fS_HTML.html#157,157,1848,948,1920,1080,1-8-2024,19-59-28,25,VR_target_stimuli/s48_0.75x_2.55_243.png,1000,0.75x,2.55,4,8510,1000,feet,jsons/MX_seq44_2_VE1000_flipped.json,251809,552597,33,Man
25,740230,final-intermixed-textured,v2,jsons/MX_seq44_2_VE1000_flipped.json,http://54.235.29.9/FacialAge/BNav_EC2/DepthDuration/MX_fS_VE_MTurk/MX_fS_HTML.html#157,157,1848,948,1920,1080,1-8-2024,19-59-28,26,catch_stimuli/c2_BC.png,1000,,,0,4670,1000,feet,jsons/MX_seq44_2_VE1000_flipped.json,251809,552597,33,Man
26,740230,final-intermixed-textured,v2,jsons/MX_seq44_2_VE1000_flipped.json,http://54.235.29.9/FacialAge/BNav_EC2/DepthDuration/MX_fS_VE_MTurk/MX_fS_HTML.html#157,157,1848,948,1920,1080,1-8-2024,19-59-28,27,VR_target_stimuli/s19_1.3x_1.21_270.png,1000,1.3x,1.21,1,3693,1000,feet,jsons/MX_seq44_2_VE1000_flipped.json,251809,552597,33,Man
27,740230,final-intermixed-textured,v2,jsons/MX_seq44_2_VE1000_flipped.json,http://54.235.29.9/FacialAge/BNav_EC2/DepthDuration/MX_fS_VE_MTurk/MX_fS_HTML.html#157,157,1848,948,1920,1080,1-8-2024,19-59-28,28,VR_target_stimuli/s21_1.3x_4.22_384_BC.png,1000,1.3x,4.22,5,3857,1000,feet,jsons/MX_seq44_2_VE1000_flipped.json,251809,552597,33,Man
28,740230,final-intermixed-textured,v2,jsons/MX_seq44_2_VE1000_flipped.json,http://54.235.29.9/FacialAge/BNav_EC2/DepthDuration/MX_fS_VE_MTurk/MX_fS_HTML.html#157,157,1848,948,1920,1080,1-8-2024,19-59-28,29,VR_target_stimuli/s8_1x_3.1_332.png,1000,1x,3.1,6,3250,1000,feet,jsons/MX_seq44_2_VE1000_flipped.json,251809,552597,33,Man
29,740230,final-intermixed-textured,v2,jsons/MX_seq44_2_VE1000_flipped.json,http://54.235.29.9/FacialAge/BNav_EC2/DepthDuration/MX_fS_VE_MTurk/MX_fS_HTML.html#157,157,1848,948,1920,1080,1-8-2024,19-59-28,30,VR_target_stimuli/s27_0.75x_1.76_243_BC.png,1000,0.75x,1.76,5,3592,1000,feet,jsons/MX_seq44_2_VE1000_flipped.json,251809,552597,33,Man
30,740230,final-intermixed-textured,v2,jsons/MX_seq44_2_VE1000_flipped.json,http://54.235.29.9/FacialAge/BNav_EC2/DepthDuration/MX_fS_VE_MTurk/MX_fS_HTML.html#157,157,1848,948,1920,1080,1-8-2024,19-59-28,31,VR_target_stimuli/s15_1.3x_4.2_389.png,1000,1.3x,4.2,5,11477,1000,feet,jsons/MX_seq44_2_VE1000_flipped.json,251809,552597,33,Man
31,740230,final-intermixed-textured,v2,jsons/MX_seq44_2_VE1000_flipped.json,http://54.235.29.9/FacialAge/BNav_EC2/DepthDuration/MX_fS_VE_MTurk/MX_fS_HTML.html#157,157,1848,948,1920,1080,1-8-2024,19-59-28,32,VR_target_stimuli/s4_0.75x_1.4_301.png,1000,0.75x,1.4,3,3530,1000,feet,jsons/MX_seq44_2_VE1000_flipped.json,251809,552597,33,Man
32,740230,final-intermixed-textured,v2,jsons/MX_seq44_2_VE1000_flipped.json,http://54.235.29.9/FacialAge/BNav_EC2/DepthDuration/MX_fS_VE_MTurk/MX_fS_HTML.html#157,157,1848,948,1920,1080,1-8-2024,19-59-28,33,VR_target_stimuli/s35_1x_2_331_BC.png,1000,1x,2.0,3,2890,1000,feet,jsons/MX_seq44_2_VE1000_flipped.json,251809,552597,33,Man
33,740230,final-intermixed-textured,v2,jsons/MX_seq44_2_VE1000_flipped.json,http://54.235.29.9/FacialAge/BNav_EC2/DepthDuration/MX_fS_VE_MTurk/MX_fS_HTML.html#157,157,1848,948,1920,1080,1-8-2024,19-59-28,34,catch_stimuli/c3_BC.png,1000,,,0,2718,1000,feet,jsons/MX_seq44_2_VE1000_flipped.json,251809,552597,33,Man
34,740230,final-intermixed-textured,v2,jsons/MX_seq44_2_VE1000_flipped.json,http://54.235.29.9/FacialAge/BNav_EC2/DepthDuration/MX_fS_VE_MTurk/MX_fS_HTML.html#157,157,1848,948,1920,1080,1-8-2024,19-59-28,35,VR_target_stimuli/s49_0.75x_4.67_328.png,1000,0.75x,4.67,6,2980,1000,feet,jsons/MX_seq44_2_VE1000_flipped.json,251809,552597,33,Man
35,740230,final-intermixed-textured,v2,jsons/MX_seq44_2_VE1000_flipped.json,http://54.235.29.9/FacialAge/BNav_EC2/DepthDuration/MX_fS_VE_MTurk/MX_fS_HTML.html#157,157,1848,948,1920,1080,1-8-2024,19-59-28,36,VR_target_stimuli/s7_1.3x_1.5_256.png,1000,1.3x,1.5,3,2708,1000,feet,jsons/MX_seq44_2_VE1000_flipped.json,251809,552597,33,Man
36,740230,final-intermixed-textured,v2,jsons/MX_seq44_2_VE1000_flipped.json,http://54.235.29.9/FacialAge/BNav_EC2/DepthDuration/MX_fS_VE_MTurk/MX_fS_HTML.html#157,157,1848,948,1920,1080,1-8-2024,19-59-28,37,VR_target_stimuli/s20_1x_4.99_398.png,1000,1x,4.99,7,3455,1000,feet,jsons/MX_seq44_2_VE1000_flipped.json,251809,552597,33,Man
37,740230,final-intermixed-textured,v2,jsons/MX_seq44_2_VE1000_flipped.json,http://54.235.29.9/FacialAge/BNav_EC2/DepthDuration/MX_fS_VE_MTurk/MX_fS_HTML.html#157,157,1848,948,1920,1080,1-8-2024,19-59-28,38,VR_target_stimuli/s31_1x_4.96_333_BC.png,1000,1x,4.96,6,3909,1000,feet,jsons/MX_seq44_2_VE1000_flipped.json,251809,552597,33,Man
38,740230,final-intermixed-textured,v2,jsons/MX_seq44_2_VE1000_flipped.json,http://54.235.29.9/FacialAge/BNav_EC2/DepthDuration/MX_fS_VE_MTurk/MX_fS_HTML.html#157,157,1848,948,1920,1080,1-8-2024,19-59-28,39,VR_target_stimuli/s33_0.75x_3.1_361_BC.png,1000,0.75x,3.1,8,3040,1000,feet,jsons/MX_seq44_2_VE1000_flipped.json,251809,552597,33,Man
39,740230,final-intermixed-textured,v2,jsons/MX_seq44_2_VE1000_flipped.json,http://54.235.29.9/FacialAge/BNav_EC2/DepthDuration/MX_fS_VE_MTurk/MX_fS_HTML.html#157,157,1848,948,1920,1080,1-8-2024,19-59-28,40,VR_target_stimuli/s52_1.3x_3.2_280_BC.png,1000,1.3x,3.2,5,3119,1000,feet,jsons/MX_seq44_2_VE1000_flipped.json,251809,552597,33,Man
40,740230,final-intermixed-textured,v2,jsons/MX_seq44_2_VE1000_flipped.json,http://54.235.29.9/FacialAge/BNav_EC2/DepthDuration/MX_fS_VE_MTurk/MX_fS_HTML.html#157,157,1848,948,1920,1080,1-8-2024,19-59-28,41,VR_target_stimuli/s32_0.75x_1.5_213.png,1000,0.75x,1.5,4,2747,1000,feet,jsons/MX_seq44_2_VE1000_flipped.json,251809,552597,33,Man
41,740230,final-intermixed-textured,v2,jsons/MX_seq44_2_VE1000_flipped.json,http://54.235.29.9/FacialAge/BNav_EC2/DepthDuration/MX_fS_VE_MTurk/MX_fS_HTML.html#157,157,1848,948,1920,1080,1-8-2024,19-59-28,42,VR_target_stimuli/s18_1x_2.25_353.png,1000,1x,2.25,3,2701,1000,feet,jsons/MX_seq44_2_VE1000_flipped.json,251809,552597,33,Man
42,740230,final-intermixed-textured,v2,jsons/MX_seq44_2_VE1000_flipped.json,http://54.235.29.9/FacialAge/BNav_EC2/DepthDuration/MX_fS_VE_MTurk/MX_fS_HTML.html#157,157,1848,948,1920,1080,1-8-2024,19-59-28,43,VR_target_stimuli/s39_1.3x_1_208_BC.png,1000,1.3x,1.0,1,3490,1000,feet,jsons/MX_seq44_2_VE1000_flipped.json,251809,552597,33,Man
43,740230,final-intermixed-textured,v2,jsons/MX_seq44_2_VE1000_flipped.json,http://54.235.29.9/FacialAge/BNav_EC2/DepthDuration/MX_fS_VE_MTurk/MX_fS_HTML.html#157,157,1848,948,1920,1080,1-8-2024,19-59-28,44,VR_target_stimuli/s51_1x_3.64_461_BC.png,1000,1x,3.64,4,2379,1000,feet,jsons/MX_seq44_2_VE1000_flipped.json,251809,552597,33,Man
44,740230,final-intermixed-textured,v2,jsons/MX_seq44_2_VE1000_flipped.json,http://54.235.29.9/FacialAge/BNav_EC2/DepthDuration/MX_fS_VE_MTurk/MX_fS_HTML.html#157,157,1848,948,1920,1080,1-8-2024,19-59-28,45,catch_stimuli/c4_BC.png,1000,,,0,2633,1000,feet,jsons/MX_seq44_2_VE1000_flipped.json,251809,552597,33,Man
45,740230,final-intermixed-textured,v2,jsons/MX_seq44_2_VE1000_flipped.json,http://54.235.29.9/FacialAge/BNav_EC2/DepthDuration/MX_fS_VE_MTurk/MX_fS_HTML.html#157,157,1848,948,1920,1080,1-8-2024,19-59-28,46,VR_target_stimuli/s43_0.75x_2.2_348_BC.png,1000,0.75x,2.2,4,3396,1000,feet,jsons/MX_seq44_2_VE1000_flipped.json,251809,552597,33,Man
46,740230,final-intermixed-textured,v2,jsons/MX_seq44_2_VE1000_flipped.json,http://54.235.29.9/FacialAge/BNav_EC2/DepthDuration/MX_fS_VE_MTurk/MX_fS_HTML.html#157,157,1848,948,1920,1080,1-8-2024,19-59-28,47,VR_target_stimuli/s24_1.3x_3.3_352.png,1000,1.3x,3.3,6,2756,1000,feet,jsons/MX_seq44_2_VE1000_flipped.json,251809,552597,33,Man
47,740230,final-intermixed-textured,v2,jsons/MX_seq44_2_VE1000_flipped.json,http://54.235.29.9/FacialAge/BNav_EC2/DepthDuration/MX_fS_VE_MTurk/MX_fS_HTML.html#157,157,1848,948,1920,1080,1-8-2024,19-59-28,48,VR_target_stimuli/s10_1.3x_2.7_325_BC.png,1000,1.3x,2.7,7,2737,1000,feet,jsons/MX_seq44_2_VE1000_flipped.json,251809,552597,33,Man
48,740230,final-intermixed-textured,v2,jsons/MX_seq44_2_VE1000_flipped.json,http://54.235.29.9/FacialAge/BNav_EC2/DepthDuration/MX_fS_VE_MTurk/MX_fS_HTML.html#157,157,1848,948,1920,1080,1-8-2024,19-59-28,49,VR_target_stimuli/s36_1x_4.1_423.png,1000,1x,4.1,8,3168,1000,feet,jsons/MX_seq44_2_VE1000_flipped.json,251809,552597,33,Man
49,740230,final-intermixed-textured,v2,jsons/MX_seq44_2_VE1000_flipped.json,http://54.235.29.9/FacialAge/BNav_EC2/DepthDuration/MX_fS_VE_MTurk/MX_fS_HTML.html#157,157,1848,948,1920,1080,1-8-2024,19-59-28,50,VR_target_stimuli/s40_0.75x_1.2_308_BC.png,1000,0.75x,1.2,4,3502,1000,feet,jsons/MX_seq44_2_VE1000_flipped.json,251809,552597,33,Man
50,740230,final-intermixed-textured,v2,jsons/MX_seq44_2_VE1000_flipped.json,http://54.235.29.9/FacialAge/BNav_EC2/DepthDuration/MX_fS_VE_MTurk/MX_fS_HTML.html#157,157,1848,948,1920,1080,1-8-2024,19-59-28,51,VR_target_stimuli/s41_1x_2.1_286_BC.png,1000,1x,2.1,5,3192,1000,feet,jsons/MX_seq44_2_VE1000_flipped.json,251809,552597,33,Man
51,740230,final-intermixed-textured,v2,jsons/MX_seq44_2_VE1000_flipped.json,http://54.235.29.9/FacialAge/BNav_EC2/DepthDuration/MX_fS_VE_MTurk/MX_fS_HTML.html#157,157,1848,948,1920,1080,1-8-2024,19-59-28,52,VR_target_stimuli/s45_1.3x_3.5_377.png,1000,1.3x,3.5,6,3483,1000,feet,jsons/MX_seq44_2_VE1000_flipped.json,251809,552597,33,Man
52,740230,final-intermixed-textured,v2,jsons/MX_seq44_2_VE1000_flipped.json,http://54.235.29.9/FacialAge/BNav_EC2/DepthDuration/MX_fS_VE_MTurk/MX_fS_HTML.html#157,157,1848,948,1920,1080,1-8-2024,19-59-28,53,catch_stimuli/c5_BC.png,1000,,,0,2721,1000,feet,jsons/MX_seq44_2_VE1000_flipped.json,251809,552597,33,Man
53,740230,final-intermixed-textured,v2,jsons/MX_seq44_2_VE1000_flipped.json,http://54.235.29.9/FacialAge/BNav_EC2/DepthDuration/MX_fS_VE_MTurk/MX_fS_HTML.html#157,157,1848,948,1920,1080,1-8-2024,19-59-28,54,VR_target_stimuli/s23_0.75x_3.65_351.png,1000,0.75x,3.65,6,3244,1000,feet,jsons/MX_seq44_2_VE1000_flipped.json,251809,552597,33,Man
54,740230,final-intermixed-textured,v2,jsons/MX_seq44_2_VE1000_flipped.json,http://54.235.29.9/FacialAge/BNav_EC2/DepthDuration/MX_fS_VE_MTurk/MX_fS_HTML.html#157,157,1848,948,1920,1080,1-8-2024,19-59-28,55,VR_target_stimuli/s26_1.3x_4_441_BC.png,1000,1.3x,4.0,6,4350,1000,feet,jsons/MX_seq44_2_VE1000_flipped.json,251809,552597,33,Man
55,740230,final-intermixed-textured,v2,jsons/MX_seq44_2_VE1000_flipped.json,http://54.235.29.9/FacialAge/BNav_EC2/DepthDuration/MX_fS_VE_MTurk/MX_fS_HTML.html#157,157,1848,948,1920,1080,1-8-2024,19-59-28,56,VR_target_stimuli/s12_1x_3.1_372_BC.png,1000,1x,3.1,6,3006,1000,feet,jsons/MX_seq44_2_VE1000_flipped.json,251809,552597,33,Man
56,740230,final-intermixed-textured,v2,jsons/MX_seq44_2_VE1000_flipped.json,http://54.235.29.9/FacialAge/BNav_EC2/DepthDuration/MX_fS_VE_MTurk/MX_fS_HTML.html#157,157,1848,948,1920,1080,1-8-2024,19-59-28,57,VR_target_stimuli/s30_0.75x_2.3_332.png,1000,0.75x,2.3,5,3117,1000,feet,jsons/MX_seq44_2_VE1000_flipped.json,251809,552597,33,Man
57,740230,final-intermixed-textured,v2,jsons/MX_seq44_2_VE1000_flipped.json,http://54.235.29.9/FacialAge/BNav_EC2/DepthDuration/MX_fS_VE_MTurk/MX_fS_HTML.html#157,157,1848,948,1920,1080,1-8-2024,19-59-28,58,VR_target_stimuli/s16_0.75x_1_217_BC.png,1000,0.75x,1.0,3,3190,1000,feet,jsons/MX_seq44_2_VE1000_flipped.json,251809,552597,33,Man
58,740230,final-intermixed-textured,v2,jsons/MX_seq44_2_VE1000_flipped.json,http://54.235.29.9/FacialAge/BNav_EC2/DepthDuration/MX_fS_VE_MTurk/MX_fS_HTML.html#157,157,1848,948,1920,1080,1-8-2024,19-59-28,59,VR_target_stimuli/s17_1.3x_1.8_300.png,1000,1.3x,1.8,3,2978,1000,feet,jsons/MX_seq44_2_VE1000_flipped.json,251809,552597,33,Man
59,740230,final-intermixed-textured,v2,jsons/MX_seq44_2_VE1000_flipped.json,http://54.235.29.9/FacialAge/BNav_EC2/DepthDuration/MX_fS_VE_MTurk/MX_fS_HTML.html#157,157,1848,948,1920,1080,1-8-2024,19-59-28,60,VR_target_stimuli/s5_1x_4_378.png,1000,1x,4.0,7,3004,1000,feet,jsons/MX_seq44_2_VE1000_flipped.json,251809,552597,33,Man
