,subjID,experimentName,versionName,sequenceName,url,selected_row,windowWidth,windowHeight,screenWidth,screenHeight,startDate,startTime,trial,stimulus,duration,scale,actual_depth,depth_estimate,trial_RT,log_sceneDuration,unitSelection,seq_filepath,experimentTime,totalTime,age,gender
0,742321,final-intermixed-textured,v2,jsons/MX_seq17_0_VE1000.json,http://54.235.29.9/FacialAge/BNav_EC2/DepthDuration/MX_fS_VE_MTurk/MX_fS_HTML.html#59,59,1366,768,1366,768,1-8-2024,13-37-8,1,VR_target_stimuli/s15_0.75x_4.2_388.png,1000,0.75x,4.2,3.0,10412,999,meters,jsons/MX_seq17_0_VE1000.json,434561,1116862,25,Man
1,742321,final-intermixed-textured,v2,jsons/MX_seq17_0_VE1000.json,http://54.235.29.9/FacialAge/BNav_EC2/DepthDuration/MX_fS_VE_MTurk/MX_fS_HTML.html#59,59,1366,768,1366,768,1-8-2024,13-37-8,2,VR_target_stimuli/s4_1x_1.4_313_BC.png,1000,1x,1.4,1.0,4837,1000,meters,jsons/MX_seq17_0_VE1000.json,434561,1116862,25,Man
2,742321,final-intermixed-textured,v2,jsons/MX_seq17_0_VE1000.json,http://54.235.29.9/FacialAge/BNav_EC2/DepthDuration/MX_fS_VE_MTurk/MX_fS_HTML.html#59,59,1366,768,1366,768,1-8-2024,13-37-8,3,VR_target_stimuli/s35_1.3x_2_338.png,1000,1.3x,2.0,1.5,10497,998,meters,jsons/MX_seq17_0_VE1000.json,434561,1116862,25,Man
3,742321,final-intermixed-textured,v2,jsons/MX_seq17_0_VE1000.json,http://54.235.29.9/FacialAge/BNav_EC2/DepthDuration/MX_fS_VE_MTurk/MX_fS_HTML.html#59,59,1366,768,1366,768,1-8-2024,13-37-8,4,VR_target_stimuli/s49_1x_4.67_341.png,1000,1x,4.67,4.0,12320,998,meters,jsons/MX_seq17_0_VE1000.json,434561,1116862,25,Man
4,742321,final-intermixed-textured,v2,jsons/MX_seq17_0_VE1000.json,http://54.235.29.9/FacialAge/BNav_EC2/DepthDuration/MX_fS_VE_MTurk/MX_fS_HTML.html#59,59,1366,768,1366,768,1-8-2024,13-37-8,5,VR_target_stimuli/s7_0.75x_1.5_253_BC.png,1000,0.75x,1.5,1.2,13705,998,meters,jsons/MX_seq17_0_VE1000.json,434561,1116862,25,Man
5,742321,final-intermixed-textured,v2,jsons/MX_seq17_0_VE1000.json,http://54.235.29.9/FacialAge/BNav_EC2/DepthDuration/MX_fS_VE_MTurk/MX_fS_HTML.html#59,59,1366,768,1366,768,1-8-2024,13-37-8,6,VR_target_stimuli/s20_1.3x_4.99_412_BC.png,1000,1.3x,4.99,4.5,10599,998,meters,jsons/MX_seq17_0_VE1000.json,434561,1116862,25,Man
6,742321,final-intermixed-textured,v2,jsons/MX_seq17_0_VE1000.json,http://54.235.29.9/FacialAge/BNav_EC2/DepthDuration/MX_fS_VE_MTurk/MX_fS_HTML.html#59,59,1366,768,1366,768,1-8-2024,13-37-8,7,catch_stimuli/c0.png,1000,,,0.0,5696,998,meters,jsons/MX_seq17_0_VE1000.json,434561,1116862,25,Man
7,742321,final-intermixed-textured,v2,jsons/MX_seq17_0_VE1000.json,http://54.235.29.9/FacialAge/BNav_EC2/DepthDuration/MX_fS_VE_MTurk/MX_fS_HTML.html#59,59,1366,768,1366,768,1-8-2024,13-37-8,8,VR_target_stimuli/s31_1.3x_4.96_342.png,1000,1.3x,4.96,3.0,6529,999,meters,jsons/MX_seq17_0_VE1000.json,434561,1116862,25,Man
8,742321,final-intermixed-textured,v2,jsons/MX_seq17_0_VE1000.json,http://54.235.29.9/FacialAge/BNav_EC2/DepthDuration/MX_fS_VE_MTurk/MX_fS_HTML.html#59,59,1366,768,1366,768,1-8-2024,13-37-8,9,VR_target_stimuli/s33_1x_3.1_366_BC.png,1000,1x,3.1,2.5,13282,999,meters,jsons/MX_seq17_0_VE1000.json,434561,1116862,25,Man
9,742321,final-intermixed-textured,v2,jsons/MX_seq17_0_VE1000.json,http://54.235.29.9/FacialAge/BNav_EC2/DepthDuration/MX_fS_VE_MTurk/MX_fS_HTML.html#59,59,1366,768,1366,768,1-8-2024,13-37-8,10,VR_target_stimuli/s52_0.75x_3.2_270_BC.png,1000,0.75x,3.2,3.0,5177,999,meters,jsons/MX_seq17_0_VE1000.json,434561,1116862,25,Man
10,742321,final-intermixed-textured,v2,jsons/MX_seq17_0_VE1000.json,http://54.235.29.9/FacialAge/BNav_EC2/DepthDuration/MX_fS_VE_MTurk/MX_fS_HTML.html#59,59,1366,768,1366,768,1-8-2024,13-37-8,11,VR_target_stimuli/s32_1x_1.5_218.png,1000,1x,1.5,2.5,6068,998,meters,jsons/MX_seq17_0_VE1000.json,434561,1116862,25,Man
11,742321,final-intermixed-textured,v2,jsons/MX_seq17_0_VE1000.json,http://54.235.29.9/FacialAge/BNav_EC2/DepthDuration/MX_fS_VE_MTurk/MX_fS_HTML.html#59,59,1366,768,1366,768,1-8-2024,13-37-8,12,VR_target_stimuli/s18_1.3x_2.25_368_BC.png,1000,1.3x,2.25,1.5,5664,998,meters,jsons/MX_seq17_0_VE1000.json,434561,1116862,25,Man
12,742321,final-intermixed-textured,v2,jsons/MX_seq17_0_VE1000.json,http://54.235.29.9/FacialAge/BNav_EC2/DepthDuration/MX_fS_VE_MTurk/MX_fS_HTML.html#59,59,1366,768,1366,768,1-8-2024,13-37-8,13,VR_target_stimuli/s39_0.75x_1_205.png,1000,0.75x,1.0,1.0,4405,999,meters,jsons/MX_seq17_0_VE1000.json,434561,1116862,25,Man
13,742321,final-intermixed-textured,v2,jsons/MX_seq17_0_VE1000.json,http://54.235.29.9/FacialAge/BNav_EC2/DepthDuration/MX_fS_VE_MTurk/MX_fS_HTML.html#59,59,1366,768,1366,768,1-8-2024,13-37-8,14,VR_target_stimuli/s51_1.3x_3.64_479_BC.png,1000,1.3x,3.64,1.5,5931,997,meters,jsons/MX_seq17_0_VE1000.json,434561,1116862,25,Man
14,742321,final-intermixed-textured,v2,jsons/MX_seq17_0_VE1000.json,http://54.235.29.9/FacialAge/BNav_EC2/DepthDuration/MX_fS_VE_MTurk/MX_fS_HTML.html#59,59,1366,768,1366,768,1-8-2024,13-37-8,15,VR_target_stimuli/s43_1x_2.2_354.png,1000,1x,2.2,2.5,10858,999,meters,jsons/MX_seq17_0_VE1000.json,434561,1116862,25,Man
15,742321,final-intermixed-textured,v2,jsons/MX_seq17_0_VE1000.json,http://54.235.29.9/FacialAge/BNav_EC2/DepthDuration/MX_fS_VE_MTurk/MX_fS_HTML.html#59,59,1366,768,1366,768,1-8-2024,13-37-8,16,VR_target_stimuli/s24_0.75x_3.3_344.png,1000,0.75x,3.3,3.0,4927,996,meters,jsons/MX_seq17_0_VE1000.json,434561,1116862,25,Man
16,742321,final-intermixed-textured,v2,jsons/MX_seq17_0_VE1000.json,http://54.235.29.9/FacialAge/BNav_EC2/DepthDuration/MX_fS_VE_MTurk/MX_fS_HTML.html#59,59,1366,768,1366,768,1-8-2024,13-37-8,17,catch_stimuli/c1.png,1000,,,0.0,4379,997,meters,jsons/MX_seq17_0_VE1000.json,434561,1116862,25,Man
17,742321,final-intermixed-textured,v2,jsons/MX_seq17_0_VE1000.json,http://54.235.29.9/FacialAge/BNav_EC2/DepthDuration/MX_fS_VE_MTurk/MX_fS_HTML.html#59,59,1366,768,1366,768,1-8-2024,13-37-8,18,VR_target_stimuli/s10_0.75x_2.7_321_BC.png,1000,0.75x,2.7,3.0,7534,998,meters,jsons/MX_seq17_0_VE1000.json,434561,1116862,25,Man
18,742321,final-intermixed-textured,v2,jsons/MX_seq17_0_VE1000.json,http://54.235.29.9/FacialAge/BNav_EC2/DepthDuration/MX_fS_VE_MTurk/MX_fS_HTML.html#59,59,1366,768,1366,768,1-8-2024,13-37-8,19,VR_target_stimuli/s36_1.3x_4.1_442.png,1000,1.3x,4.1,4.5,8852,998,meters,jsons/MX_seq17_0_VE1000.json,434561,1116862,25,Man
19,742321,final-intermixed-textured,v2,jsons/MX_seq17_0_VE1000.json,http://54.235.29.9/FacialAge/BNav_EC2/DepthDuration/MX_fS_VE_MTurk/MX_fS_HTML.html#59,59,1366,768,1366,768,1-8-2024,13-37-8,20,VR_target_stimuli/s40_1x_1.2_319_BC.png,1000,1x,1.2,1.0,6275,998,meters,jsons/MX_seq17_0_VE1000.json,434561,1116862,25,Man
20,742321,final-intermixed-textured,v2,jsons/MX_seq17_0_VE1000.json,http://54.235.29.9/FacialAge/BNav_EC2/DepthDuration/MX_fS_VE_MTurk/MX_fS_HTML.html#59,59,1366,768,1366,768,1-8-2024,13-37-8,21,VR_target_stimuli/s41_1.3x_2.1_294.png,1000,1.3x,2.1,2.0,5196,999,meters,jsons/MX_seq17_0_VE1000.json,434561,1116862,25,Man
21,742321,final-intermixed-textured,v2,jsons/MX_seq17_0_VE1000.json,http://54.235.29.9/FacialAge/BNav_EC2/DepthDuration/MX_fS_VE_MTurk/MX_fS_HTML.html#59,59,1366,768,1366,768,1-8-2024,13-37-8,22,VR_target_stimuli/s45_0.75x_3.5_362.png,1000,0.75x,3.5,3.0,5819,998,meters,jsons/MX_seq17_0_VE1000.json,434561,1116862,25,Man
22,742321,final-intermixed-textured,v2,jsons/MX_seq17_0_VE1000.json,http://54.235.29.9/FacialAge/BNav_EC2/DepthDuration/MX_fS_VE_MTurk/MX_fS_HTML.html#59,59,1366,768,1366,768,1-8-2024,13-37-8,23,VR_target_stimuli/s23_1x_3.65_353.png,1000,1x,3.65,2.7,7281,998,meters,jsons/MX_seq17_0_VE1000.json,434561,1116862,25,Man
23,742321,final-intermixed-textured,v2,jsons/MX_seq17_0_VE1000.json,http://54.235.29.9/FacialAge/BNav_EC2/DepthDuration/MX_fS_VE_MTurk/MX_fS_HTML.html#59,59,1366,768,1366,768,1-8-2024,13-37-8,24,VR_target_stimuli/s26_0.75x_4_430_BC.png,1000,0.75x,4.0,2.6,7771,998,meters,jsons/MX_seq17_0_VE1000.json,434561,1116862,25,Man
24,742321,final-intermixed-textured,v2,jsons/MX_seq17_0_VE1000.json,http://54.235.29.9/FacialAge/BNav_EC2/DepthDuration/MX_fS_VE_MTurk/MX_fS_HTML.html#59,59,1366,768,1366,768,1-8-2024,13-37-8,25,VR_target_stimuli/s12_1.3x_3.1_375_BC.png,1000,1.3x,3.1,3.4,6364,999,meters,jsons/MX_seq17_0_VE1000.json,434561,1116862,25,Man
25,742321,final-intermixed-textured,v2,jsons/MX_seq17_0_VE1000.json,http://54.235.29.9/FacialAge/BNav_EC2/DepthDuration/MX_fS_VE_MTurk/MX_fS_HTML.html#59,59,1366,768,1366,768,1-8-2024,13-37-8,26,catch_stimuli/c2.png,1000,,,0.0,4840,1000,meters,jsons/MX_seq17_0_VE1000.json,434561,1116862,25,Man
26,742321,final-intermixed-textured,v2,jsons/MX_seq17_0_VE1000.json,http://54.235.29.9/FacialAge/BNav_EC2/DepthDuration/MX_fS_VE_MTurk/MX_fS_HTML.html#59,59,1366,768,1366,768,1-8-2024,13-37-8,27,VR_target_stimuli/s30_1x_2.3_334_BC.png,1000,1x,2.3,1.5,6513,1000,meters,jsons/MX_seq17_0_VE1000.json,434561,1116862,25,Man
27,742321,final-intermixed-textured,v2,jsons/MX_seq17_0_VE1000.json,http://54.235.29.9/FacialAge/BNav_EC2/DepthDuration/MX_fS_VE_MTurk/MX_fS_HTML.html#59,59,1366,768,1366,768,1-8-2024,13-37-8,28,VR_target_stimuli/s16_1x_1_219_BC.png,1000,1x,1.0,1.0,4410,999,meters,jsons/MX_seq17_0_VE1000.json,434561,1116862,25,Man
28,742321,final-intermixed-textured,v2,jsons/MX_seq17_0_VE1000.json,http://54.235.29.9/FacialAge/BNav_EC2/DepthDuration/MX_fS_VE_MTurk/MX_fS_HTML.html#59,59,1366,768,1366,768,1-8-2024,13-37-8,29,VR_target_stimuli/s17_0.75x_1.8_285_BC.png,1000,0.75x,1.8,2.5,8524,999,meters,jsons/MX_seq17_0_VE1000.json,434561,1116862,25,Man
29,742321,final-intermixed-textured,v2,jsons/MX_seq17_0_VE1000.json,http://54.235.29.9/FacialAge/BNav_EC2/DepthDuration/MX_fS_VE_MTurk/MX_fS_HTML.html#59,59,1366,768,1366,768,1-8-2024,13-37-8,30,VR_target_stimuli/s5_1.3x_4_393.png,1000,1.3x,4.0,4.0,4348,998,meters,jsons/MX_seq17_0_VE1000.json,434561,1116862,25,Man
30,742321,final-intermixed-textured,v2,jsons/MX_seq17_0_VE1000.json,http://54.235.29.9/FacialAge/BNav_EC2/DepthDuration/MX_fS_VE_MTurk/MX_fS_HTML.html#59,59,1366,768,1366,768,1-8-2024,13-37-8,31,VR_target_stimuli/s37_1x_3.3_563.png,1000,1x,3.3,2.0,4704,999,meters,jsons/MX_seq17_0_VE1000.json,434561,1116862,25,Man
31,742321,final-intermixed-textured,v2,jsons/MX_seq17_0_VE1000.json,http://54.235.29.9/FacialAge/BNav_EC2/DepthDuration/MX_fS_VE_MTurk/MX_fS_HTML.html#59,59,1366,768,1366,768,1-8-2024,13-37-8,32,VR_target_stimuli/s46_1.3x_2.42_354_BC.png,1000,1.3x,2.42,2.2,7001,998,meters,jsons/MX_seq17_0_VE1000.json,434561,1116862,25,Man
32,742321,final-intermixed-textured,v2,jsons/MX_seq17_0_VE1000.json,http://54.235.29.9/FacialAge/BNav_EC2/DepthDuration/MX_fS_VE_MTurk/MX_fS_HTML.html#59,59,1366,768,1366,768,1-8-2024,13-37-8,33,VR_target_stimuli/s22_0.75x_4.29_348.png,1000,0.75x,4.29,5.0,7313,999,meters,jsons/MX_seq17_0_VE1000.json,434561,1116862,25,Man
33,742321,final-intermixed-textured,v2,jsons/MX_seq17_0_VE1000.json,http://54.235.29.9/FacialAge/BNav_EC2/DepthDuration/MX_fS_VE_MTurk/MX_fS_HTML.html#59,59,1366,768,1366,768,1-8-2024,13-37-8,34,catch_stimuli/c3.png,1000,,,0.0,4289,999,meters,jsons/MX_seq17_0_VE1000.json,434561,1116862,25,Man
34,742321,final-intermixed-textured,v2,jsons/MX_seq17_0_VE1000.json,http://54.235.29.9/FacialAge/BNav_EC2/DepthDuration/MX_fS_VE_MTurk/MX_fS_HTML.html#59,59,1366,768,1366,768,1-8-2024,13-37-8,35,VR_target_stimuli/s42_1.3x_3.2_305_BC.png,1000,1.3x,3.2,4.0,5105,1000,meters,jsons/MX_seq17_0_VE1000.json,434561,1116862,25,Man
35,742321,final-intermixed-textured,v2,jsons/MX_seq17_0_VE1000.json,http://54.235.29.9/FacialAge/BNav_EC2/DepthDuration/MX_fS_VE_MTurk/MX_fS_HTML.html#59,59,1366,768,1366,768,1-8-2024,13-37-8,36,VR_target_stimuli/s25_1x_1.4_290.png,1000,1x,1.4,2.0,4601,999,meters,jsons/MX_seq17_0_VE1000.json,434561,1116862,25,Man
36,742321,final-intermixed-textured,v2,jsons/MX_seq17_0_VE1000.json,http://54.235.29.9/FacialAge/BNav_EC2/DepthDuration/MX_fS_VE_MTurk/MX_fS_HTML.html#59,59,1366,768,1366,768,1-8-2024,13-37-8,37,VR_target_stimuli/s50_0.75x_4.53_517.png,1000,0.75x,4.53,2.3,9315,997,meters,jsons/MX_seq17_0_VE1000.json,434561,1116862,25,Man
37,742321,final-intermixed-textured,v2,jsons/MX_seq17_0_VE1000.json,http://54.235.29.9/FacialAge/BNav_EC2/DepthDuration/MX_fS_VE_MTurk/MX_fS_HTML.html#59,59,1366,768,1366,768,1-8-2024,13-37-8,38,VR_target_stimuli/s53_0.75x_1.6_403_BC.png,1000,0.75x,1.6,1.0,5877,998,meters,jsons/MX_seq17_0_VE1000.json,434561,1116862,25,Man
38,742321,final-intermixed-textured,v2,jsons/MX_seq17_0_VE1000.json,http://54.235.29.9/FacialAge/BNav_EC2/DepthDuration/MX_fS_VE_MTurk/MX_fS_HTML.html#59,59,1366,768,1366,768,1-8-2024,13-37-8,39,VR_target_stimuli/s38_1.3x_3.55_358.png,1000,1.3x,3.55,5.0,5841,999,meters,jsons/MX_seq17_0_VE1000.json,434561,1116862,25,Man
39,742321,final-intermixed-textured,v2,jsons/MX_seq17_0_VE1000.json,http://54.235.29.9/FacialAge/BNav_EC2/DepthDuration/MX_fS_VE_MTurk/MX_fS_HTML.html#59,59,1366,768,1366,768,1-8-2024,13-37-8,40,VR_target_stimuli/s9_1x_1.2_263_BC.png,1000,1x,1.2,1.2,7427,997,meters,jsons/MX_seq17_0_VE1000.json,434561,1116862,25,Man
40,742321,final-intermixed-textured,v2,jsons/MX_seq17_0_VE1000.json,http://54.235.29.9/FacialAge/BNav_EC2/DepthDuration/MX_fS_VE_MTurk/MX_fS_HTML.html#59,59,1366,768,1366,768,1-8-2024,13-37-8,41,VR_target_stimuli/s44_1.3x_4.4_325.png,1000,1.3x,4.4,5.0,5949,999,meters,jsons/MX_seq17_0_VE1000.json,434561,1116862,25,Man
41,742321,final-intermixed-textured,v2,jsons/MX_seq17_0_VE1000.json,http://54.235.29.9/FacialAge/BNav_EC2/DepthDuration/MX_fS_VE_MTurk/MX_fS_HTML.html#59,59,1366,768,1366,768,1-8-2024,13-37-8,42,VR_target_stimuli/s3_0.75x_5_381.png,1000,0.75x,5.0,5.0,4676,998,meters,jsons/MX_seq17_0_VE1000.json,434561,1116862,25,Man
42,742321,final-intermixed-textured,v2,jsons/MX_seq17_0_VE1000.json,http://54.235.29.9/FacialAge/BNav_EC2/DepthDuration/MX_fS_VE_MTurk/MX_fS_HTML.html#59,59,1366,768,1366,768,1-8-2024,13-37-8,43,VR_target_stimuli/s1_1x_1.7_262.png,1000,1x,1.7,2.5,10438,999,meters,jsons/MX_seq17_0_VE1000.json,434561,1116862,25,Man
43,742321,final-intermixed-textured,v2,jsons/MX_seq17_0_VE1000.json,http://54.235.29.9/FacialAge/BNav_EC2/DepthDuration/MX_fS_VE_MTurk/MX_fS_HTML.html#59,59,1366,768,1366,768,1-8-2024,13-37-8,44,VR_target_stimuli/s11_0.75x_5_359_BC.png,1000,0.75x,5.0,4.0,8657,998,meters,jsons/MX_seq17_0_VE1000.json,434561,1116862,25,Man
44,742321,final-intermixed-textured,v2,jsons/MX_seq17_0_VE1000.json,http://54.235.29.9/FacialAge/BNav_EC2/DepthDuration/MX_fS_VE_MTurk/MX_fS_HTML.html#59,59,1366,768,1366,768,1-8-2024,13-37-8,45,catch_stimuli/c4.png,1000,,,0.0,4807,998,meters,jsons/MX_seq17_0_VE1000.json,434561,1116862,25,Man
45,742321,final-intermixed-textured,v2,jsons/MX_seq17_0_VE1000.json,http://54.235.29.9/FacialAge/BNav_EC2/DepthDuration/MX_fS_VE_MTurk/MX_fS_HTML.html#59,59,1366,768,1366,768,1-8-2024,13-37-8,46,VR_target_stimuli/s2_1.3x_2.7_397_BC.png,1000,1.3x,2.7,2.0,4126,999,meters,jsons/MX_seq17_0_VE1000.json,434561,1116862,25,Man
46,742321,final-intermixed-textured,v2,jsons/MX_seq17_0_VE1000.json,http://54.235.29.9/FacialAge/BNav_EC2/DepthDuration/MX_fS_VE_MTurk/MX_fS_HTML.html#59,59,1366,768,1366,768,1-8-2024,13-37-8,47,VR_target_stimuli/s6_1x_2.1_293_BC.png,1000,1x,2.1,2.1,7090,1001,meters,jsons/MX_seq17_0_VE1000.json,434561,1116862,25,Man
47,742321,final-intermixed-textured,v2,jsons/MX_seq17_0_VE1000.json,http://54.235.29.9/FacialAge/BNav_EC2/DepthDuration/MX_fS_VE_MTurk/MX_fS_HTML.html#59,59,1366,768,1366,768,1-8-2024,13-37-8,48,VR_target_stimuli/s0_1x_2.6_351_BC.png,1000,1x,2.6,2.5,6007,998,meters,jsons/MX_seq17_0_VE1000.json,434561,1116862,25,Man
48,742321,final-intermixed-textured,v2,jsons/MX_seq17_0_VE1000.json,http://54.235.29.9/FacialAge/BNav_EC2/DepthDuration/MX_fS_VE_MTurk/MX_fS_HTML.html#59,59,1366,768,1366,768,1-8-2024,13-37-8,49,VR_target_stimuli/s34_0.75x_2.8_269.png,1000,0.75x,2.8,4.0,5194,998,meters,jsons/MX_seq17_0_VE1000.json,434561,1116862,25,Man
49,742321,final-intermixed-textured,v2,jsons/MX_seq17_0_VE1000.json,http://54.235.29.9/FacialAge/BNav_EC2/DepthDuration/MX_fS_VE_MTurk/MX_fS_HTML.html#59,59,1366,768,1366,768,1-8-2024,13-37-8,50,VR_target_stimuli/s13_1.3x_2.4_313.png,1000,1.3x,2.4,4.0,5521,998,meters,jsons/MX_seq17_0_VE1000.json,434561,1116862,25,Man
50,742321,final-intermixed-textured,v2,jsons/MX_seq17_0_VE1000.json,http://54.235.29.9/FacialAge/BNav_EC2/DepthDuration/MX_fS_VE_MTurk/MX_fS_HTML.html#59,59,1366,768,1366,768,1-8-2024,13-37-8,51,VR_target_stimuli/s14_0.75x_3.83_355_BC.png,1000,0.75x,3.83,4.5,7922,1001,meters,jsons/MX_seq17_0_VE1000.json,434561,1116862,25,Man
51,742321,final-intermixed-textured,v2,jsons/MX_seq17_0_VE1000.json,http://54.235.29.9/FacialAge/BNav_EC2/DepthDuration/MX_fS_VE_MTurk/MX_fS_HTML.html#59,59,1366,768,1366,768,1-8-2024,13-37-8,52,VR_target_stimuli/s47_1x_3.45_370.png,1000,1x,3.45,3.0,5444,998,meters,jsons/MX_seq17_0_VE1000.json,434561,1116862,25,Man
52,742321,final-intermixed-textured,v2,jsons/MX_seq17_0_VE1000.json,http://54.235.29.9/FacialAge/BNav_EC2/DepthDuration/MX_fS_VE_MTurk/MX_fS_HTML.html#59,59,1366,768,1366,768,1-8-2024,13-37-8,53,catch_stimuli/c5.png,1000,,,0.0,4407,997,meters,jsons/MX_seq17_0_VE1000.json,434561,1116862,25,Man
53,742321,final-intermixed-textured,v2,jsons/MX_seq17_0_VE1000.json,http://54.235.29.9/FacialAge/BNav_EC2/DepthDuration/MX_fS_VE_MTurk/MX_fS_HTML.html#59,59,1366,768,1366,768,1-8-2024,13-37-8,54,VR_target_stimuli/s29_1.3x_1.3_253_BC.png,1000,1.3x,1.3,1.0,5536,998,meters,jsons/MX_seq17_0_VE1000.json,434561,1116862,25,Man
54,742321,final-intermixed-textured,v2,jsons/MX_seq17_0_VE1000.json,http://54.235.29.9/FacialAge/BNav_EC2/DepthDuration/MX_fS_VE_MTurk/MX_fS_HTML.html#59,59,1366,768,1366,768,1-8-2024,13-37-8,55,VR_target_stimuli/s28_1x_3.2_362.png,1000,1x,3.2,2.5,6110,999,meters,jsons/MX_seq17_0_VE1000.json,434561,1116862,25,Man
55,742321,final-intermixed-textured,v2,jsons/MX_seq17_0_VE1000.json,http://54.235.29.9/FacialAge/BNav_EC2/DepthDuration/MX_fS_VE_MTurk/MX_fS_HTML.html#59,59,1366,768,1366,768,1-8-2024,13-37-8,56,VR_target_stimuli/s48_0.75x_2.55_243.png,1000,0.75x,2.55,3.0,5789,1000,meters,jsons/MX_seq17_0_VE1000.json,434561,1116862,25,Man
56,742321,final-intermixed-textured,v2,jsons/MX_seq17_0_VE1000.json,http://54.235.29.9/FacialAge/BNav_EC2/DepthDuration/MX_fS_VE_MTurk/MX_fS_HTML.html#59,59,1366,768,1366,768,1-8-2024,13-37-8,57,VR_target_stimuli/s19_1.3x_1.21_270_BC.png,1000,1.3x,1.21,1.0,5463,998,meters,jsons/MX_seq17_0_VE1000.json,434561,1116862,25,Man
57,742321,final-intermixed-textured,v2,jsons/MX_seq17_0_VE1000.json,http://54.235.29.9/FacialAge/BNav_EC2/DepthDuration/MX_fS_VE_MTurk/MX_fS_HTML.html#59,59,1366,768,1366,768,1-8-2024,13-37-8,58,VR_target_stimuli/s21_1.3x_4.22_384.png,1000,1.3x,4.22,3.5,6899,997,meters,jsons/MX_seq17_0_VE1000.json,434561,1116862,25,Man
58,742321,final-intermixed-textured,v2,jsons/MX_seq17_0_VE1000.json,http://54.235.29.9/FacialAge/BNav_EC2/DepthDuration/MX_fS_VE_MTurk/MX_fS_HTML.html#59,59,1366,768,1366,768,1-8-2024,13-37-8,59,VR_target_stimuli/s8_1x_3.1_332_BC.png,1000,1x,3.1,3.5,6008,998,meters,jsons/MX_seq17_0_VE1000.json,434561,1116862,25,Man
59,742321,final-intermixed-textured,v2,jsons/MX_seq17_0_VE1000.json,http://54.235.29.9/FacialAge/BNav_EC2/DepthDuration/MX_fS_VE_MTurk/MX_fS_HTML.html#59,59,1366,768,1366,768,1-8-2024,13-37-8,60,VR_target_stimuli/s27_0.75x_1.76_243_BC.png,1000,0.75x,1.76,2.5,7859,1000,meters,jsons/MX_seq17_0_VE1000.json,434561,1116862,25,Man
