,subjID,experimentName,versionName,sequenceName,url,selected_row,windowWidth,windowHeight,screenWidth,screenHeight,startDate,startTime,trial,stimulus,duration,scale,actual_depth,depth_estimate,trial_RT,log_sceneDuration,unitSelection,seq_filepath,experimentTime,totalTime,age,gender
0,764071,final-intermixed-textured,v2,jsons/MX_seq40_1_VE1000.json,http://54.235.29.9/FacialAge/BNav_EC2/DepthDuration/MX_fS_VE_MTurk/MX_fS_HTML.html#272,272,1325,658,1366,768,1-8-2024,15-47-27,1,VR_target_stimuli/s30_1.3x_2.3_337_BC.png,1000,1.3x,2.3,3.0,4403,1000,meters,jsons/MX_seq40_1_VE1000.json,337061,668724,28,Man
1,764071,final-intermixed-textured,v2,jsons/MX_seq40_1_VE1000.json,http://54.235.29.9/FacialAge/BNav_EC2/DepthDuration/MX_fS_VE_MTurk/MX_fS_HTML.html#272,272,1325,658,1366,768,1-8-2024,15-47-27,2,VR_target_stimuli/s16_0.75x_1_217.png,1000,0.75x,1.0,1.5,4456,999,meters,jsons/MX_seq40_1_VE1000.json,337061,668724,28,Man
2,764071,final-intermixed-textured,v2,jsons/MX_seq40_1_VE1000.json,http://54.235.29.9/FacialAge/BNav_EC2/DepthDuration/MX_fS_VE_MTurk/MX_fS_HTML.html#272,272,1325,658,1366,768,1-8-2024,15-47-27,3,VR_target_stimuli/s17_1x_1.8_291_BC.png,1000,1x,1.8,1.4,4335,999,meters,jsons/MX_seq40_1_VE1000.json,337061,668724,28,Man
3,764071,final-intermixed-textured,v2,jsons/MX_seq40_1_VE1000.json,http://54.235.29.9/FacialAge/BNav_EC2/DepthDuration/MX_fS_VE_MTurk/MX_fS_HTML.html#272,272,1325,658,1366,768,1-8-2024,15-47-27,4,VR_target_stimuli/s5_0.75x_4_375_BC.png,1000,0.75x,4.0,4.0,4093,1001,meters,jsons/MX_seq40_1_VE1000.json,337061,668724,28,Man
4,764071,final-intermixed-textured,v2,jsons/MX_seq40_1_VE1000.json,http://54.235.29.9/FacialAge/BNav_EC2/DepthDuration/MX_fS_VE_MTurk/MX_fS_HTML.html#272,272,1325,658,1366,768,1-8-2024,15-47-27,5,VR_target_stimuli/s37_1.3x_3.3_555.png,1000,1.3x,3.3,2.0,5303,1006,meters,jsons/MX_seq40_1_VE1000.json,337061,668724,28,Man
5,764071,final-intermixed-textured,v2,jsons/MX_seq40_1_VE1000.json,http://54.235.29.9/FacialAge/BNav_EC2/DepthDuration/MX_fS_VE_MTurk/MX_fS_HTML.html#272,272,1325,658,1366,768,1-8-2024,15-47-27,6,VR_target_stimuli/s46_1x_2.42_348.png,1000,1x,2.42,2.8,6876,999,meters,jsons/MX_seq40_1_VE1000.json,337061,668724,28,Man
6,764071,final-intermixed-textured,v2,jsons/MX_seq40_1_VE1000.json,http://54.235.29.9/FacialAge/BNav_EC2/DepthDuration/MX_fS_VE_MTurk/MX_fS_HTML.html#272,272,1325,658,1366,768,1-8-2024,15-47-27,7,catch_stimuli/c0.png,1000,,,0.0,2806,1008,meters,jsons/MX_seq40_1_VE1000.json,337061,668724,28,Man
7,764071,final-intermixed-textured,v2,jsons/MX_seq40_1_VE1000.json,http://54.235.29.9/FacialAge/BNav_EC2/DepthDuration/MX_fS_VE_MTurk/MX_fS_HTML.html#272,272,1325,658,1366,768,1-8-2024,15-47-27,8,VR_target_stimuli/s22_1x_4.29_354_BC.png,1000,1x,4.29,5.0,5314,1000,meters,jsons/MX_seq40_1_VE1000.json,337061,668724,28,Man
8,764071,final-intermixed-textured,v2,jsons/MX_seq40_1_VE1000.json,http://54.235.29.9/FacialAge/BNav_EC2/DepthDuration/MX_fS_VE_MTurk/MX_fS_HTML.html#272,272,1325,658,1366,768,1-8-2024,15-47-27,9,VR_target_stimuli/s42_0.75x_3.2_301_BC.png,1000,0.75x,3.2,6.0,3470,1000,meters,jsons/MX_seq40_1_VE1000.json,337061,668724,28,Man
9,764071,final-intermixed-textured,v2,jsons/MX_seq40_1_VE1000.json,http://54.235.29.9/FacialAge/BNav_EC2/DepthDuration/MX_fS_VE_MTurk/MX_fS_HTML.html#272,272,1325,658,1366,768,1-8-2024,15-47-27,10,VR_target_stimuli/s25_1.3x_1.4_299.png,1000,1.3x,1.4,1.0,3231,999,meters,jsons/MX_seq40_1_VE1000.json,337061,668724,28,Man
10,764071,final-intermixed-textured,v2,jsons/MX_seq40_1_VE1000.json,http://54.235.29.9/FacialAge/BNav_EC2/DepthDuration/MX_fS_VE_MTurk/MX_fS_HTML.html#272,272,1325,658,1366,768,1-8-2024,15-47-27,11,VR_target_stimuli/s50_0.75x_4.53_517.png,1000,0.75x,4.53,2.5,5375,999,meters,jsons/MX_seq40_1_VE1000.json,337061,668724,28,Man
11,764071,final-intermixed-textured,v2,jsons/MX_seq40_1_VE1000.json,http://54.235.29.9/FacialAge/BNav_EC2/DepthDuration/MX_fS_VE_MTurk/MX_fS_HTML.html#272,272,1325,658,1366,768,1-8-2024,15-47-27,12,VR_target_stimuli/s53_1x_1.6_387.png,1000,1x,1.6,0.75,5542,1000,meters,jsons/MX_seq40_1_VE1000.json,337061,668724,28,Man
12,764071,final-intermixed-textured,v2,jsons/MX_seq40_1_VE1000.json,http://54.235.29.9/FacialAge/BNav_EC2/DepthDuration/MX_fS_VE_MTurk/MX_fS_HTML.html#272,272,1325,658,1366,768,1-8-2024,15-47-27,13,VR_target_stimuli/s38_1.3x_3.55_358_BC.png,1000,1.3x,3.55,3.4,6086,1000,meters,jsons/MX_seq40_1_VE1000.json,337061,668724,28,Man
13,764071,final-intermixed-textured,v2,jsons/MX_seq40_1_VE1000.json,http://54.235.29.9/FacialAge/BNav_EC2/DepthDuration/MX_fS_VE_MTurk/MX_fS_HTML.html#272,272,1325,658,1366,768,1-8-2024,15-47-27,14,VR_target_stimuli/s9_1x_1.2_263.png,1000,1x,1.2,1.2,5958,1000,meters,jsons/MX_seq40_1_VE1000.json,337061,668724,28,Man
14,764071,final-intermixed-textured,v2,jsons/MX_seq40_1_VE1000.json,http://54.235.29.9/FacialAge/BNav_EC2/DepthDuration/MX_fS_VE_MTurk/MX_fS_HTML.html#272,272,1325,658,1366,768,1-8-2024,15-47-27,15,VR_target_stimuli/s44_0.75x_4.4_314.png,1000,0.75x,4.4,7.0,5176,999,meters,jsons/MX_seq40_1_VE1000.json,337061,668724,28,Man
15,764071,final-intermixed-textured,v2,jsons/MX_seq40_1_VE1000.json,http://54.235.29.9/FacialAge/BNav_EC2/DepthDuration/MX_fS_VE_MTurk/MX_fS_HTML.html#272,272,1325,658,1366,768,1-8-2024,15-47-27,16,VR_target_stimuli/s3_1.3x_5_390_BC.png,1000,1.3x,5.0,6.5,5010,1000,meters,jsons/MX_seq40_1_VE1000.json,337061,668724,28,Man
16,764071,final-intermixed-textured,v2,jsons/MX_seq40_1_VE1000.json,http://54.235.29.9/FacialAge/BNav_EC2/DepthDuration/MX_fS_VE_MTurk/MX_fS_HTML.html#272,272,1325,658,1366,768,1-8-2024,15-47-27,17,catch_stimuli/c1.png,1000,,,0.0,2785,1000,meters,jsons/MX_seq40_1_VE1000.json,337061,668724,28,Man
17,764071,final-intermixed-textured,v2,jsons/MX_seq40_1_VE1000.json,http://54.235.29.9/FacialAge/BNav_EC2/DepthDuration/MX_fS_VE_MTurk/MX_fS_HTML.html#272,272,1325,658,1366,768,1-8-2024,15-47-27,18,VR_target_stimuli/s1_1.3x_1.7_261.png,1000,1.3x,1.7,2.0,4793,1000,meters,jsons/MX_seq40_1_VE1000.json,337061,668724,28,Man
18,764071,final-intermixed-textured,v2,jsons/MX_seq40_1_VE1000.json,http://54.235.29.9/FacialAge/BNav_EC2/DepthDuration/MX_fS_VE_MTurk/MX_fS_HTML.html#272,272,1325,658,1366,768,1-8-2024,15-47-27,19,VR_target_stimuli/s11_1x_5_361_BC.png,1000,1x,5.0,7.0,3909,999,meters,jsons/MX_seq40_1_VE1000.json,337061,668724,28,Man
19,764071,final-intermixed-textured,v2,jsons/MX_seq40_1_VE1000.json,http://54.235.29.9/FacialAge/BNav_EC2/DepthDuration/MX_fS_VE_MTurk/MX_fS_HTML.html#272,272,1325,658,1366,768,1-8-2024,15-47-27,20,VR_target_stimuli/s2_0.75x_2.7_384_BC.png,1000,0.75x,2.7,2.5,3886,997,meters,jsons/MX_seq40_1_VE1000.json,337061,668724,28,Man
20,764071,final-intermixed-textured,v2,jsons/MX_seq40_1_VE1000.json,http://54.235.29.9/FacialAge/BNav_EC2/DepthDuration/MX_fS_VE_MTurk/MX_fS_HTML.html#272,272,1325,658,1366,768,1-8-2024,15-47-27,21,VR_target_stimuli/s6_1x_2.1_293.png,1000,1x,2.1,2.3,6489,1000,meters,jsons/MX_seq40_1_VE1000.json,337061,668724,28,Man
21,764071,final-intermixed-textured,v2,jsons/MX_seq40_1_VE1000.json,http://54.235.29.9/FacialAge/BNav_EC2/DepthDuration/MX_fS_VE_MTurk/MX_fS_HTML.html#272,272,1325,658,1366,768,1-8-2024,15-47-27,22,VR_target_stimuli/s0_1.3x_2.6_356.png,1000,1.3x,2.6,2.3,5941,1000,meters,jsons/MX_seq40_1_VE1000.json,337061,668724,28,Man
22,764071,final-intermixed-textured,v2,jsons/MX_seq40_1_VE1000.json,http://54.235.29.9/FacialAge/BNav_EC2/DepthDuration/MX_fS_VE_MTurk/MX_fS_HTML.html#272,272,1325,658,1366,768,1-8-2024,15-47-27,23,VR_target_stimuli/s34_0.75x_2.8_269.png,1000,0.75x,2.8,1.8,5173,1000,meters,jsons/MX_seq40_1_VE1000.json,337061,668724,28,Man
23,764071,final-intermixed-textured,v2,jsons/MX_seq40_1_VE1000.json,http://54.235.29.9/FacialAge/BNav_EC2/DepthDuration/MX_fS_VE_MTurk/MX_fS_HTML.html#272,272,1325,658,1366,768,1-8-2024,15-47-27,24,VR_target_stimuli/s13_1.3x_2.4_313_BC.png,1000,1.3x,2.4,2.0,3286,999,meters,jsons/MX_seq40_1_VE1000.json,337061,668724,28,Man
24,764071,final-intermixed-textured,v2,jsons/MX_seq40_1_VE1000.json,http://54.235.29.9/FacialAge/BNav_EC2/DepthDuration/MX_fS_VE_MTurk/MX_fS_HTML.html#272,272,1325,658,1366,768,1-8-2024,15-47-27,25,VR_target_stimuli/s14_1x_ 3.83_357_BC.png,1000,1x,3.83,3.2,4630,998,meters,jsons/MX_seq40_1_VE1000.json,337061,668724,28,Man
25,764071,final-intermixed-textured,v2,jsons/MX_seq40_1_VE1000.json,http://54.235.29.9/FacialAge/BNav_EC2/DepthDuration/MX_fS_VE_MTurk/MX_fS_HTML.html#272,272,1325,658,1366,768,1-8-2024,15-47-27,26,catch_stimuli/c2.png,1000,,,0.0,9185,1000,meters,jsons/MX_seq40_1_VE1000.json,337061,668724,28,Man
26,764071,final-intermixed-textured,v2,jsons/MX_seq40_1_VE1000.json,http://54.235.29.9/FacialAge/BNav_EC2/DepthDuration/MX_fS_VE_MTurk/MX_fS_HTML.html#272,272,1325,658,1366,768,1-8-2024,15-47-27,27,VR_target_stimuli/s47_0.75x_3.45_366_BC.png,1000,0.75x,3.45,2.0,4400,1000,meters,jsons/MX_seq40_1_VE1000.json,337061,668724,28,Man
27,764071,final-intermixed-textured,v2,jsons/MX_seq40_1_VE1000.json,http://54.235.29.9/FacialAge/BNav_EC2/DepthDuration/MX_fS_VE_MTurk/MX_fS_HTML.html#272,272,1325,658,1366,768,1-8-2024,15-47-27,28,VR_target_stimuli/s29_0.75x_1.3_246.png,1000,0.75x,1.3,1.5,3924,999,meters,jsons/MX_seq40_1_VE1000.json,337061,668724,28,Man
28,764071,final-intermixed-textured,v2,jsons/MX_seq40_1_VE1000.json,http://54.235.29.9/FacialAge/BNav_EC2/DepthDuration/MX_fS_VE_MTurk/MX_fS_HTML.html#272,272,1325,658,1366,768,1-8-2024,15-47-27,29,VR_target_stimuli/s28_1.3x_3.2_365.png,1000,1.3x,3.2,3.5,5773,1000,meters,jsons/MX_seq40_1_VE1000.json,337061,668724,28,Man
29,764071,final-intermixed-textured,v2,jsons/MX_seq40_1_VE1000.json,http://54.235.29.9/FacialAge/BNav_EC2/DepthDuration/MX_fS_VE_MTurk/MX_fS_HTML.html#272,272,1325,658,1366,768,1-8-2024,15-47-27,30,VR_target_stimuli/s48_1x_2.55_256_BC.png,1000,1x,2.55,1.8,7445,999,meters,jsons/MX_seq40_1_VE1000.json,337061,668724,28,Man
30,764071,final-intermixed-textured,v2,jsons/MX_seq40_1_VE1000.json,http://54.235.29.9/FacialAge/BNav_EC2/DepthDuration/MX_fS_VE_MTurk/MX_fS_HTML.html#272,272,1325,658,1366,768,1-8-2024,15-47-27,31,VR_target_stimuli/s19_0.75x_1.21_257_BC.png,1000,0.75x,1.21,1.1,3853,999,meters,jsons/MX_seq40_1_VE1000.json,337061,668724,28,Man
31,764071,final-intermixed-textured,v2,jsons/MX_seq40_1_VE1000.json,http://54.235.29.9/FacialAge/BNav_EC2/DepthDuration/MX_fS_VE_MTurk/MX_fS_HTML.html#272,272,1325,658,1366,768,1-8-2024,15-47-27,32,VR_target_stimuli/s21_1x_4.22_379.png,1000,1x,4.22,6.5,5096,1000,meters,jsons/MX_seq40_1_VE1000.json,337061,668724,28,Man
32,764071,final-intermixed-textured,v2,jsons/MX_seq40_1_VE1000.json,http://54.235.29.9/FacialAge/BNav_EC2/DepthDuration/MX_fS_VE_MTurk/MX_fS_HTML.html#272,272,1325,658,1366,768,1-8-2024,15-47-27,33,VR_target_stimuli/s8_1.3x_3.1_345_BC.png,1000,1.3x,3.1,2.5,5572,1000,meters,jsons/MX_seq40_1_VE1000.json,337061,668724,28,Man
33,764071,final-intermixed-textured,v2,jsons/MX_seq40_1_VE1000.json,http://54.235.29.9/FacialAge/BNav_EC2/DepthDuration/MX_fS_VE_MTurk/MX_fS_HTML.html#272,272,1325,658,1366,768,1-8-2024,15-47-27,34,catch_stimuli/c3.png,1000,,,0.0,2940,1000,meters,jsons/MX_seq40_1_VE1000.json,337061,668724,28,Man
34,764071,final-intermixed-textured,v2,jsons/MX_seq40_1_VE1000.json,http://54.235.29.9/FacialAge/BNav_EC2/DepthDuration/MX_fS_VE_MTurk/MX_fS_HTML.html#272,272,1325,658,1366,768,1-8-2024,15-47-27,35,VR_target_stimuli/s27_1x_1.76_248.png,1000,1x,1.76,1.7,5420,1000,meters,jsons/MX_seq40_1_VE1000.json,337061,668724,28,Man
35,764071,final-intermixed-textured,v2,jsons/MX_seq40_1_VE1000.json,http://54.235.29.9/FacialAge/BNav_EC2/DepthDuration/MX_fS_VE_MTurk/MX_fS_HTML.html#272,272,1325,658,1366,768,1-8-2024,15-47-27,36,VR_target_stimuli/s15_0.75x_4.2_388_BC.png,1000,0.75x,4.2,3.0,3216,995,meters,jsons/MX_seq40_1_VE1000.json,337061,668724,28,Man
36,764071,final-intermixed-textured,v2,jsons/MX_seq40_1_VE1000.json,http://54.235.29.9/FacialAge/BNav_EC2/DepthDuration/MX_fS_VE_MTurk/MX_fS_HTML.html#272,272,1325,658,1366,768,1-8-2024,15-47-27,37,VR_target_stimuli/s4_1.3x_1.4_328.png,1000,1.3x,1.4,1.6,4609,1000,meters,jsons/MX_seq40_1_VE1000.json,337061,668724,28,Man
37,764071,final-intermixed-textured,v2,jsons/MX_seq40_1_VE1000.json,http://54.235.29.9/FacialAge/BNav_EC2/DepthDuration/MX_fS_VE_MTurk/MX_fS_HTML.html#272,272,1325,658,1366,768,1-8-2024,15-47-27,38,VR_target_stimuli/s35_1.3x_2_338_BC.png,1000,1.3x,2.0,1.8,4664,999,meters,jsons/MX_seq40_1_VE1000.json,337061,668724,28,Man
38,764071,final-intermixed-textured,v2,jsons/MX_seq40_1_VE1000.json,http://54.235.29.9/FacialAge/BNav_EC2/DepthDuration/MX_fS_VE_MTurk/MX_fS_HTML.html#272,272,1325,658,1366,768,1-8-2024,15-47-27,39,VR_target_stimuli/s49_1x_4.67_341_BC.png,1000,1x,4.67,4.0,4256,999,meters,jsons/MX_seq40_1_VE1000.json,337061,668724,28,Man
39,764071,final-intermixed-textured,v2,jsons/MX_seq40_1_VE1000.json,http://54.235.29.9/FacialAge/BNav_EC2/DepthDuration/MX_fS_VE_MTurk/MX_fS_HTML.html#272,272,1325,658,1366,768,1-8-2024,15-47-27,40,VR_target_stimuli/s7_0.75x_1.5_253.png,1000,0.75x,1.5,2.0,4960,999,meters,jsons/MX_seq40_1_VE1000.json,337061,668724,28,Man
40,764071,final-intermixed-textured,v2,jsons/MX_seq40_1_VE1000.json,http://54.235.29.9/FacialAge/BNav_EC2/DepthDuration/MX_fS_VE_MTurk/MX_fS_HTML.html#272,272,1325,658,1366,768,1-8-2024,15-47-27,41,VR_target_stimuli/s20_1x_4.99_398_BC.png,1000,1x,4.99,4.1,4947,1000,meters,jsons/MX_seq40_1_VE1000.json,337061,668724,28,Man
41,764071,final-intermixed-textured,v2,jsons/MX_seq40_1_VE1000.json,http://54.235.29.9/FacialAge/BNav_EC2/DepthDuration/MX_fS_VE_MTurk/MX_fS_HTML.html#272,272,1325,658,1366,768,1-8-2024,15-47-27,42,VR_target_stimuli/s31_1.3x_4.96_342.png,1000,1.3x,4.96,1.6,6519,1000,meters,jsons/MX_seq40_1_VE1000.json,337061,668724,28,Man
42,764071,final-intermixed-textured,v2,jsons/MX_seq40_1_VE1000.json,http://54.235.29.9/FacialAge/BNav_EC2/DepthDuration/MX_fS_VE_MTurk/MX_fS_HTML.html#272,272,1325,658,1366,768,1-8-2024,15-47-27,43,VR_target_stimuli/s33_0.75x_3.1_361.png,1000,0.75x,3.1,2.4,5333,999,meters,jsons/MX_seq40_1_VE1000.json,337061,668724,28,Man
43,764071,final-intermixed-textured,v2,jsons/MX_seq40_1_VE1000.json,http://54.235.29.9/FacialAge/BNav_EC2/DepthDuration/MX_fS_VE_MTurk/MX_fS_HTML.html#272,272,1325,658,1366,768,1-8-2024,15-47-27,44,VR_target_stimuli/s52_1.3x_3.2_280_BC.png,1000,1.3x,3.2,3.0,3880,999,meters,jsons/MX_seq40_1_VE1000.json,337061,668724,28,Man
44,764071,final-intermixed-textured,v2,jsons/MX_seq40_1_VE1000.json,http://54.235.29.9/FacialAge/BNav_EC2/DepthDuration/MX_fS_VE_MTurk/MX_fS_HTML.html#272,272,1325,658,1366,768,1-8-2024,15-47-27,45,catch_stimuli/c4.png,1000,,,0.0,2719,999,meters,jsons/MX_seq40_1_VE1000.json,337061,668724,28,Man
45,764071,final-intermixed-textured,v2,jsons/MX_seq40_1_VE1000.json,http://54.235.29.9/FacialAge/BNav_EC2/DepthDuration/MX_fS_VE_MTurk/MX_fS_HTML.html#272,272,1325,658,1366,768,1-8-2024,15-47-27,46,VR_target_stimuli/s32_1x_1.5_218.png,1000,1x,1.5,2.8,4358,1000,meters,jsons/MX_seq40_1_VE1000.json,337061,668724,28,Man
46,764071,final-intermixed-textured,v2,jsons/MX_seq40_1_VE1000.json,http://54.235.29.9/FacialAge/BNav_EC2/DepthDuration/MX_fS_VE_MTurk/MX_fS_HTML.html#272,272,1325,658,1366,768,1-8-2024,15-47-27,47,VR_target_stimuli/s18_0.75x_2.25_341_BC.png,1000,0.75x,2.25,1.8,7646,1000,meters,jsons/MX_seq40_1_VE1000.json,337061,668724,28,Man
47,764071,final-intermixed-textured,v2,jsons/MX_seq40_1_VE1000.json,http://54.235.29.9/FacialAge/BNav_EC2/DepthDuration/MX_fS_VE_MTurk/MX_fS_HTML.html#272,272,1325,658,1366,768,1-8-2024,15-47-27,48,VR_target_stimuli/s39_0.75x_1_205.png,1000,0.75x,1.0,1.2,5096,1000,meters,jsons/MX_seq40_1_VE1000.json,337061,668724,28,Man
48,764071,final-intermixed-textured,v2,jsons/MX_seq40_1_VE1000.json,http://54.235.29.9/FacialAge/BNav_EC2/DepthDuration/MX_fS_VE_MTurk/MX_fS_HTML.html#272,272,1325,658,1366,768,1-8-2024,15-47-27,49,VR_target_stimuli/s51_1.3x_3.64_479_BC.png,1000,1.3x,3.64,3.4,4127,999,meters,jsons/MX_seq40_1_VE1000.json,337061,668724,28,Man
49,764071,final-intermixed-textured,v2,jsons/MX_seq40_1_VE1000.json,http://54.235.29.9/FacialAge/BNav_EC2/DepthDuration/MX_fS_VE_MTurk/MX_fS_HTML.html#272,272,1325,658,1366,768,1-8-2024,15-47-27,50,VR_target_stimuli/s43_1x_2.2_354_BC.png,1000,1x,2.2,3.8,4794,1000,meters,jsons/MX_seq40_1_VE1000.json,337061,668724,28,Man
50,764071,final-intermixed-textured,v2,jsons/MX_seq40_1_VE1000.json,http://54.235.29.9/FacialAge/BNav_EC2/DepthDuration/MX_fS_VE_MTurk/MX_fS_HTML.html#272,272,1325,658,1366,768,1-8-2024,15-47-27,51,VR_target_stimuli/s24_1.3x_3.3_352.png,1000,1.3x,3.3,2.8,4818,1008,meters,jsons/MX_seq40_1_VE1000.json,337061,668724,28,Man
51,764071,final-intermixed-textured,v2,jsons/MX_seq40_1_VE1000.json,http://54.235.29.9/FacialAge/BNav_EC2/DepthDuration/MX_fS_VE_MTurk/MX_fS_HTML.html#272,272,1325,658,1366,768,1-8-2024,15-47-27,52,VR_target_stimuli/s10_0.75x_2.7_321_BC.png,1000,0.75x,2.7,2.2,8262,999,meters,jsons/MX_seq40_1_VE1000.json,337061,668724,28,Man
52,764071,final-intermixed-textured,v2,jsons/MX_seq40_1_VE1000.json,http://54.235.29.9/FacialAge/BNav_EC2/DepthDuration/MX_fS_VE_MTurk/MX_fS_HTML.html#272,272,1325,658,1366,768,1-8-2024,15-47-27,53,catch_stimuli/c5.png,1000,,,0.0,3879,996,meters,jsons/MX_seq40_1_VE1000.json,337061,668724,28,Man
53,764071,final-intermixed-textured,v2,jsons/MX_seq40_1_VE1000.json,http://54.235.29.9/FacialAge/BNav_EC2/DepthDuration/MX_fS_VE_MTurk/MX_fS_HTML.html#272,272,1325,658,1366,768,1-8-2024,15-47-27,54,VR_target_stimuli/s36_1x_4.1_423.png,1000,1x,4.1,4.8,4971,999,meters,jsons/MX_seq40_1_VE1000.json,337061,668724,28,Man
54,764071,final-intermixed-textured,v2,jsons/MX_seq40_1_VE1000.json,http://54.235.29.9/FacialAge/BNav_EC2/DepthDuration/MX_fS_VE_MTurk/MX_fS_HTML.html#272,272,1325,658,1366,768,1-8-2024,15-47-27,55,VR_target_stimuli/s40_0.75x_1.2_308_BC.png,1000,0.75x,1.2,1.1,6174,1008,meters,jsons/MX_seq40_1_VE1000.json,337061,668724,28,Man
55,764071,final-intermixed-textured,v2,jsons/MX_seq40_1_VE1000.json,http://54.235.29.9/FacialAge/BNav_EC2/DepthDuration/MX_fS_VE_MTurk/MX_fS_HTML.html#272,272,1325,658,1366,768,1-8-2024,15-47-27,56,VR_target_stimuli/s41_1.3x_2.1_294_BC.png,1000,1.3x,2.1,1.5,6719,1000,meters,jsons/MX_seq40_1_VE1000.json,337061,668724,28,Man
56,764071,final-intermixed-textured,v2,jsons/MX_seq40_1_VE1000.json,http://54.235.29.9/FacialAge/BNav_EC2/DepthDuration/MX_fS_VE_MTurk/MX_fS_HTML.html#272,272,1325,658,1366,768,1-8-2024,15-47-27,57,VR_target_stimuli/s45_1x_3.5_368.png,1000,1x,3.5,1.6,12812,999,meters,jsons/MX_seq40_1_VE1000.json,337061,668724,28,Man
57,764071,final-intermixed-textured,v2,jsons/MX_seq40_1_VE1000.json,http://54.235.29.9/FacialAge/BNav_EC2/DepthDuration/MX_fS_VE_MTurk/MX_fS_HTML.html#272,272,1325,658,1366,768,1-8-2024,15-47-27,58,VR_target_stimuli/s23_1x_3.65_353_BC.png,1000,1x,3.65,1.8,5638,1000,meters,jsons/MX_seq40_1_VE1000.json,337061,668724,28,Man
58,764071,final-intermixed-textured,v2,jsons/MX_seq40_1_VE1000.json,http://54.235.29.9/FacialAge/BNav_EC2/DepthDuration/MX_fS_VE_MTurk/MX_fS_HTML.html#272,272,1325,658,1366,768,1-8-2024,15-47-27,59,VR_target_stimuli/s26_0.75x_4_430.png,1000,0.75x,4.0,2.3,5694,1000,meters,jsons/MX_seq40_1_VE1000.json,337061,668724,28,Man
59,764071,final-intermixed-textured,v2,jsons/MX_seq40_1_VE1000.json,http://54.235.29.9/FacialAge/BNav_EC2/DepthDuration/MX_fS_VE_MTurk/MX_fS_HTML.html#272,272,1325,658,1366,768,1-8-2024,15-47-27,60,VR_target_stimuli/s12_1.3x_3.1_375.png,1000,1.3x,3.1,2.4,4734,1000,meters,jsons/MX_seq40_1_VE1000.json,337061,668724,28,Man
