,subjID,experimentName,versionName,sequenceName,url,selected_row,windowWidth,windowHeight,screenWidth,screenHeight,startDate,startTime,trial,stimulus,duration,scale,actual_depth,depth_estimate,trial_RT,log_sceneDuration,unitSelection,seq_filepath,experimentTime,totalTime,age,gender
0,781900,final-intermixed-textured,v2,jsons/MX_seq24_0_VE1000.json,http://54.235.29.9/FacialAge/BNav_EC2/DepthDuration/MX_fS_VE_MTurk/MX_fS_HTML.html#99,99,1280,559,1280,720,1-8-2024,11-32-24,1,VR_target_stimuli/s33_0.75x_3.1_361_BC.png,1000,0.75x,3.1,5,3601,1006,meters,jsons/MX_seq24_0_VE1000.json,232838,494808,26,Woman
1,781900,final-intermixed-textured,v2,jsons/MX_seq24_0_VE1000.json,http://54.235.29.9/FacialAge/BNav_EC2/DepthDuration/MX_fS_VE_MTurk/MX_fS_HTML.html#99,99,1280,559,1280,720,1-8-2024,11-32-24,2,VR_target_stimuli/s52_1x_3.2_275_BC.png,1000,1x,3.2,4,3918,1000,meters,jsons/MX_seq24_0_VE1000.json,232838,494808,26,Woman
2,781900,final-intermixed-textured,v2,jsons/MX_seq24_0_VE1000.json,http://54.235.29.9/FacialAge/BNav_EC2/DepthDuration/MX_fS_VE_MTurk/MX_fS_HTML.html#99,99,1280,559,1280,720,1-8-2024,11-32-24,3,VR_target_stimuli/s32_1.3x_1.5_224.png,1000,1.3x,1.5,3,3164,1001,meters,jsons/MX_seq24_0_VE1000.json,232838,494808,26,Woman
3,781900,final-intermixed-textured,v2,jsons/MX_seq24_0_VE1000.json,http://54.235.29.9/FacialAge/BNav_EC2/DepthDuration/MX_fS_VE_MTurk/MX_fS_HTML.html#99,99,1280,559,1280,720,1-8-2024,11-32-24,4,VR_target_stimuli/s18_1x_2.25_353.png,1000,1x,2.25,3,2714,998,meters,jsons/MX_seq24_0_VE1000.json,232838,494808,26,Woman
4,781900,final-intermixed-textured,v2,jsons/MX_seq24_0_VE1000.json,http://54.235.29.9/FacialAge/BNav_EC2/DepthDuration/MX_fS_VE_MTurk/MX_fS_HTML.html#99,99,1280,559,1280,720,1-8-2024,11-32-24,5,VR_target_stimuli/s39_0.75x_1_205.png,1000,0.75x,1.0,2,4025,998,meters,jsons/MX_seq24_0_VE1000.json,232838,494808,26,Woman
5,781900,final-intermixed-textured,v2,jsons/MX_seq24_0_VE1000.json,http://54.235.29.9/FacialAge/BNav_EC2/DepthDuration/MX_fS_VE_MTurk/MX_fS_HTML.html#99,99,1280,559,1280,720,1-8-2024,11-32-24,6,VR_target_stimuli/s51_1.3x_3.64_479_BC.png,1000,1.3x,3.64,3,2941,1001,meters,jsons/MX_seq24_0_VE1000.json,232838,494808,26,Woman
6,781900,final-intermixed-textured,v2,jsons/MX_seq24_0_VE1000.json,http://54.235.29.9/FacialAge/BNav_EC2/DepthDuration/MX_fS_VE_MTurk/MX_fS_HTML.html#99,99,1280,559,1280,720,1-8-2024,11-32-24,7,catch_stimuli/c0.png,1000,,,0,6697,987,meters,jsons/MX_seq24_0_VE1000.json,232838,494808,26,Woman
7,781900,final-intermixed-textured,v2,jsons/MX_seq24_0_VE1000.json,http://54.235.29.9/FacialAge/BNav_EC2/DepthDuration/MX_fS_VE_MTurk/MX_fS_HTML.html#99,99,1280,559,1280,720,1-8-2024,11-32-24,8,VR_target_stimuli/s43_1.3x_2.2_363.png,1000,1.3x,2.2,3,3135,1011,meters,jsons/MX_seq24_0_VE1000.json,232838,494808,26,Woman
8,781900,final-intermixed-textured,v2,jsons/MX_seq24_0_VE1000.json,http://54.235.29.9/FacialAge/BNav_EC2/DepthDuration/MX_fS_VE_MTurk/MX_fS_HTML.html#99,99,1280,559,1280,720,1-8-2024,11-32-24,9,VR_target_stimuli/s24_1x_3.3_349_BC.png,1000,1x,3.3,5,6197,1000,meters,jsons/MX_seq24_0_VE1000.json,232838,494808,26,Woman
9,781900,final-intermixed-textured,v2,jsons/MX_seq24_0_VE1000.json,http://54.235.29.9/FacialAge/BNav_EC2/DepthDuration/MX_fS_VE_MTurk/MX_fS_HTML.html#99,99,1280,559,1280,720,1-8-2024,11-32-24,10,VR_target_stimuli/s10_0.75x_2.7_321_BC.png,1000,0.75x,2.7,5,2750,991,meters,jsons/MX_seq24_0_VE1000.json,232838,494808,26,Woman
10,781900,final-intermixed-textured,v2,jsons/MX_seq24_0_VE1000.json,http://54.235.29.9/FacialAge/BNav_EC2/DepthDuration/MX_fS_VE_MTurk/MX_fS_HTML.html#99,99,1280,559,1280,720,1-8-2024,11-32-24,11,VR_target_stimuli/s36_1x_4.1_423.png,1000,1x,4.1,6,3652,999,meters,jsons/MX_seq24_0_VE1000.json,232838,494808,26,Woman
11,781900,final-intermixed-textured,v2,jsons/MX_seq24_0_VE1000.json,http://54.235.29.9/FacialAge/BNav_EC2/DepthDuration/MX_fS_VE_MTurk/MX_fS_HTML.html#99,99,1280,559,1280,720,1-8-2024,11-32-24,12,VR_target_stimuli/s40_1.3x_1.2_332_BC.png,1000,1.3x,1.2,2,2524,956,meters,jsons/MX_seq24_0_VE1000.json,232838,494808,26,Woman
12,781900,final-intermixed-textured,v2,jsons/MX_seq24_0_VE1000.json,http://54.235.29.9/FacialAge/BNav_EC2/DepthDuration/MX_fS_VE_MTurk/MX_fS_HTML.html#99,99,1280,559,1280,720,1-8-2024,11-32-24,13,VR_target_stimuli/s41_0.75x_2.1_281.png,1000,0.75x,2.1,4,2765,1020,meters,jsons/MX_seq24_0_VE1000.json,232838,494808,26,Woman
13,781900,final-intermixed-textured,v2,jsons/MX_seq24_0_VE1000.json,http://54.235.29.9/FacialAge/BNav_EC2/DepthDuration/MX_fS_VE_MTurk/MX_fS_HTML.html#99,99,1280,559,1280,720,1-8-2024,11-32-24,14,VR_target_stimuli/s45_1.3x_3.5_377.png,1000,1.3x,3.5,5,2927,1002,meters,jsons/MX_seq24_0_VE1000.json,232838,494808,26,Woman
14,781900,final-intermixed-textured,v2,jsons/MX_seq24_0_VE1000.json,http://54.235.29.9/FacialAge/BNav_EC2/DepthDuration/MX_fS_VE_MTurk/MX_fS_HTML.html#99,99,1280,559,1280,720,1-8-2024,11-32-24,15,VR_target_stimuli/s23_1x_3.65_353.png,1000,1x,3.65,5,2917,997,meters,jsons/MX_seq24_0_VE1000.json,232838,494808,26,Woman
15,781900,final-intermixed-textured,v2,jsons/MX_seq24_0_VE1000.json,http://54.235.29.9/FacialAge/BNav_EC2/DepthDuration/MX_fS_VE_MTurk/MX_fS_HTML.html#99,99,1280,559,1280,720,1-8-2024,11-32-24,16,VR_target_stimuli/s26_0.75x_4_430_BC.png,1000,0.75x,4.0,4,2733,1009,meters,jsons/MX_seq24_0_VE1000.json,232838,494808,26,Woman
16,781900,final-intermixed-textured,v2,jsons/MX_seq24_0_VE1000.json,http://54.235.29.9/FacialAge/BNav_EC2/DepthDuration/MX_fS_VE_MTurk/MX_fS_HTML.html#99,99,1280,559,1280,720,1-8-2024,11-32-24,17,catch_stimuli/c1.png,1000,,,0,2992,1072,meters,jsons/MX_seq24_0_VE1000.json,232838,494808,26,Woman
17,781900,final-intermixed-textured,v2,jsons/MX_seq24_0_VE1000.json,http://54.235.29.9/FacialAge/BNav_EC2/DepthDuration/MX_fS_VE_MTurk/MX_fS_HTML.html#99,99,1280,559,1280,720,1-8-2024,11-32-24,18,VR_target_stimuli/s12_0.75x_3.1_364.png,1000,0.75x,3.1,4,2765,1054,meters,jsons/MX_seq24_0_VE1000.json,232838,494808,26,Woman
18,781900,final-intermixed-textured,v2,jsons/MX_seq24_0_VE1000.json,http://54.235.29.9/FacialAge/BNav_EC2/DepthDuration/MX_fS_VE_MTurk/MX_fS_HTML.html#99,99,1280,559,1280,720,1-8-2024,11-32-24,19,VR_target_stimuli/s30_1.3x_2.3_337_BC.png,1000,1.3x,2.3,4,2933,1099,meters,jsons/MX_seq24_0_VE1000.json,232838,494808,26,Woman
19,781900,final-intermixed-textured,v2,jsons/MX_seq24_0_VE1000.json,http://54.235.29.9/FacialAge/BNav_EC2/DepthDuration/MX_fS_VE_MTurk/MX_fS_HTML.html#99,99,1280,559,1280,720,1-8-2024,11-32-24,20,VR_target_stimuli/s16_1x_1_219_BC.png,1000,1x,1.0,2,2795,997,meters,jsons/MX_seq24_0_VE1000.json,232838,494808,26,Woman
20,781900,final-intermixed-textured,v2,jsons/MX_seq24_0_VE1000.json,http://54.235.29.9/FacialAge/BNav_EC2/DepthDuration/MX_fS_VE_MTurk/MX_fS_HTML.html#99,99,1280,559,1280,720,1-8-2024,11-32-24,21,VR_target_stimuli/s17_1.3x_1.8_300_BC.png,1000,1.3x,1.8,3,3244,1034,meters,jsons/MX_seq24_0_VE1000.json,232838,494808,26,Woman
21,781900,final-intermixed-textured,v2,jsons/MX_seq24_0_VE1000.json,http://54.235.29.9/FacialAge/BNav_EC2/DepthDuration/MX_fS_VE_MTurk/MX_fS_HTML.html#99,99,1280,559,1280,720,1-8-2024,11-32-24,22,VR_target_stimuli/s5_0.75x_4_375_BC.png,1000,0.75x,4.0,5,3015,997,meters,jsons/MX_seq24_0_VE1000.json,232838,494808,26,Woman
22,781900,final-intermixed-textured,v2,jsons/MX_seq24_0_VE1000.json,http://54.235.29.9/FacialAge/BNav_EC2/DepthDuration/MX_fS_VE_MTurk/MX_fS_HTML.html#99,99,1280,559,1280,720,1-8-2024,11-32-24,23,VR_target_stimuli/s37_1x_3.3_563_BC.png,1000,1x,3.3,4,3470,998,meters,jsons/MX_seq24_0_VE1000.json,232838,494808,26,Woman
23,781900,final-intermixed-textured,v2,jsons/MX_seq24_0_VE1000.json,http://54.235.29.9/FacialAge/BNav_EC2/DepthDuration/MX_fS_VE_MTurk/MX_fS_HTML.html#99,99,1280,559,1280,720,1-8-2024,11-32-24,24,VR_target_stimuli/s46_0.75x_2.42_343.png,1000,0.75x,2.42,5,3558,1106,meters,jsons/MX_seq24_0_VE1000.json,232838,494808,26,Woman
24,781900,final-intermixed-textured,v2,jsons/MX_seq24_0_VE1000.json,http://54.235.29.9/FacialAge/BNav_EC2/DepthDuration/MX_fS_VE_MTurk/MX_fS_HTML.html#99,99,1280,559,1280,720,1-8-2024,11-32-24,25,VR_target_stimuli/s22_1.3x_4.29_364.png,1000,1.3x,4.29,5,3854,1064,meters,jsons/MX_seq24_0_VE1000.json,232838,494808,26,Woman
25,781900,final-intermixed-textured,v2,jsons/MX_seq24_0_VE1000.json,http://54.235.29.9/FacialAge/BNav_EC2/DepthDuration/MX_fS_VE_MTurk/MX_fS_HTML.html#99,99,1280,559,1280,720,1-8-2024,11-32-24,26,catch_stimuli/c2.png,1000,,,0,3892,1053,meters,jsons/MX_seq24_0_VE1000.json,232838,494808,26,Woman
26,781900,final-intermixed-textured,v2,jsons/MX_seq24_0_VE1000.json,http://54.235.29.9/FacialAge/BNav_EC2/DepthDuration/MX_fS_VE_MTurk/MX_fS_HTML.html#99,99,1280,559,1280,720,1-8-2024,11-32-24,27,VR_target_stimuli/s42_1x_3.2_303.png,1000,1x,3.2,4,3246,1000,meters,jsons/MX_seq24_0_VE1000.json,232838,494808,26,Woman
27,781900,final-intermixed-textured,v2,jsons/MX_seq24_0_VE1000.json,http://54.235.29.9/FacialAge/BNav_EC2/DepthDuration/MX_fS_VE_MTurk/MX_fS_HTML.html#99,99,1280,559,1280,720,1-8-2024,11-32-24,28,VR_target_stimuli/s25_1x_1.4_290.png,1000,1x,1.4,2,3652,997,meters,jsons/MX_seq24_0_VE1000.json,232838,494808,26,Woman
28,781900,final-intermixed-textured,v2,jsons/MX_seq24_0_VE1000.json,http://54.235.29.9/FacialAge/BNav_EC2/DepthDuration/MX_fS_VE_MTurk/MX_fS_HTML.html#99,99,1280,559,1280,720,1-8-2024,11-32-24,29,VR_target_stimuli/s50_0.75x_4.53_517.png,1000,0.75x,4.53,3,3131,1011,meters,jsons/MX_seq24_0_VE1000.json,232838,494808,26,Woman
29,781900,final-intermixed-textured,v2,jsons/MX_seq24_0_VE1000.json,http://54.235.29.9/FacialAge/BNav_EC2/DepthDuration/MX_fS_VE_MTurk/MX_fS_HTML.html#99,99,1280,559,1280,720,1-8-2024,11-32-24,30,VR_target_stimuli/s53_1.3x_1.6_355_BC.png,1000,1.3x,1.6,3,3714,999,meters,jsons/MX_seq24_0_VE1000.json,232838,494808,26,Woman
30,781900,final-intermixed-textured,v2,jsons/MX_seq24_0_VE1000.json,http://54.235.29.9/FacialAge/BNav_EC2/DepthDuration/MX_fS_VE_MTurk/MX_fS_HTML.html#99,99,1280,559,1280,720,1-8-2024,11-32-24,31,VR_target_stimuli/s38_1x_3.55_353_BC.png,1000,1x,3.55,4,3339,1002,meters,jsons/MX_seq24_0_VE1000.json,232838,494808,26,Woman
31,781900,final-intermixed-textured,v2,jsons/MX_seq24_0_VE1000.json,http://54.235.29.9/FacialAge/BNav_EC2/DepthDuration/MX_fS_VE_MTurk/MX_fS_HTML.html#99,99,1280,559,1280,720,1-8-2024,11-32-24,32,VR_target_stimuli/s9_1.3x_1.2_276.png,1000,1.3x,1.2,2,5022,1000,meters,jsons/MX_seq24_0_VE1000.json,232838,494808,26,Woman
32,781900,final-intermixed-textured,v2,jsons/MX_seq24_0_VE1000.json,http://54.235.29.9/FacialAge/BNav_EC2/DepthDuration/MX_fS_VE_MTurk/MX_fS_HTML.html#99,99,1280,559,1280,720,1-8-2024,11-32-24,33,VR_target_stimuli/s44_0.75x_4.4_314_BC.png,1000,0.75x,4.4,6,3494,1007,meters,jsons/MX_seq24_0_VE1000.json,232838,494808,26,Woman
33,781900,final-intermixed-textured,v2,jsons/MX_seq24_0_VE1000.json,http://54.235.29.9/FacialAge/BNav_EC2/DepthDuration/MX_fS_VE_MTurk/MX_fS_HTML.html#99,99,1280,559,1280,720,1-8-2024,11-32-24,34,catch_stimuli/c3.png,1000,,,0,3728,1062,meters,jsons/MX_seq24_0_VE1000.json,232838,494808,26,Woman
34,781900,final-intermixed-textured,v2,jsons/MX_seq24_0_VE1000.json,http://54.235.29.9/FacialAge/BNav_EC2/DepthDuration/MX_fS_VE_MTurk/MX_fS_HTML.html#99,99,1280,559,1280,720,1-8-2024,11-32-24,35,VR_target_stimuli/s3_1.3x_5_390.png,1000,1.3x,5.0,6,3658,1051,meters,jsons/MX_seq24_0_VE1000.json,232838,494808,26,Woman
35,781900,final-intermixed-textured,v2,jsons/MX_seq24_0_VE1000.json,http://54.235.29.9/FacialAge/BNav_EC2/DepthDuration/MX_fS_VE_MTurk/MX_fS_HTML.html#99,99,1280,559,1280,720,1-8-2024,11-32-24,36,VR_target_stimuli/s1_1x_1.7_262_BC.png,1000,1x,1.7,0,3799,995,meters,jsons/MX_seq24_0_VE1000.json,232838,494808,26,Woman
36,781900,final-intermixed-textured,v2,jsons/MX_seq24_0_VE1000.json,http://54.235.29.9/FacialAge/BNav_EC2/DepthDuration/MX_fS_VE_MTurk/MX_fS_HTML.html#99,99,1280,559,1280,720,1-8-2024,11-32-24,37,VR_target_stimuli/s11_0.75x_5_359.png,1000,0.75x,5.0,5,3009,996,meters,jsons/MX_seq24_0_VE1000.json,232838,494808,26,Woman
37,781900,final-intermixed-textured,v2,jsons/MX_seq24_0_VE1000.json,http://54.235.29.9/FacialAge/BNav_EC2/DepthDuration/MX_fS_VE_MTurk/MX_fS_HTML.html#99,99,1280,559,1280,720,1-8-2024,11-32-24,38,VR_target_stimuli/s2_0.75x_2.7_384_BC.png,1000,0.75x,2.7,3,2878,1004,meters,jsons/MX_seq24_0_VE1000.json,232838,494808,26,Woman
38,781900,final-intermixed-textured,v2,jsons/MX_seq24_0_VE1000.json,http://54.235.29.9/FacialAge/BNav_EC2/DepthDuration/MX_fS_VE_MTurk/MX_fS_HTML.html#99,99,1280,559,1280,720,1-8-2024,11-32-24,39,VR_target_stimuli/s6_1.3x_2.1_298_BC.png,1000,1.3x,2.1,3,3413,1002,meters,jsons/MX_seq24_0_VE1000.json,232838,494808,26,Woman
39,781900,final-intermixed-textured,v2,jsons/MX_seq24_0_VE1000.json,http://54.235.29.9/FacialAge/BNav_EC2/DepthDuration/MX_fS_VE_MTurk/MX_fS_HTML.html#99,99,1280,559,1280,720,1-8-2024,11-32-24,40,VR_target_stimuli/s0_1x_2.6_351.png,1000,1x,2.6,4,3165,1075,meters,jsons/MX_seq24_0_VE1000.json,232838,494808,26,Woman
40,781900,final-intermixed-textured,v2,jsons/MX_seq24_0_VE1000.json,http://54.235.29.9/FacialAge/BNav_EC2/DepthDuration/MX_fS_VE_MTurk/MX_fS_HTML.html#99,99,1280,559,1280,720,1-8-2024,11-32-24,41,VR_target_stimuli/s34_1.3x_2.8_294_BC.png,1000,1.3x,2.8,4,2657,1000,meters,jsons/MX_seq24_0_VE1000.json,232838,494808,26,Woman
41,781900,final-intermixed-textured,v2,jsons/MX_seq24_0_VE1000.json,http://54.235.29.9/FacialAge/BNav_EC2/DepthDuration/MX_fS_VE_MTurk/MX_fS_HTML.html#99,99,1280,559,1280,720,1-8-2024,11-32-24,42,VR_target_stimuli/s13_0.75x_2.4_308_BC.png,1000,0.75x,2.4,4,3013,1009,meters,jsons/MX_seq24_0_VE1000.json,232838,494808,26,Woman
42,781900,final-intermixed-textured,v2,jsons/MX_seq24_0_VE1000.json,http://54.235.29.9/FacialAge/BNav_EC2/DepthDuration/MX_fS_VE_MTurk/MX_fS_HTML.html#99,99,1280,559,1280,720,1-8-2024,11-32-24,43,VR_target_stimuli/s14_1x_ 3.83_357_BC.png,1000,1x,3.83,5,2642,1001,meters,jsons/MX_seq24_0_VE1000.json,232838,494808,26,Woman
43,781900,final-intermixed-textured,v2,jsons/MX_seq24_0_VE1000.json,http://54.235.29.9/FacialAge/BNav_EC2/DepthDuration/MX_fS_VE_MTurk/MX_fS_HTML.html#99,99,1280,559,1280,720,1-8-2024,11-32-24,44,VR_target_stimuli/s47_0.75x_3.45_366.png,1000,0.75x,3.45,4,3030,1005,meters,jsons/MX_seq24_0_VE1000.json,232838,494808,26,Woman
44,781900,final-intermixed-textured,v2,jsons/MX_seq24_0_VE1000.json,http://54.235.29.9/FacialAge/BNav_EC2/DepthDuration/MX_fS_VE_MTurk/MX_fS_HTML.html#99,99,1280,559,1280,720,1-8-2024,11-32-24,45,catch_stimuli/c4.png,1000,,,0,3299,1104,meters,jsons/MX_seq24_0_VE1000.json,232838,494808,26,Woman
45,781900,final-intermixed-textured,v2,jsons/MX_seq24_0_VE1000.json,http://54.235.29.9/FacialAge/BNav_EC2/DepthDuration/MX_fS_VE_MTurk/MX_fS_HTML.html#99,99,1280,559,1280,720,1-8-2024,11-32-24,46,VR_target_stimuli/s29_1.3x_1.3_253.png,1000,1.3x,1.3,2,2782,998,meters,jsons/MX_seq24_0_VE1000.json,232838,494808,26,Woman
46,781900,final-intermixed-textured,v2,jsons/MX_seq24_0_VE1000.json,http://54.235.29.9/FacialAge/BNav_EC2/DepthDuration/MX_fS_VE_MTurk/MX_fS_HTML.html#99,99,1280,559,1280,720,1-8-2024,11-32-24,47,VR_target_stimuli/s28_1x_3.2_362.png,1000,1x,3.2,3,3472,1001,meters,jsons/MX_seq24_0_VE1000.json,232838,494808,26,Woman
47,781900,final-intermixed-textured,v2,jsons/MX_seq24_0_VE1000.json,http://54.235.29.9/FacialAge/BNav_EC2/DepthDuration/MX_fS_VE_MTurk/MX_fS_HTML.html#99,99,1280,559,1280,720,1-8-2024,11-32-24,48,VR_target_stimuli/s48_1x_2.55_256_BC.png,1000,1x,2.55,3,3397,1087,meters,jsons/MX_seq24_0_VE1000.json,232838,494808,26,Woman
48,781900,final-intermixed-textured,v2,jsons/MX_seq24_0_VE1000.json,http://54.235.29.9/FacialAge/BNav_EC2/DepthDuration/MX_fS_VE_MTurk/MX_fS_HTML.html#99,99,1280,559,1280,720,1-8-2024,11-32-24,49,VR_target_stimuli/s19_0.75x_1.21_257.png,1000,0.75x,1.21,2,3158,1056,meters,jsons/MX_seq24_0_VE1000.json,232838,494808,26,Woman
49,781900,final-intermixed-textured,v2,jsons/MX_seq24_0_VE1000.json,http://54.235.29.9/FacialAge/BNav_EC2/DepthDuration/MX_fS_VE_MTurk/MX_fS_HTML.html#99,99,1280,559,1280,720,1-8-2024,11-32-24,50,VR_target_stimuli/s21_1.3x_4.22_384_BC.png,1000,1.3x,4.22,5,2801,1077,meters,jsons/MX_seq24_0_VE1000.json,232838,494808,26,Woman
50,781900,final-intermixed-textured,v2,jsons/MX_seq24_0_VE1000.json,http://54.235.29.9/FacialAge/BNav_EC2/DepthDuration/MX_fS_VE_MTurk/MX_fS_HTML.html#99,99,1280,559,1280,720,1-8-2024,11-32-24,51,VR_target_stimuli/s8_0.75x_3.1_325_BC.png,1000,0.75x,3.1,4,2798,1054,meters,jsons/MX_seq24_0_VE1000.json,232838,494808,26,Woman
51,781900,final-intermixed-textured,v2,jsons/MX_seq24_0_VE1000.json,http://54.235.29.9/FacialAge/BNav_EC2/DepthDuration/MX_fS_VE_MTurk/MX_fS_HTML.html#99,99,1280,559,1280,720,1-8-2024,11-32-24,52,VR_target_stimuli/s27_1x_1.76_248.png,1000,1x,1.76,3,3454,999,meters,jsons/MX_seq24_0_VE1000.json,232838,494808,26,Woman
52,781900,final-intermixed-textured,v2,jsons/MX_seq24_0_VE1000.json,http://54.235.29.9/FacialAge/BNav_EC2/DepthDuration/MX_fS_VE_MTurk/MX_fS_HTML.html#99,99,1280,559,1280,720,1-8-2024,11-32-24,53,catch_stimuli/c5.png,1000,,,0,3112,1000,meters,jsons/MX_seq24_0_VE1000.json,232838,494808,26,Woman
53,781900,final-intermixed-textured,v2,jsons/MX_seq24_0_VE1000.json,http://54.235.29.9/FacialAge/BNav_EC2/DepthDuration/MX_fS_VE_MTurk/MX_fS_HTML.html#99,99,1280,559,1280,720,1-8-2024,11-32-24,54,VR_target_stimuli/s15_1.3x_4.2_389.png,1000,1.3x,4.2,5,3573,1001,meters,jsons/MX_seq24_0_VE1000.json,232838,494808,26,Woman
54,781900,final-intermixed-textured,v2,jsons/MX_seq24_0_VE1000.json,http://54.235.29.9/FacialAge/BNav_EC2/DepthDuration/MX_fS_VE_MTurk/MX_fS_HTML.html#99,99,1280,559,1280,720,1-8-2024,11-32-24,55,VR_target_stimuli/s4_1x_1.4_313_BC.png,1000,1x,1.4,2,3489,1005,meters,jsons/MX_seq24_0_VE1000.json,232838,494808,26,Woman
55,781900,final-intermixed-textured,v2,jsons/MX_seq24_0_VE1000.json,http://54.235.29.9/FacialAge/BNav_EC2/DepthDuration/MX_fS_VE_MTurk/MX_fS_HTML.html#99,99,1280,559,1280,720,1-8-2024,11-32-24,56,VR_target_stimuli/s35_0.75x_2_323.png,1000,0.75x,2.0,2,4716,1003,meters,jsons/MX_seq24_0_VE1000.json,232838,494808,26,Woman
56,781900,final-intermixed-textured,v2,jsons/MX_seq24_0_VE1000.json,http://54.235.29.9/FacialAge/BNav_EC2/DepthDuration/MX_fS_VE_MTurk/MX_fS_HTML.html#99,99,1280,559,1280,720,1-8-2024,11-32-24,57,VR_target_stimuli/s49_1.3x_4.67_354_BC.png,1000,1.3x,4.67,5,2722,998,meters,jsons/MX_seq24_0_VE1000.json,232838,494808,26,Woman
57,781900,final-intermixed-textured,v2,jsons/MX_seq24_0_VE1000.json,http://54.235.29.9/FacialAge/BNav_EC2/DepthDuration/MX_fS_VE_MTurk/MX_fS_HTML.html#99,99,1280,559,1280,720,1-8-2024,11-32-24,58,VR_target_stimuli/s7_1.3x_1.5_256.png,1000,1.3x,1.5,3,3013,1003,meters,jsons/MX_seq24_0_VE1000.json,232838,494808,26,Woman
58,781900,final-intermixed-textured,v2,jsons/MX_seq24_0_VE1000.json,http://54.235.29.9/FacialAge/BNav_EC2/DepthDuration/MX_fS_VE_MTurk/MX_fS_HTML.html#99,99,1280,559,1280,720,1-8-2024,11-32-24,59,VR_target_stimuli/s20_1x_4.99_398.png,1000,1x,4.99,7,4052,998,meters,jsons/MX_seq24_0_VE1000.json,232838,494808,26,Woman
59,781900,final-intermixed-textured,v2,jsons/MX_seq24_0_VE1000.json,http://54.235.29.9/FacialAge/BNav_EC2/DepthDuration/MX_fS_VE_MTurk/MX_fS_HTML.html#99,99,1280,559,1280,720,1-8-2024,11-32-24,60,VR_target_stimuli/s31_0.75x_4.96_329_BC.png,1000,0.75x,4.96,6,2686,992,meters,jsons/MX_seq24_0_VE1000.json,232838,494808,26,Woman
