,subjID,experimentName,versionName,sequenceName,url,selected_row,windowWidth,windowHeight,screenWidth,screenHeight,startDate,startTime,trial,stimulus,duration,scale,actual_depth,depth_estimate,trial_RT,log_sceneDuration,unitSelection,seq_filepath,experimentTime,totalTime,age,gender
0,810307,final-intermixed-textured,v2,jsons/MX_seq19_2_VE1000_flipped.json,http://54.235.29.9/FacialAge/BNav_EC2/DepthDuration/MX_fS_VE_MTurk/MX_fS_HTML.html#312,312,1344,671,1344,840,1-8-2024,16-45-20,1,VR_target_stimuli/s35_1x_2_331_BC.png,1000,1x,2.0,0.0,7575,1011,meters,jsons/MX_seq19_2_VE1000_flipped.json,881940,1193437,66,Woman
1,810307,final-intermixed-textured,v2,jsons/MX_seq19_2_VE1000_flipped.json,http://54.235.29.9/FacialAge/BNav_EC2/DepthDuration/MX_fS_VE_MTurk/MX_fS_HTML.html#312,312,1344,671,1344,840,1-8-2024,16-45-20,2,VR_target_stimuli/s49_1.3x_4.67_354.png,1000,1.3x,4.67,1.25,15795,1014,meters,jsons/MX_seq19_2_VE1000_flipped.json,881940,1193437,66,Woman
2,810307,final-intermixed-textured,v2,jsons/MX_seq19_2_VE1000_flipped.json,http://54.235.29.9/FacialAge/BNav_EC2/DepthDuration/MX_fS_VE_MTurk/MX_fS_HTML.html#312,312,1344,671,1344,840,1-8-2024,16-45-20,3,VR_target_stimuli/s7_0.75x_1.5_253_BC.png,1000,0.75x,1.5,0.0,7207,1000,meters,jsons/MX_seq19_2_VE1000_flipped.json,881940,1193437,66,Woman
3,810307,final-intermixed-textured,v2,jsons/MX_seq19_2_VE1000_flipped.json,http://54.235.29.9/FacialAge/BNav_EC2/DepthDuration/MX_fS_VE_MTurk/MX_fS_HTML.html#312,312,1344,671,1344,840,1-8-2024,16-45-20,4,VR_target_stimuli/s20_1.3x_4.99_412_BC.png,1000,1.3x,4.99,3.15,15573,996,meters,jsons/MX_seq19_2_VE1000_flipped.json,881940,1193437,66,Woman
4,810307,final-intermixed-textured,v2,jsons/MX_seq19_2_VE1000_flipped.json,http://54.235.29.9/FacialAge/BNav_EC2/DepthDuration/MX_fS_VE_MTurk/MX_fS_HTML.html#312,312,1344,671,1344,840,1-8-2024,16-45-20,5,VR_target_stimuli/s31_1x_4.96_333.png,1000,1x,4.96,1.3,13244,998,meters,jsons/MX_seq19_2_VE1000_flipped.json,881940,1193437,66,Woman
5,810307,final-intermixed-textured,v2,jsons/MX_seq19_2_VE1000_flipped.json,http://54.235.29.9/FacialAge/BNav_EC2/DepthDuration/MX_fS_VE_MTurk/MX_fS_HTML.html#312,312,1344,671,1344,840,1-8-2024,16-45-20,6,VR_target_stimuli/s33_0.75x_3.1_361.png,1000,0.75x,3.1,1.5,14476,1012,meters,jsons/MX_seq19_2_VE1000_flipped.json,881940,1193437,66,Woman
6,810307,final-intermixed-textured,v2,jsons/MX_seq19_2_VE1000_flipped.json,http://54.235.29.9/FacialAge/BNav_EC2/DepthDuration/MX_fS_VE_MTurk/MX_fS_HTML.html#312,312,1344,671,1344,840,1-8-2024,16-45-20,7,catch_stimuli/c0_BC.png,1000,,,0.0,5943,999,meters,jsons/MX_seq19_2_VE1000_flipped.json,881940,1193437,66,Woman
7,810307,final-intermixed-textured,v2,jsons/MX_seq19_2_VE1000_flipped.json,http://54.235.29.9/FacialAge/BNav_EC2/DepthDuration/MX_fS_VE_MTurk/MX_fS_HTML.html#312,312,1344,671,1344,840,1-8-2024,16-45-20,8,VR_target_stimuli/s52_0.75x_3.2_270.png,1000,0.75x,3.2,0.0,5459,998,meters,jsons/MX_seq19_2_VE1000_flipped.json,881940,1193437,66,Woman
8,810307,final-intermixed-textured,v2,jsons/MX_seq19_2_VE1000_flipped.json,http://54.235.29.9/FacialAge/BNav_EC2/DepthDuration/MX_fS_VE_MTurk/MX_fS_HTML.html#312,312,1344,671,1344,840,1-8-2024,16-45-20,9,VR_target_stimuli/s32_1.3x_1.5_224_BC.png,1000,1.3x,1.5,1.4,11170,995,meters,jsons/MX_seq19_2_VE1000_flipped.json,881940,1193437,66,Woman
9,810307,final-intermixed-textured,v2,jsons/MX_seq19_2_VE1000_flipped.json,http://54.235.29.9/FacialAge/BNav_EC2/DepthDuration/MX_fS_VE_MTurk/MX_fS_HTML.html#312,312,1344,671,1344,840,1-8-2024,16-45-20,10,VR_target_stimuli/s18_1x_2.25_353.png,1000,1x,2.25,2.0,10869,998,meters,jsons/MX_seq19_2_VE1000_flipped.json,881940,1193437,66,Woman
10,810307,final-intermixed-textured,v2,jsons/MX_seq19_2_VE1000_flipped.json,http://54.235.29.9/FacialAge/BNav_EC2/DepthDuration/MX_fS_VE_MTurk/MX_fS_HTML.html#312,312,1344,671,1344,840,1-8-2024,16-45-20,11,VR_target_stimuli/s39_1.3x_1_208.png,1000,1.3x,1.0,0.0,6645,1003,meters,jsons/MX_seq19_2_VE1000_flipped.json,881940,1193437,66,Woman
11,810307,final-intermixed-textured,v2,jsons/MX_seq19_2_VE1000_flipped.json,http://54.235.29.9/FacialAge/BNav_EC2/DepthDuration/MX_fS_VE_MTurk/MX_fS_HTML.html#312,312,1344,671,1344,840,1-8-2024,16-45-20,12,VR_target_stimuli/s51_0.75x_3.64_460_BC.png,1000,0.75x,3.64,0.0,6333,997,meters,jsons/MX_seq19_2_VE1000_flipped.json,881940,1193437,66,Woman
12,810307,final-intermixed-textured,v2,jsons/MX_seq19_2_VE1000_flipped.json,http://54.235.29.9/FacialAge/BNav_EC2/DepthDuration/MX_fS_VE_MTurk/MX_fS_HTML.html#312,312,1344,671,1344,840,1-8-2024,16-45-20,13,VR_target_stimuli/s43_1x_2.2_354_BC.png,1000,1x,2.2,2.2,7100,987,meters,jsons/MX_seq19_2_VE1000_flipped.json,881940,1193437,66,Woman
13,810307,final-intermixed-textured,v2,jsons/MX_seq19_2_VE1000_flipped.json,http://54.235.29.9/FacialAge/BNav_EC2/DepthDuration/MX_fS_VE_MTurk/MX_fS_HTML.html#312,312,1344,671,1344,840,1-8-2024,16-45-20,14,VR_target_stimuli/s24_0.75x_3.3_344.png,1000,0.75x,3.3,0.0,7483,1000,meters,jsons/MX_seq19_2_VE1000_flipped.json,881940,1193437,66,Woman
14,810307,final-intermixed-textured,v2,jsons/MX_seq19_2_VE1000_flipped.json,http://54.235.29.9/FacialAge/BNav_EC2/DepthDuration/MX_fS_VE_MTurk/MX_fS_HTML.html#312,312,1344,671,1344,840,1-8-2024,16-45-20,15,VR_target_stimuli/s10_1.3x_2.7_325.png,1000,1.3x,2.7,0.0,5255,1002,meters,jsons/MX_seq19_2_VE1000_flipped.json,881940,1193437,66,Woman
15,810307,final-intermixed-textured,v2,jsons/MX_seq19_2_VE1000_flipped.json,http://54.235.29.9/FacialAge/BNav_EC2/DepthDuration/MX_fS_VE_MTurk/MX_fS_HTML.html#312,312,1344,671,1344,840,1-8-2024,16-45-20,16,VR_target_stimuli/s36_1x_4.1_423.png,1000,1x,4.1,1.2,6862,1000,meters,jsons/MX_seq19_2_VE1000_flipped.json,881940,1193437,66,Woman
16,810307,final-intermixed-textured,v2,jsons/MX_seq19_2_VE1000_flipped.json,http://54.235.29.9/FacialAge/BNav_EC2/DepthDuration/MX_fS_VE_MTurk/MX_fS_HTML.html#312,312,1344,671,1344,840,1-8-2024,16-45-20,17,catch_stimuli/c1_BC.png,1000,,,0.5,10914,1000,meters,jsons/MX_seq19_2_VE1000_flipped.json,881940,1193437,66,Woman
17,810307,final-intermixed-textured,v2,jsons/MX_seq19_2_VE1000_flipped.json,http://54.235.29.9/FacialAge/BNav_EC2/DepthDuration/MX_fS_VE_MTurk/MX_fS_HTML.html#312,312,1344,671,1344,840,1-8-2024,16-45-20,18,VR_target_stimuli/s40_1x_1.2_319_BC.png,1000,1x,1.2,0.0,9109,1010,meters,jsons/MX_seq19_2_VE1000_flipped.json,881940,1193437,66,Woman
18,810307,final-intermixed-textured,v2,jsons/MX_seq19_2_VE1000_flipped.json,http://54.235.29.9/FacialAge/BNav_EC2/DepthDuration/MX_fS_VE_MTurk/MX_fS_HTML.html#312,312,1344,671,1344,840,1-8-2024,16-45-20,19,VR_target_stimuli/s41_0.75x_2.1_281_BC.png,1000,0.75x,2.1,0.0,6466,1011,meters,jsons/MX_seq19_2_VE1000_flipped.json,881940,1193437,66,Woman
19,810307,final-intermixed-textured,v2,jsons/MX_seq19_2_VE1000_flipped.json,http://54.235.29.9/FacialAge/BNav_EC2/DepthDuration/MX_fS_VE_MTurk/MX_fS_HTML.html#312,312,1344,671,1344,840,1-8-2024,16-45-20,20,VR_target_stimuli/s45_1.3x_3.5_377_BC.png,1000,1.3x,3.5,2.0,11446,998,meters,jsons/MX_seq19_2_VE1000_flipped.json,881940,1193437,66,Woman
20,810307,final-intermixed-textured,v2,jsons/MX_seq19_2_VE1000_flipped.json,http://54.235.29.9/FacialAge/BNav_EC2/DepthDuration/MX_fS_VE_MTurk/MX_fS_HTML.html#312,312,1344,671,1344,840,1-8-2024,16-45-20,21,VR_target_stimuli/s23_0.75x_3.65_351.png,1000,0.75x,3.65,0.0,5040,1012,meters,jsons/MX_seq19_2_VE1000_flipped.json,881940,1193437,66,Woman
21,810307,final-intermixed-textured,v2,jsons/MX_seq19_2_VE1000_flipped.json,http://54.235.29.9/FacialAge/BNav_EC2/DepthDuration/MX_fS_VE_MTurk/MX_fS_HTML.html#312,312,1344,671,1344,840,1-8-2024,16-45-20,22,VR_target_stimuli/s26_1x_4_433_BC.png,1000,1x,4.0,0.0,3983,998,meters,jsons/MX_seq19_2_VE1000_flipped.json,881940,1193437,66,Woman
22,810307,final-intermixed-textured,v2,jsons/MX_seq19_2_VE1000_flipped.json,http://54.235.29.9/FacialAge/BNav_EC2/DepthDuration/MX_fS_VE_MTurk/MX_fS_HTML.html#312,312,1344,671,1344,840,1-8-2024,16-45-20,23,VR_target_stimuli/s12_1.3x_3.1_375_BC.png,1000,1.3x,3.1,0.0,3503,999,meters,jsons/MX_seq19_2_VE1000_flipped.json,881940,1193437,66,Woman
23,810307,final-intermixed-textured,v2,jsons/MX_seq19_2_VE1000_flipped.json,http://54.235.29.9/FacialAge/BNav_EC2/DepthDuration/MX_fS_VE_MTurk/MX_fS_HTML.html#312,312,1344,671,1344,840,1-8-2024,16-45-20,24,VR_target_stimuli/s30_1x_2.3_334.png,1000,1x,2.3,1.2,7455,1008,meters,jsons/MX_seq19_2_VE1000_flipped.json,881940,1193437,66,Woman
24,810307,final-intermixed-textured,v2,jsons/MX_seq19_2_VE1000_flipped.json,http://54.235.29.9/FacialAge/BNav_EC2/DepthDuration/MX_fS_VE_MTurk/MX_fS_HTML.html#312,312,1344,671,1344,840,1-8-2024,16-45-20,25,VR_target_stimuli/s16_0.75x_1_217_BC.png,1000,0.75x,1.0,3.0,8633,1013,meters,jsons/MX_seq19_2_VE1000_flipped.json,881940,1193437,66,Woman
25,810307,final-intermixed-textured,v2,jsons/MX_seq19_2_VE1000_flipped.json,http://54.235.29.9/FacialAge/BNav_EC2/DepthDuration/MX_fS_VE_MTurk/MX_fS_HTML.html#312,312,1344,671,1344,840,1-8-2024,16-45-20,26,catch_stimuli/c2_BC.png,1000,,,1.0,6254,997,meters,jsons/MX_seq19_2_VE1000_flipped.json,881940,1193437,66,Woman
26,810307,final-intermixed-textured,v2,jsons/MX_seq19_2_VE1000_flipped.json,http://54.235.29.9/FacialAge/BNav_EC2/DepthDuration/MX_fS_VE_MTurk/MX_fS_HTML.html#312,312,1344,671,1344,840,1-8-2024,16-45-20,27,VR_target_stimuli/s17_1.3x_1.8_300.png,1000,1.3x,1.8,0.0,71851,999,meters,jsons/MX_seq19_2_VE1000_flipped.json,881940,1193437,66,Woman
27,810307,final-intermixed-textured,v2,jsons/MX_seq19_2_VE1000_flipped.json,http://54.235.29.9/FacialAge/BNav_EC2/DepthDuration/MX_fS_VE_MTurk/MX_fS_HTML.html#312,312,1344,671,1344,840,1-8-2024,16-45-20,28,VR_target_stimuli/s5_1.3x_4_393.png,1000,1.3x,4.0,0.0,267708,994,meters,jsons/MX_seq19_2_VE1000_flipped.json,881940,1193437,66,Woman
28,810307,final-intermixed-textured,v2,jsons/MX_seq19_2_VE1000_flipped.json,http://54.235.29.9/FacialAge/BNav_EC2/DepthDuration/MX_fS_VE_MTurk/MX_fS_HTML.html#312,312,1344,671,1344,840,1-8-2024,16-45-20,29,VR_target_stimuli/s37_1x_3.3_563.png,1000,1x,3.3,0.6,11359,990,meters,jsons/MX_seq19_2_VE1000_flipped.json,881940,1193437,66,Woman
29,810307,final-intermixed-textured,v2,jsons/MX_seq19_2_VE1000_flipped.json,http://54.235.29.9/FacialAge/BNav_EC2/DepthDuration/MX_fS_VE_MTurk/MX_fS_HTML.html#312,312,1344,671,1344,840,1-8-2024,16-45-20,30,VR_target_stimuli/s46_0.75x_2.42_343.png,1000,0.75x,2.42,0.5,15374,1004,meters,jsons/MX_seq19_2_VE1000_flipped.json,881940,1193437,66,Woman
30,810307,final-intermixed-textured,v2,jsons/MX_seq19_2_VE1000_flipped.json,http://54.235.29.9/FacialAge/BNav_EC2/DepthDuration/MX_fS_VE_MTurk/MX_fS_HTML.html#312,312,1344,671,1344,840,1-8-2024,16-45-20,31,VR_target_stimuli/s22_1.3x_4.29_364_BC.png,1000,1.3x,4.29,2.0,14986,1001,meters,jsons/MX_seq19_2_VE1000_flipped.json,881940,1193437,66,Woman
31,810307,final-intermixed-textured,v2,jsons/MX_seq19_2_VE1000_flipped.json,http://54.235.29.9/FacialAge/BNav_EC2/DepthDuration/MX_fS_VE_MTurk/MX_fS_HTML.html#312,312,1344,671,1344,840,1-8-2024,16-45-20,32,VR_target_stimuli/s42_0.75x_3.2_301_BC.png,1000,0.75x,3.2,1.1,11153,991,meters,jsons/MX_seq19_2_VE1000_flipped.json,881940,1193437,66,Woman
32,810307,final-intermixed-textured,v2,jsons/MX_seq19_2_VE1000_flipped.json,http://54.235.29.9/FacialAge/BNav_EC2/DepthDuration/MX_fS_VE_MTurk/MX_fS_HTML.html#312,312,1344,671,1344,840,1-8-2024,16-45-20,33,VR_target_stimuli/s25_1x_1.4_290_BC.png,1000,1x,1.4,0.75,14708,1009,meters,jsons/MX_seq19_2_VE1000_flipped.json,881940,1193437,66,Woman
33,810307,final-intermixed-textured,v2,jsons/MX_seq19_2_VE1000_flipped.json,http://54.235.29.9/FacialAge/BNav_EC2/DepthDuration/MX_fS_VE_MTurk/MX_fS_HTML.html#312,312,1344,671,1344,840,1-8-2024,16-45-20,34,catch_stimuli/c3_BC.png,1000,,,0.0,5401,1014,meters,jsons/MX_seq19_2_VE1000_flipped.json,881940,1193437,66,Woman
34,810307,final-intermixed-textured,v2,jsons/MX_seq19_2_VE1000_flipped.json,http://54.235.29.9/FacialAge/BNav_EC2/DepthDuration/MX_fS_VE_MTurk/MX_fS_HTML.html#312,312,1344,671,1344,840,1-8-2024,16-45-20,35,VR_target_stimuli/s50_0.75x_4.53_517_BC.png,1000,0.75x,4.53,0.0,6477,1000,meters,jsons/MX_seq19_2_VE1000_flipped.json,881940,1193437,66,Woman
35,810307,final-intermixed-textured,v2,jsons/MX_seq19_2_VE1000_flipped.json,http://54.235.29.9/FacialAge/BNav_EC2/DepthDuration/MX_fS_VE_MTurk/MX_fS_HTML.html#312,312,1344,671,1344,840,1-8-2024,16-45-20,36,VR_target_stimuli/s53_1.3x_1.6_355.png,1000,1.3x,1.6,1.0,9724,1000,meters,jsons/MX_seq19_2_VE1000_flipped.json,881940,1193437,66,Woman
36,810307,final-intermixed-textured,v2,jsons/MX_seq19_2_VE1000_flipped.json,http://54.235.29.9/FacialAge/BNav_EC2/DepthDuration/MX_fS_VE_MTurk/MX_fS_HTML.html#312,312,1344,671,1344,840,1-8-2024,16-45-20,37,VR_target_stimuli/s38_1x_3.55_353_BC.png,1000,1x,3.55,1.6,11462,985,meters,jsons/MX_seq19_2_VE1000_flipped.json,881940,1193437,66,Woman
37,810307,final-intermixed-textured,v2,jsons/MX_seq19_2_VE1000_flipped.json,http://54.235.29.9/FacialAge/BNav_EC2/DepthDuration/MX_fS_VE_MTurk/MX_fS_HTML.html#312,312,1344,671,1344,840,1-8-2024,16-45-20,38,VR_target_stimuli/s9_1x_1.2_263.png,1000,1x,1.2,1.2,10388,1000,meters,jsons/MX_seq19_2_VE1000_flipped.json,881940,1193437,66,Woman
38,810307,final-intermixed-textured,v2,jsons/MX_seq19_2_VE1000_flipped.json,http://54.235.29.9/FacialAge/BNav_EC2/DepthDuration/MX_fS_VE_MTurk/MX_fS_HTML.html#312,312,1344,671,1344,840,1-8-2024,16-45-20,39,VR_target_stimuli/s44_0.75x_4.4_314.png,1000,0.75x,4.4,0.0,5775,997,meters,jsons/MX_seq19_2_VE1000_flipped.json,881940,1193437,66,Woman
39,810307,final-intermixed-textured,v2,jsons/MX_seq19_2_VE1000_flipped.json,http://54.235.29.9/FacialAge/BNav_EC2/DepthDuration/MX_fS_VE_MTurk/MX_fS_HTML.html#312,312,1344,671,1344,840,1-8-2024,16-45-20,40,VR_target_stimuli/s3_1.3x_5_390_BC.png,1000,1.3x,5.0,3.2,19869,1001,meters,jsons/MX_seq19_2_VE1000_flipped.json,881940,1193437,66,Woman
40,810307,final-intermixed-textured,v2,jsons/MX_seq19_2_VE1000_flipped.json,http://54.235.29.9/FacialAge/BNav_EC2/DepthDuration/MX_fS_VE_MTurk/MX_fS_HTML.html#312,312,1344,671,1344,840,1-8-2024,16-45-20,41,VR_target_stimuli/s1_0.75x_1.7_265.png,1000,0.75x,1.7,0.25,10243,1009,meters,jsons/MX_seq19_2_VE1000_flipped.json,881940,1193437,66,Woman
41,810307,final-intermixed-textured,v2,jsons/MX_seq19_2_VE1000_flipped.json,http://54.235.29.9/FacialAge/BNav_EC2/DepthDuration/MX_fS_VE_MTurk/MX_fS_HTML.html#312,312,1344,671,1344,840,1-8-2024,16-45-20,42,VR_target_stimuli/s11_1x_5_361_BC.png,1000,1x,5.0,3.5,7600,991,meters,jsons/MX_seq19_2_VE1000_flipped.json,881940,1193437,66,Woman
42,810307,final-intermixed-textured,v2,jsons/MX_seq19_2_VE1000_flipped.json,http://54.235.29.9/FacialAge/BNav_EC2/DepthDuration/MX_fS_VE_MTurk/MX_fS_HTML.html#312,312,1344,671,1344,840,1-8-2024,16-45-20,43,VR_target_stimuli/s2_1.3x_2.7_397.png,1000,1.3x,2.7,2.2,7966,1000,meters,jsons/MX_seq19_2_VE1000_flipped.json,881940,1193437,66,Woman
43,810307,final-intermixed-textured,v2,jsons/MX_seq19_2_VE1000_flipped.json,http://54.235.29.9/FacialAge/BNav_EC2/DepthDuration/MX_fS_VE_MTurk/MX_fS_HTML.html#312,312,1344,671,1344,840,1-8-2024,16-45-20,44,VR_target_stimuli/s6_1x_2.1_293.png,1000,1x,2.1,0.3,11435,997,meters,jsons/MX_seq19_2_VE1000_flipped.json,881940,1193437,66,Woman
44,810307,final-intermixed-textured,v2,jsons/MX_seq19_2_VE1000_flipped.json,http://54.235.29.9/FacialAge/BNav_EC2/DepthDuration/MX_fS_VE_MTurk/MX_fS_HTML.html#312,312,1344,671,1344,840,1-8-2024,16-45-20,45,catch_stimuli/c4_BC.png,1000,,,0.0,4582,1001,meters,jsons/MX_seq19_2_VE1000_flipped.json,881940,1193437,66,Woman
45,810307,final-intermixed-textured,v2,jsons/MX_seq19_2_VE1000_flipped.json,http://54.235.29.9/FacialAge/BNav_EC2/DepthDuration/MX_fS_VE_MTurk/MX_fS_HTML.html#312,312,1344,671,1344,840,1-8-2024,16-45-20,46,VR_target_stimuli/s0_0.75x_2.6_345_BC.png,1000,0.75x,2.6,1.5,10200,1007,meters,jsons/MX_seq19_2_VE1000_flipped.json,881940,1193437,66,Woman
46,810307,final-intermixed-textured,v2,jsons/MX_seq19_2_VE1000_flipped.json,http://54.235.29.9/FacialAge/BNav_EC2/DepthDuration/MX_fS_VE_MTurk/MX_fS_HTML.html#312,312,1344,671,1344,840,1-8-2024,16-45-20,47,VR_target_stimuli/s34_1.3x_2.8_294_BC.png,1000,1.3x,2.8,3.1,7508,1010,meters,jsons/MX_seq19_2_VE1000_flipped.json,881940,1193437,66,Woman
47,810307,final-intermixed-textured,v2,jsons/MX_seq19_2_VE1000_flipped.json,http://54.235.29.9/FacialAge/BNav_EC2/DepthDuration/MX_fS_VE_MTurk/MX_fS_HTML.html#312,312,1344,671,1344,840,1-8-2024,16-45-20,48,VR_target_stimuli/s13_1.3x_2.4_313.png,1000,1.3x,2.4,2.2,9015,1009,meters,jsons/MX_seq19_2_VE1000_flipped.json,881940,1193437,66,Woman
48,810307,final-intermixed-textured,v2,jsons/MX_seq19_2_VE1000_flipped.json,http://54.235.29.9/FacialAge/BNav_EC2/DepthDuration/MX_fS_VE_MTurk/MX_fS_HTML.html#312,312,1344,671,1344,840,1-8-2024,16-45-20,49,VR_target_stimuli/s14_1x_ 3.83_357.png,1000,1x,3.83,3.4,12005,1004,meters,jsons/MX_seq19_2_VE1000_flipped.json,881940,1193437,66,Woman
49,810307,final-intermixed-textured,v2,jsons/MX_seq19_2_VE1000_flipped.json,http://54.235.29.9/FacialAge/BNav_EC2/DepthDuration/MX_fS_VE_MTurk/MX_fS_HTML.html#312,312,1344,671,1344,840,1-8-2024,16-45-20,50,VR_target_stimuli/s47_0.75x_3.45_366_BC.png,1000,0.75x,3.45,2.0,8787,1003,meters,jsons/MX_seq19_2_VE1000_flipped.json,881940,1193437,66,Woman
50,810307,final-intermixed-textured,v2,jsons/MX_seq19_2_VE1000_flipped.json,http://54.235.29.9/FacialAge/BNav_EC2/DepthDuration/MX_fS_VE_MTurk/MX_fS_HTML.html#312,312,1344,671,1344,840,1-8-2024,16-45-20,51,VR_target_stimuli/s29_1x_1.3_250_BC.png,1000,1x,1.3,1.5,9905,998,meters,jsons/MX_seq19_2_VE1000_flipped.json,881940,1193437,66,Woman
51,810307,final-intermixed-textured,v2,jsons/MX_seq19_2_VE1000_flipped.json,http://54.235.29.9/FacialAge/BNav_EC2/DepthDuration/MX_fS_VE_MTurk/MX_fS_HTML.html#312,312,1344,671,1344,840,1-8-2024,16-45-20,52,VR_target_stimuli/s28_1.3x_3.2_365_BC.png,1000,1.3x,3.2,2.5,8056,998,meters,jsons/MX_seq19_2_VE1000_flipped.json,881940,1193437,66,Woman
52,810307,final-intermixed-textured,v2,jsons/MX_seq19_2_VE1000_flipped.json,http://54.235.29.9/FacialAge/BNav_EC2/DepthDuration/MX_fS_VE_MTurk/MX_fS_HTML.html#312,312,1344,671,1344,840,1-8-2024,16-45-20,53,catch_stimuli/c5_BC.png,1000,,,0.0,4519,1000,meters,jsons/MX_seq19_2_VE1000_flipped.json,881940,1193437,66,Woman
53,810307,final-intermixed-textured,v2,jsons/MX_seq19_2_VE1000_flipped.json,http://54.235.29.9/FacialAge/BNav_EC2/DepthDuration/MX_fS_VE_MTurk/MX_fS_HTML.html#312,312,1344,671,1344,840,1-8-2024,16-45-20,54,VR_target_stimuli/s48_0.75x_2.55_243.png,1000,0.75x,2.55,2.0,8043,1006,meters,jsons/MX_seq19_2_VE1000_flipped.json,881940,1193437,66,Woman
54,810307,final-intermixed-textured,v2,jsons/MX_seq19_2_VE1000_flipped.json,http://54.235.29.9/FacialAge/BNav_EC2/DepthDuration/MX_fS_VE_MTurk/MX_fS_HTML.html#312,312,1344,671,1344,840,1-8-2024,16-45-20,55,VR_target_stimuli/s19_1.3x_1.21_270_BC.png,1000,1.3x,1.21,1.5,6329,1008,meters,jsons/MX_seq19_2_VE1000_flipped.json,881940,1193437,66,Woman
55,810307,final-intermixed-textured,v2,jsons/MX_seq19_2_VE1000_flipped.json,http://54.235.29.9/FacialAge/BNav_EC2/DepthDuration/MX_fS_VE_MTurk/MX_fS_HTML.html#312,312,1344,671,1344,840,1-8-2024,16-45-20,56,VR_target_stimuli/s21_1x_4.22_379_BC.png,1000,1x,4.22,4.0,5791,1013,meters,jsons/MX_seq19_2_VE1000_flipped.json,881940,1193437,66,Woman
56,810307,final-intermixed-textured,v2,jsons/MX_seq19_2_VE1000_flipped.json,http://54.235.29.9/FacialAge/BNav_EC2/DepthDuration/MX_fS_VE_MTurk/MX_fS_HTML.html#312,312,1344,671,1344,840,1-8-2024,16-45-20,57,VR_target_stimuli/s8_0.75x_3.1_325_BC.png,1000,0.75x,3.1,4.2,7999,994,meters,jsons/MX_seq19_2_VE1000_flipped.json,881940,1193437,66,Woman
57,810307,final-intermixed-textured,v2,jsons/MX_seq19_2_VE1000_flipped.json,http://54.235.29.9/FacialAge/BNav_EC2/DepthDuration/MX_fS_VE_MTurk/MX_fS_HTML.html#312,312,1344,671,1344,840,1-8-2024,16-45-20,58,VR_target_stimuli/s27_0.75x_1.76_243.png,1000,0.75x,1.76,3.3,6763,997,meters,jsons/MX_seq19_2_VE1000_flipped.json,881940,1193437,66,Woman
58,810307,final-intermixed-textured,v2,jsons/MX_seq19_2_VE1000_flipped.json,http://54.235.29.9/FacialAge/BNav_EC2/DepthDuration/MX_fS_VE_MTurk/MX_fS_HTML.html#312,312,1344,671,1344,840,1-8-2024,16-45-20,59,VR_target_stimuli/s15_1.3x_4.2_389.png,1000,1.3x,4.2,5.0,4507,1009,meters,jsons/MX_seq19_2_VE1000_flipped.json,881940,1193437,66,Woman
59,810307,final-intermixed-textured,v2,jsons/MX_seq19_2_VE1000_flipped.json,http://54.235.29.9/FacialAge/BNav_EC2/DepthDuration/MX_fS_VE_MTurk/MX_fS_HTML.html#312,312,1344,671,1344,840,1-8-2024,16-45-20,60,VR_target_stimuli/s4_1x_1.4_313.png,1000,1x,1.4,3.0,4252,1001,meters,jsons/MX_seq19_2_VE1000_flipped.json,881940,1193437,66,Woman
