,subjID,experimentName,versionName,sequenceName,url,selected_row,windowWidth,windowHeight,screenWidth,screenHeight,startDate,startTime,trial,stimulus,duration,scale,actual_depth,depth_estimate,trial_RT,log_sceneDuration,unitSelection,seq_filepath,experimentTime,totalTime,age,gender
0,812483,final-intermixed-textured,v2,jsons/MX_seq32_0_VE1000_flipped.json,http://54.235.29.9/FacialAge/BNav_EC2/DepthDuration/MX_fS_VE_MTurk/MX_fS_HTML.html#2,2,1280,593,1280,720,1-8-2024,19-34-39,1,VR_target_stimuli/s10_0.75x_2.7_321.png,1000,0.75x,2.7,0.5,7074,986,meters,jsons/MX_seq32_0_VE1000_flipped.json,453848,1095719,52,Woman
1,812483,final-intermixed-textured,v2,jsons/MX_seq32_0_VE1000_flipped.json,http://54.235.29.9/FacialAge/BNav_EC2/DepthDuration/MX_fS_VE_MTurk/MX_fS_HTML.html#2,2,1280,593,1280,720,1-8-2024,19-34-39,2,VR_target_stimuli/s36_1x_4.1_423_BC.png,1000,1x,4.1,0.4,7828,1002,meters,jsons/MX_seq32_0_VE1000_flipped.json,453848,1095719,52,Woman
2,812483,final-intermixed-textured,v2,jsons/MX_seq32_0_VE1000_flipped.json,http://54.235.29.9/FacialAge/BNav_EC2/DepthDuration/MX_fS_VE_MTurk/MX_fS_HTML.html#2,2,1280,593,1280,720,1-8-2024,19-34-39,3,VR_target_stimuli/s40_1.3x_1.2_332_BC.png,1000,1.3x,1.2,1.0,8927,999,meters,jsons/MX_seq32_0_VE1000_flipped.json,453848,1095719,52,Woman
3,812483,final-intermixed-textured,v2,jsons/MX_seq32_0_VE1000_flipped.json,http://54.235.29.9/FacialAge/BNav_EC2/DepthDuration/MX_fS_VE_MTurk/MX_fS_HTML.html#2,2,1280,593,1280,720,1-8-2024,19-34-39,4,VR_target_stimuli/s41_1x_2.1_286.png,1000,1x,2.1,0.6,9818,996,meters,jsons/MX_seq32_0_VE1000_flipped.json,453848,1095719,52,Woman
4,812483,final-intermixed-textured,v2,jsons/MX_seq32_0_VE1000_flipped.json,http://54.235.29.9/FacialAge/BNav_EC2/DepthDuration/MX_fS_VE_MTurk/MX_fS_HTML.html#2,2,1280,593,1280,720,1-8-2024,19-34-39,5,VR_target_stimuli/s45_0.75x_3.5_362_BC.png,1000,0.75x,3.5,0.4,7695,997,meters,jsons/MX_seq32_0_VE1000_flipped.json,453848,1095719,52,Woman
5,812483,final-intermixed-textured,v2,jsons/MX_seq32_0_VE1000_flipped.json,http://54.235.29.9/FacialAge/BNav_EC2/DepthDuration/MX_fS_VE_MTurk/MX_fS_HTML.html#2,2,1280,593,1280,720,1-8-2024,19-34-39,6,VR_target_stimuli/s23_1.3x_3.65_354.png,1000,1.3x,3.65,1.0,8594,1000,meters,jsons/MX_seq32_0_VE1000_flipped.json,453848,1095719,52,Woman
6,812483,final-intermixed-textured,v2,jsons/MX_seq32_0_VE1000_flipped.json,http://54.235.29.9/FacialAge/BNav_EC2/DepthDuration/MX_fS_VE_MTurk/MX_fS_HTML.html#2,2,1280,593,1280,720,1-8-2024,19-34-39,7,catch_stimuli/c0_BC.png,1000,,,0.0,5972,997,meters,jsons/MX_seq32_0_VE1000_flipped.json,453848,1095719,52,Woman
7,812483,final-intermixed-textured,v2,jsons/MX_seq32_0_VE1000_flipped.json,http://54.235.29.9/FacialAge/BNav_EC2/DepthDuration/MX_fS_VE_MTurk/MX_fS_HTML.html#2,2,1280,593,1280,720,1-8-2024,19-34-39,8,VR_target_stimuli/s26_1.3x_4_441.png,1000,1.3x,4.0,0.5,6817,999,meters,jsons/MX_seq32_0_VE1000_flipped.json,453848,1095719,52,Woman
8,812483,final-intermixed-textured,v2,jsons/MX_seq32_0_VE1000_flipped.json,http://54.235.29.9/FacialAge/BNav_EC2/DepthDuration/MX_fS_VE_MTurk/MX_fS_HTML.html#2,2,1280,593,1280,720,1-8-2024,19-34-39,9,VR_target_stimuli/s12_1x_3.1_372.png,1000,1x,3.1,1.0,6018,999,meters,jsons/MX_seq32_0_VE1000_flipped.json,453848,1095719,52,Woman
9,812483,final-intermixed-textured,v2,jsons/MX_seq32_0_VE1000_flipped.json,http://54.235.29.9/FacialAge/BNav_EC2/DepthDuration/MX_fS_VE_MTurk/MX_fS_HTML.html#2,2,1280,593,1280,720,1-8-2024,19-34-39,10,VR_target_stimuli/s30_0.75x_2.3_332.png,1000,0.75x,2.3,0.3,12045,1006,meters,jsons/MX_seq32_0_VE1000_flipped.json,453848,1095719,52,Woman
10,812483,final-intermixed-textured,v2,jsons/MX_seq32_0_VE1000_flipped.json,http://54.235.29.9/FacialAge/BNav_EC2/DepthDuration/MX_fS_VE_MTurk/MX_fS_HTML.html#2,2,1280,593,1280,720,1-8-2024,19-34-39,11,VR_target_stimuli/s16_1x_1_219_BC.png,1000,1x,1.0,0.4,8085,1005,meters,jsons/MX_seq32_0_VE1000_flipped.json,453848,1095719,52,Woman
11,812483,final-intermixed-textured,v2,jsons/MX_seq32_0_VE1000_flipped.json,http://54.235.29.9/FacialAge/BNav_EC2/DepthDuration/MX_fS_VE_MTurk/MX_fS_HTML.html#2,2,1280,593,1280,720,1-8-2024,19-34-39,12,VR_target_stimuli/s17_1.3x_1.8_300_BC.png,1000,1.3x,1.8,1.0,5790,1007,meters,jsons/MX_seq32_0_VE1000_flipped.json,453848,1095719,52,Woman
12,812483,final-intermixed-textured,v2,jsons/MX_seq32_0_VE1000_flipped.json,http://54.235.29.9/FacialAge/BNav_EC2/DepthDuration/MX_fS_VE_MTurk/MX_fS_HTML.html#2,2,1280,593,1280,720,1-8-2024,19-34-39,13,VR_target_stimuli/s5_0.75x_4_375_BC.png,1000,0.75x,4.0,1.0,5286,1002,meters,jsons/MX_seq32_0_VE1000_flipped.json,453848,1095719,52,Woman
13,812483,final-intermixed-textured,v2,jsons/MX_seq32_0_VE1000_flipped.json,http://54.235.29.9/FacialAge/BNav_EC2/DepthDuration/MX_fS_VE_MTurk/MX_fS_HTML.html#2,2,1280,593,1280,720,1-8-2024,19-34-39,14,VR_target_stimuli/s37_1.3x_3.3_555_BC.png,1000,1.3x,3.3,0.7,6477,998,meters,jsons/MX_seq32_0_VE1000_flipped.json,453848,1095719,52,Woman
14,812483,final-intermixed-textured,v2,jsons/MX_seq32_0_VE1000_flipped.json,http://54.235.29.9/FacialAge/BNav_EC2/DepthDuration/MX_fS_VE_MTurk/MX_fS_HTML.html#2,2,1280,593,1280,720,1-8-2024,19-34-39,15,VR_target_stimuli/s46_1x_2.42_348.png,1000,1x,2.42,0.5,7691,999,meters,jsons/MX_seq32_0_VE1000_flipped.json,453848,1095719,52,Woman
15,812483,final-intermixed-textured,v2,jsons/MX_seq32_0_VE1000_flipped.json,http://54.235.29.9/FacialAge/BNav_EC2/DepthDuration/MX_fS_VE_MTurk/MX_fS_HTML.html#2,2,1280,593,1280,720,1-8-2024,19-34-39,16,VR_target_stimuli/s22_0.75x_4.29_348.png,1000,0.75x,4.29,0.4,7095,1003,meters,jsons/MX_seq32_0_VE1000_flipped.json,453848,1095719,52,Woman
16,812483,final-intermixed-textured,v2,jsons/MX_seq32_0_VE1000_flipped.json,http://54.235.29.9/FacialAge/BNav_EC2/DepthDuration/MX_fS_VE_MTurk/MX_fS_HTML.html#2,2,1280,593,1280,720,1-8-2024,19-34-39,17,catch_stimuli/c1_BC.png,1000,,,0.0,5674,999,meters,jsons/MX_seq32_0_VE1000_flipped.json,453848,1095719,52,Woman
17,812483,final-intermixed-textured,v2,jsons/MX_seq32_0_VE1000_flipped.json,http://54.235.29.9/FacialAge/BNav_EC2/DepthDuration/MX_fS_VE_MTurk/MX_fS_HTML.html#2,2,1280,593,1280,720,1-8-2024,19-34-39,18,VR_target_stimuli/s42_0.75x_3.2_301_BC.png,1000,0.75x,3.2,0.5,8468,999,meters,jsons/MX_seq32_0_VE1000_flipped.json,453848,1095719,52,Woman
18,812483,final-intermixed-textured,v2,jsons/MX_seq32_0_VE1000_flipped.json,http://54.235.29.9/FacialAge/BNav_EC2/DepthDuration/MX_fS_VE_MTurk/MX_fS_HTML.html#2,2,1280,593,1280,720,1-8-2024,19-34-39,19,VR_target_stimuli/s25_1.3x_1.4_299.png,1000,1.3x,1.4,0.5,7326,999,meters,jsons/MX_seq32_0_VE1000_flipped.json,453848,1095719,52,Woman
19,812483,final-intermixed-textured,v2,jsons/MX_seq32_0_VE1000_flipped.json,http://54.235.29.9/FacialAge/BNav_EC2/DepthDuration/MX_fS_VE_MTurk/MX_fS_HTML.html#2,2,1280,593,1280,720,1-8-2024,19-34-39,20,VR_target_stimuli/s50_1x_4.53_518_BC.png,1000,1x,4.53,0.6,6630,1001,meters,jsons/MX_seq32_0_VE1000_flipped.json,453848,1095719,52,Woman
20,812483,final-intermixed-textured,v2,jsons/MX_seq32_0_VE1000_flipped.json,http://54.235.29.9/FacialAge/BNav_EC2/DepthDuration/MX_fS_VE_MTurk/MX_fS_HTML.html#2,2,1280,593,1280,720,1-8-2024,19-34-39,21,VR_target_stimuli/s53_1.3x_1.6_355_BC.png,1000,1.3x,1.6,1.0,6069,999,meters,jsons/MX_seq32_0_VE1000_flipped.json,453848,1095719,52,Woman
21,812483,final-intermixed-textured,v2,jsons/MX_seq32_0_VE1000_flipped.json,http://54.235.29.9/FacialAge/BNav_EC2/DepthDuration/MX_fS_VE_MTurk/MX_fS_HTML.html#2,2,1280,593,1280,720,1-8-2024,19-34-39,22,VR_target_stimuli/s38_0.75x_3.55_346_BC.png,1000,0.75x,3.55,1.0,9456,989,meters,jsons/MX_seq32_0_VE1000_flipped.json,453848,1095719,52,Woman
22,812483,final-intermixed-textured,v2,jsons/MX_seq32_0_VE1000_flipped.json,http://54.235.29.9/FacialAge/BNav_EC2/DepthDuration/MX_fS_VE_MTurk/MX_fS_HTML.html#2,2,1280,593,1280,720,1-8-2024,19-34-39,23,VR_target_stimuli/s9_1x_1.2_263_BC.png,1000,1x,1.2,1.0,7672,1000,meters,jsons/MX_seq32_0_VE1000_flipped.json,453848,1095719,52,Woman
23,812483,final-intermixed-textured,v2,jsons/MX_seq32_0_VE1000_flipped.json,http://54.235.29.9/FacialAge/BNav_EC2/DepthDuration/MX_fS_VE_MTurk/MX_fS_HTML.html#2,2,1280,593,1280,720,1-8-2024,19-34-39,24,VR_target_stimuli/s44_0.75x_4.4_314.png,1000,0.75x,4.4,1.1,9159,1001,meters,jsons/MX_seq32_0_VE1000_flipped.json,453848,1095719,52,Woman
24,812483,final-intermixed-textured,v2,jsons/MX_seq32_0_VE1000_flipped.json,http://54.235.29.9/FacialAge/BNav_EC2/DepthDuration/MX_fS_VE_MTurk/MX_fS_HTML.html#2,2,1280,593,1280,720,1-8-2024,19-34-39,25,VR_target_stimuli/s3_1.3x_5_390.png,1000,1.3x,5.0,0.9,7690,993,meters,jsons/MX_seq32_0_VE1000_flipped.json,453848,1095719,52,Woman
25,812483,final-intermixed-textured,v2,jsons/MX_seq32_0_VE1000_flipped.json,http://54.235.29.9/FacialAge/BNav_EC2/DepthDuration/MX_fS_VE_MTurk/MX_fS_HTML.html#2,2,1280,593,1280,720,1-8-2024,19-34-39,26,catch_stimuli/c2_BC.png,1000,,,0.0,5793,987,meters,jsons/MX_seq32_0_VE1000_flipped.json,453848,1095719,52,Woman
26,812483,final-intermixed-textured,v2,jsons/MX_seq32_0_VE1000_flipped.json,http://54.235.29.9/FacialAge/BNav_EC2/DepthDuration/MX_fS_VE_MTurk/MX_fS_HTML.html#2,2,1280,593,1280,720,1-8-2024,19-34-39,27,VR_target_stimuli/s1_1x_1.7_262.png,1000,1x,1.7,1.0,5301,1000,meters,jsons/MX_seq32_0_VE1000_flipped.json,453848,1095719,52,Woman
27,812483,final-intermixed-textured,v2,jsons/MX_seq32_0_VE1000_flipped.json,http://54.235.29.9/FacialAge/BNav_EC2/DepthDuration/MX_fS_VE_MTurk/MX_fS_HTML.html#2,2,1280,593,1280,720,1-8-2024,19-34-39,28,VR_target_stimuli/s11_1x_5_361_BC.png,1000,1x,5.0,1.0,5346,998,meters,jsons/MX_seq32_0_VE1000_flipped.json,453848,1095719,52,Woman
28,812483,final-intermixed-textured,v2,jsons/MX_seq32_0_VE1000_flipped.json,http://54.235.29.9/FacialAge/BNav_EC2/DepthDuration/MX_fS_VE_MTurk/MX_fS_HTML.html#2,2,1280,593,1280,720,1-8-2024,19-34-39,29,VR_target_stimuli/s2_0.75x_2.7_384_BC.png,1000,0.75x,2.7,0.9,6419,999,meters,jsons/MX_seq32_0_VE1000_flipped.json,453848,1095719,52,Woman
29,812483,final-intermixed-textured,v2,jsons/MX_seq32_0_VE1000_flipped.json,http://54.235.29.9/FacialAge/BNav_EC2/DepthDuration/MX_fS_VE_MTurk/MX_fS_HTML.html#2,2,1280,593,1280,720,1-8-2024,19-34-39,30,VR_target_stimuli/s6_1.3x_2.1_298_BC.png,1000,1.3x,2.1,1.0,5196,987,meters,jsons/MX_seq32_0_VE1000_flipped.json,453848,1095719,52,Woman
30,812483,final-intermixed-textured,v2,jsons/MX_seq32_0_VE1000_flipped.json,http://54.235.29.9/FacialAge/BNav_EC2/DepthDuration/MX_fS_VE_MTurk/MX_fS_HTML.html#2,2,1280,593,1280,720,1-8-2024,19-34-39,31,VR_target_stimuli/s0_1x_2.6_351.png,1000,1x,2.6,1.0,5212,988,meters,jsons/MX_seq32_0_VE1000_flipped.json,453848,1095719,52,Woman
31,812483,final-intermixed-textured,v2,jsons/MX_seq32_0_VE1000_flipped.json,http://54.235.29.9/FacialAge/BNav_EC2/DepthDuration/MX_fS_VE_MTurk/MX_fS_HTML.html#2,2,1280,593,1280,720,1-8-2024,19-34-39,32,VR_target_stimuli/s34_1.3x_2.8_294.png,1000,1.3x,2.8,1.1,7039,998,meters,jsons/MX_seq32_0_VE1000_flipped.json,453848,1095719,52,Woman
32,812483,final-intermixed-textured,v2,jsons/MX_seq32_0_VE1000_flipped.json,http://54.235.29.9/FacialAge/BNav_EC2/DepthDuration/MX_fS_VE_MTurk/MX_fS_HTML.html#2,2,1280,593,1280,720,1-8-2024,19-34-39,33,VR_target_stimuli/s13_0.75x_2.4_308.png,1000,0.75x,2.4,1.2,6810,1004,meters,jsons/MX_seq32_0_VE1000_flipped.json,453848,1095719,52,Woman
33,812483,final-intermixed-textured,v2,jsons/MX_seq32_0_VE1000_flipped.json,http://54.235.29.9/FacialAge/BNav_EC2/DepthDuration/MX_fS_VE_MTurk/MX_fS_HTML.html#2,2,1280,593,1280,720,1-8-2024,19-34-39,34,catch_stimuli/c3_BC.png,1000,,,0.0,5543,1001,meters,jsons/MX_seq32_0_VE1000_flipped.json,453848,1095719,52,Woman
34,812483,final-intermixed-textured,v2,jsons/MX_seq32_0_VE1000_flipped.json,http://54.235.29.9/FacialAge/BNav_EC2/DepthDuration/MX_fS_VE_MTurk/MX_fS_HTML.html#2,2,1280,593,1280,720,1-8-2024,19-34-39,35,VR_target_stimuli/s14_1.3x_3.83_359.png,1000,1.3x,3.83,1.0,9740,990,meters,jsons/MX_seq32_0_VE1000_flipped.json,453848,1095719,52,Woman
35,812483,final-intermixed-textured,v2,jsons/MX_seq32_0_VE1000_flipped.json,http://54.235.29.9/FacialAge/BNav_EC2/DepthDuration/MX_fS_VE_MTurk/MX_fS_HTML.html#2,2,1280,593,1280,720,1-8-2024,19-34-39,36,VR_target_stimuli/s47_1x_3.45_370_BC.png,1000,1x,3.45,1.0,5010,990,meters,jsons/MX_seq32_0_VE1000_flipped.json,453848,1095719,52,Woman
36,812483,final-intermixed-textured,v2,jsons/MX_seq32_0_VE1000_flipped.json,http://54.235.29.9/FacialAge/BNav_EC2/DepthDuration/MX_fS_VE_MTurk/MX_fS_HTML.html#2,2,1280,593,1280,720,1-8-2024,19-34-39,37,VR_target_stimuli/s29_0.75x_1.3_246_BC.png,1000,0.75x,1.3,0.6,6395,1001,meters,jsons/MX_seq32_0_VE1000_flipped.json,453848,1095719,52,Woman
37,812483,final-intermixed-textured,v2,jsons/MX_seq32_0_VE1000_flipped.json,http://54.235.29.9/FacialAge/BNav_EC2/DepthDuration/MX_fS_VE_MTurk/MX_fS_HTML.html#2,2,1280,593,1280,720,1-8-2024,19-34-39,38,VR_target_stimuli/s28_0.75x_3.2_357.png,1000,0.75x,3.2,1.0,4892,995,meters,jsons/MX_seq32_0_VE1000_flipped.json,453848,1095719,52,Woman
38,812483,final-intermixed-textured,v2,jsons/MX_seq32_0_VE1000_flipped.json,http://54.235.29.9/FacialAge/BNav_EC2/DepthDuration/MX_fS_VE_MTurk/MX_fS_HTML.html#2,2,1280,593,1280,720,1-8-2024,19-34-39,39,VR_target_stimuli/s48_1.3x_2.55_255_BC.png,1000,1.3x,2.55,0.5,5918,986,meters,jsons/MX_seq32_0_VE1000_flipped.json,453848,1095719,52,Woman
39,812483,final-intermixed-textured,v2,jsons/MX_seq32_0_VE1000_flipped.json,http://54.235.29.9/FacialAge/BNav_EC2/DepthDuration/MX_fS_VE_MTurk/MX_fS_HTML.html#2,2,1280,593,1280,720,1-8-2024,19-34-39,40,VR_target_stimuli/s19_1x_1.21_263.png,1000,1x,1.21,0.6,5545,986,meters,jsons/MX_seq32_0_VE1000_flipped.json,453848,1095719,52,Woman
40,812483,final-intermixed-textured,v2,jsons/MX_seq32_0_VE1000_flipped.json,http://54.235.29.9/FacialAge/BNav_EC2/DepthDuration/MX_fS_VE_MTurk/MX_fS_HTML.html#2,2,1280,593,1280,720,1-8-2024,19-34-39,41,VR_target_stimuli/s21_1.3x_4.22_384.png,1000,1.3x,4.22,0.5,6931,999,meters,jsons/MX_seq32_0_VE1000_flipped.json,453848,1095719,52,Woman
41,812483,final-intermixed-textured,v2,jsons/MX_seq32_0_VE1000_flipped.json,http://54.235.29.9/FacialAge/BNav_EC2/DepthDuration/MX_fS_VE_MTurk/MX_fS_HTML.html#2,2,1280,593,1280,720,1-8-2024,19-34-39,42,VR_target_stimuli/s8_0.75x_3.1_325_BC.png,1000,0.75x,3.1,1.0,5942,1007,meters,jsons/MX_seq32_0_VE1000_flipped.json,453848,1095719,52,Woman
42,812483,final-intermixed-textured,v2,jsons/MX_seq32_0_VE1000_flipped.json,http://54.235.29.9/FacialAge/BNav_EC2/DepthDuration/MX_fS_VE_MTurk/MX_fS_HTML.html#2,2,1280,593,1280,720,1-8-2024,19-34-39,43,VR_target_stimuli/s27_1x_1.76_248.png,1000,1x,1.76,1.0,6175,992,meters,jsons/MX_seq32_0_VE1000_flipped.json,453848,1095719,52,Woman
43,812483,final-intermixed-textured,v2,jsons/MX_seq32_0_VE1000_flipped.json,http://54.235.29.9/FacialAge/BNav_EC2/DepthDuration/MX_fS_VE_MTurk/MX_fS_HTML.html#2,2,1280,593,1280,720,1-8-2024,19-34-39,44,VR_target_stimuli/s15_0.75x_4.2_388.png,1000,0.75x,4.2,0.9,9413,999,meters,jsons/MX_seq32_0_VE1000_flipped.json,453848,1095719,52,Woman
44,812483,final-intermixed-textured,v2,jsons/MX_seq32_0_VE1000_flipped.json,http://54.235.29.9/FacialAge/BNav_EC2/DepthDuration/MX_fS_VE_MTurk/MX_fS_HTML.html#2,2,1280,593,1280,720,1-8-2024,19-34-39,45,catch_stimuli/c4_BC.png,1000,,,0.0,4988,1000,meters,jsons/MX_seq32_0_VE1000_flipped.json,453848,1095719,52,Woman
45,812483,final-intermixed-textured,v2,jsons/MX_seq32_0_VE1000_flipped.json,http://54.235.29.9/FacialAge/BNav_EC2/DepthDuration/MX_fS_VE_MTurk/MX_fS_HTML.html#2,2,1280,593,1280,720,1-8-2024,19-34-39,46,VR_target_stimuli/s4_1.3x_1.4_328_BC.png,1000,1.3x,1.4,1.0,6065,999,meters,jsons/MX_seq32_0_VE1000_flipped.json,453848,1095719,52,Woman
46,812483,final-intermixed-textured,v2,jsons/MX_seq32_0_VE1000_flipped.json,http://54.235.29.9/FacialAge/BNav_EC2/DepthDuration/MX_fS_VE_MTurk/MX_fS_HTML.html#2,2,1280,593,1280,720,1-8-2024,19-34-39,47,VR_target_stimuli/s35_1x_2_331_BC.png,1000,1x,2.0,0.5,6840,988,meters,jsons/MX_seq32_0_VE1000_flipped.json,453848,1095719,52,Woman
47,812483,final-intermixed-textured,v2,jsons/MX_seq32_0_VE1000_flipped.json,http://54.235.29.9/FacialAge/BNav_EC2/DepthDuration/MX_fS_VE_MTurk/MX_fS_HTML.html#2,2,1280,593,1280,720,1-8-2024,19-34-39,48,VR_target_stimuli/s49_1x_4.67_341.png,1000,1x,4.67,1.0,4983,988,meters,jsons/MX_seq32_0_VE1000_flipped.json,453848,1095719,52,Woman
48,812483,final-intermixed-textured,v2,jsons/MX_seq32_0_VE1000_flipped.json,http://54.235.29.9/FacialAge/BNav_EC2/DepthDuration/MX_fS_VE_MTurk/MX_fS_HTML.html#2,2,1280,593,1280,720,1-8-2024,19-34-39,49,VR_target_stimuli/s7_0.75x_1.5_253_BC.png,1000,0.75x,1.5,1.1,6490,999,meters,jsons/MX_seq32_0_VE1000_flipped.json,453848,1095719,52,Woman
49,812483,final-intermixed-textured,v2,jsons/MX_seq32_0_VE1000_flipped.json,http://54.235.29.9/FacialAge/BNav_EC2/DepthDuration/MX_fS_VE_MTurk/MX_fS_HTML.html#2,2,1280,593,1280,720,1-8-2024,19-34-39,50,VR_target_stimuli/s20_1.3x_4.99_412_BC.png,1000,1.3x,4.99,0.4,10056,1002,meters,jsons/MX_seq32_0_VE1000_flipped.json,453848,1095719,52,Woman
50,812483,final-intermixed-textured,v2,jsons/MX_seq32_0_VE1000_flipped.json,http://54.235.29.9/FacialAge/BNav_EC2/DepthDuration/MX_fS_VE_MTurk/MX_fS_HTML.html#2,2,1280,593,1280,720,1-8-2024,19-34-39,51,VR_target_stimuli/s31_0.75x_4.96_329.png,1000,0.75x,4.96,0.0,6729,999,meters,jsons/MX_seq32_0_VE1000_flipped.json,453848,1095719,52,Woman
51,812483,final-intermixed-textured,v2,jsons/MX_seq32_0_VE1000_flipped.json,http://54.235.29.9/FacialAge/BNav_EC2/DepthDuration/MX_fS_VE_MTurk/MX_fS_HTML.html#2,2,1280,593,1280,720,1-8-2024,19-34-39,52,VR_target_stimuli/s33_1x_3.1_366_BC.png,1000,1x,3.1,1.0,4937,988,meters,jsons/MX_seq32_0_VE1000_flipped.json,453848,1095719,52,Woman
52,812483,final-intermixed-textured,v2,jsons/MX_seq32_0_VE1000_flipped.json,http://54.235.29.9/FacialAge/BNav_EC2/DepthDuration/MX_fS_VE_MTurk/MX_fS_HTML.html#2,2,1280,593,1280,720,1-8-2024,19-34-39,53,catch_stimuli/c5_BC.png,1000,,,0.0,7773,997,meters,jsons/MX_seq32_0_VE1000_flipped.json,453848,1095719,52,Woman
53,812483,final-intermixed-textured,v2,jsons/MX_seq32_0_VE1000_flipped.json,http://54.235.29.9/FacialAge/BNav_EC2/DepthDuration/MX_fS_VE_MTurk/MX_fS_HTML.html#2,2,1280,593,1280,720,1-8-2024,19-34-39,54,VR_target_stimuli/s52_1.3x_3.2_280.png,1000,1.3x,3.2,1.0,5665,1003,meters,jsons/MX_seq32_0_VE1000_flipped.json,453848,1095719,52,Woman
54,812483,final-intermixed-textured,v2,jsons/MX_seq32_0_VE1000_flipped.json,http://54.235.29.9/FacialAge/BNav_EC2/DepthDuration/MX_fS_VE_MTurk/MX_fS_HTML.html#2,2,1280,593,1280,720,1-8-2024,19-34-39,55,VR_target_stimuli/s32_1x_1.5_218.png,1000,1x,1.5,1.3,6955,986,meters,jsons/MX_seq32_0_VE1000_flipped.json,453848,1095719,52,Woman
55,812483,final-intermixed-textured,v2,jsons/MX_seq32_0_VE1000_flipped.json,http://54.235.29.9/FacialAge/BNav_EC2/DepthDuration/MX_fS_VE_MTurk/MX_fS_HTML.html#2,2,1280,593,1280,720,1-8-2024,19-34-39,56,VR_target_stimuli/s18_0.75x_2.25_341.png,1000,0.75x,2.25,1.0,5188,1000,meters,jsons/MX_seq32_0_VE1000_flipped.json,453848,1095719,52,Woman
56,812483,final-intermixed-textured,v2,jsons/MX_seq32_0_VE1000_flipped.json,http://54.235.29.9/FacialAge/BNav_EC2/DepthDuration/MX_fS_VE_MTurk/MX_fS_HTML.html#2,2,1280,593,1280,720,1-8-2024,19-34-39,57,VR_target_stimuli/s39_1.3x_1_208.png,1000,1.3x,1.0,0.7,20702,987,meters,jsons/MX_seq32_0_VE1000_flipped.json,453848,1095719,52,Woman
57,812483,final-intermixed-textured,v2,jsons/MX_seq32_0_VE1000_flipped.json,http://54.235.29.9/FacialAge/BNav_EC2/DepthDuration/MX_fS_VE_MTurk/MX_fS_HTML.html#2,2,1280,593,1280,720,1-8-2024,19-34-39,58,VR_target_stimuli/s51_1.3x_3.64_479_BC.png,1000,1.3x,3.64,0.5,6745,1002,meters,jsons/MX_seq32_0_VE1000_flipped.json,453848,1095719,52,Woman
58,812483,final-intermixed-textured,v2,jsons/MX_seq32_0_VE1000_flipped.json,http://54.235.29.9/FacialAge/BNav_EC2/DepthDuration/MX_fS_VE_MTurk/MX_fS_HTML.html#2,2,1280,593,1280,720,1-8-2024,19-34-39,59,VR_target_stimuli/s43_1x_2.2_354_BC.png,1000,1x,2.2,0.8,6213,999,meters,jsons/MX_seq32_0_VE1000_flipped.json,453848,1095719,52,Woman
59,812483,final-intermixed-textured,v2,jsons/MX_seq32_0_VE1000_flipped.json,http://54.235.29.9/FacialAge/BNav_EC2/DepthDuration/MX_fS_VE_MTurk/MX_fS_HTML.html#2,2,1280,593,1280,720,1-8-2024,19-34-39,60,VR_target_stimuli/s24_0.75x_3.3_344_BC.png,1000,0.75x,3.3,1.0,4787,988,meters,jsons/MX_seq32_0_VE1000_flipped.json,453848,1095719,52,Woman
