,subjID,experimentName,versionName,sequenceName,url,selected_row,windowWidth,windowHeight,screenWidth,screenHeight,startDate,startTime,trial,stimulus,duration,scale,actual_depth,depth_estimate,trial_RT,log_sceneDuration,unitSelection,seq_filepath,experimentTime,totalTime,age,gender
0,817233,final-intermixed-textured,v2,jsons/MX_seq36_1_VE1000.json,http://54.235.29.9/FacialAge/BNav_EC2/DepthDuration/MX_fS_VE_MTurk/MX_fS_HTML.html#25,25,1536,730,1536,864,1-8-2024,12-40-48,1,VR_target_stimuli/s45_1.3x_3.5_377_BC.png,1000,1.3x,3.5,2.3,3951,1012,meters,jsons/MX_seq36_1_VE1000.json,220936,287467,23,Woman
1,817233,final-intermixed-textured,v2,jsons/MX_seq36_1_VE1000.json,http://54.235.29.9/FacialAge/BNav_EC2/DepthDuration/MX_fS_VE_MTurk/MX_fS_HTML.html#25,25,1536,730,1536,864,1-8-2024,12-40-48,2,VR_target_stimuli/s23_0.75x_3.65_351.png,1000,0.75x,3.65,2.0,3318,999,meters,jsons/MX_seq36_1_VE1000.json,220936,287467,23,Woman
2,817233,final-intermixed-textured,v2,jsons/MX_seq36_1_VE1000.json,http://54.235.29.9/FacialAge/BNav_EC2/DepthDuration/MX_fS_VE_MTurk/MX_fS_HTML.html#25,25,1536,730,1536,864,1-8-2024,12-40-48,3,VR_target_stimuli/s26_1x_4_433.png,1000,1x,4.0,3.0,2894,1001,meters,jsons/MX_seq36_1_VE1000.json,220936,287467,23,Woman
3,817233,final-intermixed-textured,v2,jsons/MX_seq36_1_VE1000.json,http://54.235.29.9/FacialAge/BNav_EC2/DepthDuration/MX_fS_VE_MTurk/MX_fS_HTML.html#25,25,1536,730,1536,864,1-8-2024,12-40-48,4,VR_target_stimuli/s12_0.75x_3.1_364_BC.png,1000,0.75x,3.1,3.0,3764,999,meters,jsons/MX_seq36_1_VE1000.json,220936,287467,23,Woman
4,817233,final-intermixed-textured,v2,jsons/MX_seq36_1_VE1000.json,http://54.235.29.9/FacialAge/BNav_EC2/DepthDuration/MX_fS_VE_MTurk/MX_fS_HTML.html#25,25,1536,730,1536,864,1-8-2024,12-40-48,5,VR_target_stimuli/s30_1.3x_2.3_337.png,1000,1.3x,2.3,2.5,3297,999,meters,jsons/MX_seq36_1_VE1000.json,220936,287467,23,Woman
5,817233,final-intermixed-textured,v2,jsons/MX_seq36_1_VE1000.json,http://54.235.29.9/FacialAge/BNav_EC2/DepthDuration/MX_fS_VE_MTurk/MX_fS_HTML.html#25,25,1536,730,1536,864,1-8-2024,12-40-48,6,VR_target_stimuli/s16_1x_1_219_BC.png,1000,1x,1.0,1.0,2789,987,meters,jsons/MX_seq36_1_VE1000.json,220936,287467,23,Woman
6,817233,final-intermixed-textured,v2,jsons/MX_seq36_1_VE1000.json,http://54.235.29.9/FacialAge/BNav_EC2/DepthDuration/MX_fS_VE_MTurk/MX_fS_HTML.html#25,25,1536,730,1536,864,1-8-2024,12-40-48,7,catch_stimuli/c0.png,1000,,,0.0,3144,1000,meters,jsons/MX_seq36_1_VE1000.json,220936,287467,23,Woman
7,817233,final-intermixed-textured,v2,jsons/MX_seq36_1_VE1000.json,http://54.235.29.9/FacialAge/BNav_EC2/DepthDuration/MX_fS_VE_MTurk/MX_fS_HTML.html#25,25,1536,730,1536,864,1-8-2024,12-40-48,8,VR_target_stimuli/s17_1x_1.8_291.png,1000,1x,1.8,1.5,3314,1003,meters,jsons/MX_seq36_1_VE1000.json,220936,287467,23,Woman
8,817233,final-intermixed-textured,v2,jsons/MX_seq36_1_VE1000.json,http://54.235.29.9/FacialAge/BNav_EC2/DepthDuration/MX_fS_VE_MTurk/MX_fS_HTML.html#25,25,1536,730,1536,864,1-8-2024,12-40-48,9,VR_target_stimuli/s5_0.75x_4_375.png,1000,0.75x,4.0,3.0,2958,1004,meters,jsons/MX_seq36_1_VE1000.json,220936,287467,23,Woman
9,817233,final-intermixed-textured,v2,jsons/MX_seq36_1_VE1000.json,http://54.235.29.9/FacialAge/BNav_EC2/DepthDuration/MX_fS_VE_MTurk/MX_fS_HTML.html#25,25,1536,730,1536,864,1-8-2024,12-40-48,10,VR_target_stimuli/s37_1.3x_3.3_555.png,1000,1.3x,3.3,2.0,2464,986,meters,jsons/MX_seq36_1_VE1000.json,220936,287467,23,Woman
10,817233,final-intermixed-textured,v2,jsons/MX_seq36_1_VE1000.json,http://54.235.29.9/FacialAge/BNav_EC2/DepthDuration/MX_fS_VE_MTurk/MX_fS_HTML.html#25,25,1536,730,1536,864,1-8-2024,12-40-48,11,VR_target_stimuli/s46_0.75x_2.42_343_BC.png,1000,0.75x,2.42,2.0,3383,1001,meters,jsons/MX_seq36_1_VE1000.json,220936,287467,23,Woman
11,817233,final-intermixed-textured,v2,jsons/MX_seq36_1_VE1000.json,http://54.235.29.9/FacialAge/BNav_EC2/DepthDuration/MX_fS_VE_MTurk/MX_fS_HTML.html#25,25,1536,730,1536,864,1-8-2024,12-40-48,12,VR_target_stimuli/s22_1x_4.29_354_BC.png,1000,1x,4.29,3.5,3168,1004,meters,jsons/MX_seq36_1_VE1000.json,220936,287467,23,Woman
12,817233,final-intermixed-textured,v2,jsons/MX_seq36_1_VE1000.json,http://54.235.29.9/FacialAge/BNav_EC2/DepthDuration/MX_fS_VE_MTurk/MX_fS_HTML.html#25,25,1536,730,1536,864,1-8-2024,12-40-48,13,VR_target_stimuli/s42_1.3x_3.2_305_BC.png,1000,1.3x,3.2,3.0,3875,998,meters,jsons/MX_seq36_1_VE1000.json,220936,287467,23,Woman
13,817233,final-intermixed-textured,v2,jsons/MX_seq36_1_VE1000.json,http://54.235.29.9/FacialAge/BNav_EC2/DepthDuration/MX_fS_VE_MTurk/MX_fS_HTML.html#25,25,1536,730,1536,864,1-8-2024,12-40-48,14,VR_target_stimuli/s25_1x_1.4_290_BC.png,1000,1x,1.4,2.0,2915,987,meters,jsons/MX_seq36_1_VE1000.json,220936,287467,23,Woman
14,817233,final-intermixed-textured,v2,jsons/MX_seq36_1_VE1000.json,http://54.235.29.9/FacialAge/BNav_EC2/DepthDuration/MX_fS_VE_MTurk/MX_fS_HTML.html#25,25,1536,730,1536,864,1-8-2024,12-40-48,15,VR_target_stimuli/s50_0.75x_4.53_517_BC.png,1000,0.75x,4.53,2.5,3852,998,meters,jsons/MX_seq36_1_VE1000.json,220936,287467,23,Woman
15,817233,final-intermixed-textured,v2,jsons/MX_seq36_1_VE1000.json,http://54.235.29.9/FacialAge/BNav_EC2/DepthDuration/MX_fS_VE_MTurk/MX_fS_HTML.html#25,25,1536,730,1536,864,1-8-2024,12-40-48,16,VR_target_stimuli/s53_1.3x_1.6_355.png,1000,1.3x,1.6,1.0,2657,1001,meters,jsons/MX_seq36_1_VE1000.json,220936,287467,23,Woman
16,817233,final-intermixed-textured,v2,jsons/MX_seq36_1_VE1000.json,http://54.235.29.9/FacialAge/BNav_EC2/DepthDuration/MX_fS_VE_MTurk/MX_fS_HTML.html#25,25,1536,730,1536,864,1-8-2024,12-40-48,17,catch_stimuli/c1.png,1000,,,0.0,2876,1004,meters,jsons/MX_seq36_1_VE1000.json,220936,287467,23,Woman
17,817233,final-intermixed-textured,v2,jsons/MX_seq36_1_VE1000.json,http://54.235.29.9/FacialAge/BNav_EC2/DepthDuration/MX_fS_VE_MTurk/MX_fS_HTML.html#25,25,1536,730,1536,864,1-8-2024,12-40-48,18,VR_target_stimuli/s38_1.3x_3.55_358_BC.png,1000,1.3x,3.55,2.0,2701,999,meters,jsons/MX_seq36_1_VE1000.json,220936,287467,23,Woman
18,817233,final-intermixed-textured,v2,jsons/MX_seq36_1_VE1000.json,http://54.235.29.9/FacialAge/BNav_EC2/DepthDuration/MX_fS_VE_MTurk/MX_fS_HTML.html#25,25,1536,730,1536,864,1-8-2024,12-40-48,19,VR_target_stimuli/s9_1x_1.2_263.png,1000,1x,1.2,1.5,3073,1002,meters,jsons/MX_seq36_1_VE1000.json,220936,287467,23,Woman
19,817233,final-intermixed-textured,v2,jsons/MX_seq36_1_VE1000.json,http://54.235.29.9/FacialAge/BNav_EC2/DepthDuration/MX_fS_VE_MTurk/MX_fS_HTML.html#25,25,1536,730,1536,864,1-8-2024,12-40-48,20,VR_target_stimuli/s44_0.75x_4.4_314.png,1000,0.75x,4.4,4.0,2642,988,meters,jsons/MX_seq36_1_VE1000.json,220936,287467,23,Woman
20,817233,final-intermixed-textured,v2,jsons/MX_seq36_1_VE1000.json,http://54.235.29.9/FacialAge/BNav_EC2/DepthDuration/MX_fS_VE_MTurk/MX_fS_HTML.html#25,25,1536,730,1536,864,1-8-2024,12-40-48,21,VR_target_stimuli/s3_1x_5_385.png,1000,1x,5.0,4.0,2485,999,meters,jsons/MX_seq36_1_VE1000.json,220936,287467,23,Woman
21,817233,final-intermixed-textured,v2,jsons/MX_seq36_1_VE1000.json,http://54.235.29.9/FacialAge/BNav_EC2/DepthDuration/MX_fS_VE_MTurk/MX_fS_HTML.html#25,25,1536,730,1536,864,1-8-2024,12-40-48,22,VR_target_stimuli/s1_1.3x_1.7_261.png,1000,1.3x,1.7,3.0,2540,1003,meters,jsons/MX_seq36_1_VE1000.json,220936,287467,23,Woman
22,817233,final-intermixed-textured,v2,jsons/MX_seq36_1_VE1000.json,http://54.235.29.9/FacialAge/BNav_EC2/DepthDuration/MX_fS_VE_MTurk/MX_fS_HTML.html#25,25,1536,730,1536,864,1-8-2024,12-40-48,23,VR_target_stimuli/s11_0.75x_5_359_BC.png,1000,0.75x,5.0,4.0,3239,989,meters,jsons/MX_seq36_1_VE1000.json,220936,287467,23,Woman
23,817233,final-intermixed-textured,v2,jsons/MX_seq36_1_VE1000.json,http://54.235.29.9/FacialAge/BNav_EC2/DepthDuration/MX_fS_VE_MTurk/MX_fS_HTML.html#25,25,1536,730,1536,864,1-8-2024,12-40-48,24,VR_target_stimuli/s2_1.3x_2.7_397_BC.png,1000,1.3x,2.7,2.0,3127,995,meters,jsons/MX_seq36_1_VE1000.json,220936,287467,23,Woman
24,817233,final-intermixed-textured,v2,jsons/MX_seq36_1_VE1000.json,http://54.235.29.9/FacialAge/BNav_EC2/DepthDuration/MX_fS_VE_MTurk/MX_fS_HTML.html#25,25,1536,730,1536,864,1-8-2024,12-40-48,25,VR_target_stimuli/s6_1x_2.1_293_BC.png,1000,1x,2.1,2.5,3408,1000,meters,jsons/MX_seq36_1_VE1000.json,220936,287467,23,Woman
25,817233,final-intermixed-textured,v2,jsons/MX_seq36_1_VE1000.json,http://54.235.29.9/FacialAge/BNav_EC2/DepthDuration/MX_fS_VE_MTurk/MX_fS_HTML.html#25,25,1536,730,1536,864,1-8-2024,12-40-48,26,catch_stimuli/c2.png,1000,,,0.0,2900,1002,meters,jsons/MX_seq36_1_VE1000.json,220936,287467,23,Woman
26,817233,final-intermixed-textured,v2,jsons/MX_seq36_1_VE1000.json,http://54.235.29.9/FacialAge/BNav_EC2/DepthDuration/MX_fS_VE_MTurk/MX_fS_HTML.html#25,25,1536,730,1536,864,1-8-2024,12-40-48,27,VR_target_stimuli/s0_0.75x_2.6_345.png,1000,0.75x,2.6,2.5,3511,999,meters,jsons/MX_seq36_1_VE1000.json,220936,287467,23,Woman
27,817233,final-intermixed-textured,v2,jsons/MX_seq36_1_VE1000.json,http://54.235.29.9/FacialAge/BNav_EC2/DepthDuration/MX_fS_VE_MTurk/MX_fS_HTML.html#25,25,1536,730,1536,864,1-8-2024,12-40-48,28,VR_target_stimuli/s34_0.75x_2.8_269_BC.png,1000,0.75x,2.8,2.0,3409,1000,meters,jsons/MX_seq36_1_VE1000.json,220936,287467,23,Woman
28,817233,final-intermixed-textured,v2,jsons/MX_seq36_1_VE1000.json,http://54.235.29.9/FacialAge/BNav_EC2/DepthDuration/MX_fS_VE_MTurk/MX_fS_HTML.html#25,25,1536,730,1536,864,1-8-2024,12-40-48,29,VR_target_stimuli/s13_1.3x_2.4_313_BC.png,1000,1.3x,2.4,2.0,3019,1004,meters,jsons/MX_seq36_1_VE1000.json,220936,287467,23,Woman
29,817233,final-intermixed-textured,v2,jsons/MX_seq36_1_VE1000.json,http://54.235.29.9/FacialAge/BNav_EC2/DepthDuration/MX_fS_VE_MTurk/MX_fS_HTML.html#25,25,1536,730,1536,864,1-8-2024,12-40-48,30,VR_target_stimuli/s14_1x_ 3.83_357_BC.png,1000,1x,3.83,3.0,3277,988,meters,jsons/MX_seq36_1_VE1000.json,220936,287467,23,Woman
30,817233,final-intermixed-textured,v2,jsons/MX_seq36_1_VE1000.json,http://54.235.29.9/FacialAge/BNav_EC2/DepthDuration/MX_fS_VE_MTurk/MX_fS_HTML.html#25,25,1536,730,1536,864,1-8-2024,12-40-48,31,VR_target_stimuli/s47_0.75x_3.45_366.png,1000,0.75x,3.45,2.5,3187,999,meters,jsons/MX_seq36_1_VE1000.json,220936,287467,23,Woman
31,817233,final-intermixed-textured,v2,jsons/MX_seq36_1_VE1000.json,http://54.235.29.9/FacialAge/BNav_EC2/DepthDuration/MX_fS_VE_MTurk/MX_fS_HTML.html#25,25,1536,730,1536,864,1-8-2024,12-40-48,32,VR_target_stimuli/s29_1x_1.3_250.png,1000,1x,1.3,2.0,3220,999,meters,jsons/MX_seq36_1_VE1000.json,220936,287467,23,Woman
32,817233,final-intermixed-textured,v2,jsons/MX_seq36_1_VE1000.json,http://54.235.29.9/FacialAge/BNav_EC2/DepthDuration/MX_fS_VE_MTurk/MX_fS_HTML.html#25,25,1536,730,1536,864,1-8-2024,12-40-48,33,VR_target_stimuli/s28_1.3x_3.2_365.png,1000,1.3x,3.2,3.0,2574,999,meters,jsons/MX_seq36_1_VE1000.json,220936,287467,23,Woman
33,817233,final-intermixed-textured,v2,jsons/MX_seq36_1_VE1000.json,http://54.235.29.9/FacialAge/BNav_EC2/DepthDuration/MX_fS_VE_MTurk/MX_fS_HTML.html#25,25,1536,730,1536,864,1-8-2024,12-40-48,34,catch_stimuli/c3.png,1000,,,0.0,2940,1000,meters,jsons/MX_seq36_1_VE1000.json,220936,287467,23,Woman
34,817233,final-intermixed-textured,v2,jsons/MX_seq36_1_VE1000.json,http://54.235.29.9/FacialAge/BNav_EC2/DepthDuration/MX_fS_VE_MTurk/MX_fS_HTML.html#25,25,1536,730,1536,864,1-8-2024,12-40-48,35,VR_target_stimuli/s48_1x_2.55_256.png,1000,1x,2.55,2.5,3419,990,meters,jsons/MX_seq36_1_VE1000.json,220936,287467,23,Woman
35,817233,final-intermixed-textured,v2,jsons/MX_seq36_1_VE1000.json,http://54.235.29.9/FacialAge/BNav_EC2/DepthDuration/MX_fS_VE_MTurk/MX_fS_HTML.html#25,25,1536,730,1536,864,1-8-2024,12-40-48,36,VR_target_stimuli/s19_0.75x_1.21_257_BC.png,1000,0.75x,1.21,1.5,3143,1005,meters,jsons/MX_seq36_1_VE1000.json,220936,287467,23,Woman
36,817233,final-intermixed-textured,v2,jsons/MX_seq36_1_VE1000.json,http://54.235.29.9/FacialAge/BNav_EC2/DepthDuration/MX_fS_VE_MTurk/MX_fS_HTML.html#25,25,1536,730,1536,864,1-8-2024,12-40-48,37,VR_target_stimuli/s21_1.3x_4.22_384.png,1000,1.3x,4.22,4.0,3046,991,meters,jsons/MX_seq36_1_VE1000.json,220936,287467,23,Woman
37,817233,final-intermixed-textured,v2,jsons/MX_seq36_1_VE1000.json,http://54.235.29.9/FacialAge/BNav_EC2/DepthDuration/MX_fS_VE_MTurk/MX_fS_HTML.html#25,25,1536,730,1536,864,1-8-2024,12-40-48,38,VR_target_stimuli/s8_1.3x_3.1_345_BC.png,1000,1.3x,3.1,2.5,2901,993,meters,jsons/MX_seq36_1_VE1000.json,220936,287467,23,Woman
38,817233,final-intermixed-textured,v2,jsons/MX_seq36_1_VE1000.json,http://54.235.29.9/FacialAge/BNav_EC2/DepthDuration/MX_fS_VE_MTurk/MX_fS_HTML.html#25,25,1536,730,1536,864,1-8-2024,12-40-48,39,VR_target_stimuli/s27_1x_1.76_248_BC.png,1000,1x,1.76,2.5,3346,1006,meters,jsons/MX_seq36_1_VE1000.json,220936,287467,23,Woman
39,817233,final-intermixed-textured,v2,jsons/MX_seq36_1_VE1000.json,http://54.235.29.9/FacialAge/BNav_EC2/DepthDuration/MX_fS_VE_MTurk/MX_fS_HTML.html#25,25,1536,730,1536,864,1-8-2024,12-40-48,40,VR_target_stimuli/s15_0.75x_4.2_388.png,1000,0.75x,4.2,4.0,2900,1006,meters,jsons/MX_seq36_1_VE1000.json,220936,287467,23,Woman
40,817233,final-intermixed-textured,v2,jsons/MX_seq36_1_VE1000.json,http://54.235.29.9/FacialAge/BNav_EC2/DepthDuration/MX_fS_VE_MTurk/MX_fS_HTML.html#25,25,1536,730,1536,864,1-8-2024,12-40-48,41,VR_target_stimuli/s4_1x_1.4_313_BC.png,1000,1x,1.4,1.5,3112,1007,meters,jsons/MX_seq36_1_VE1000.json,220936,287467,23,Woman
41,817233,final-intermixed-textured,v2,jsons/MX_seq36_1_VE1000.json,http://54.235.29.9/FacialAge/BNav_EC2/DepthDuration/MX_fS_VE_MTurk/MX_fS_HTML.html#25,25,1536,730,1536,864,1-8-2024,12-40-48,42,VR_target_stimuli/s35_1.3x_2_338_BC.png,1000,1.3x,2.0,2.0,3454,1006,meters,jsons/MX_seq36_1_VE1000.json,220936,287467,23,Woman
42,817233,final-intermixed-textured,v2,jsons/MX_seq36_1_VE1000.json,http://54.235.29.9/FacialAge/BNav_EC2/DepthDuration/MX_fS_VE_MTurk/MX_fS_HTML.html#25,25,1536,730,1536,864,1-8-2024,12-40-48,43,VR_target_stimuli/s49_0.75x_4.67_328.png,1000,0.75x,4.67,2.5,3999,1002,meters,jsons/MX_seq36_1_VE1000.json,220936,287467,23,Woman
43,817233,final-intermixed-textured,v2,jsons/MX_seq36_1_VE1000.json,http://54.235.29.9/FacialAge/BNav_EC2/DepthDuration/MX_fS_VE_MTurk/MX_fS_HTML.html#25,25,1536,730,1536,864,1-8-2024,12-40-48,44,VR_target_stimuli/s7_1.3x_1.5_256.png,1000,1.3x,1.5,2.0,2551,1006,meters,jsons/MX_seq36_1_VE1000.json,220936,287467,23,Woman
44,817233,final-intermixed-textured,v2,jsons/MX_seq36_1_VE1000.json,http://54.235.29.9/FacialAge/BNav_EC2/DepthDuration/MX_fS_VE_MTurk/MX_fS_HTML.html#25,25,1536,730,1536,864,1-8-2024,12-40-48,45,catch_stimuli/c4.png,1000,,,0.0,3028,1002,meters,jsons/MX_seq36_1_VE1000.json,220936,287467,23,Woman
45,817233,final-intermixed-textured,v2,jsons/MX_seq36_1_VE1000.json,http://54.235.29.9/FacialAge/BNav_EC2/DepthDuration/MX_fS_VE_MTurk/MX_fS_HTML.html#25,25,1536,730,1536,864,1-8-2024,12-40-48,46,VR_target_stimuli/s20_1x_4.99_398.png,1000,1x,4.99,3.0,2637,990,meters,jsons/MX_seq36_1_VE1000.json,220936,287467,23,Woman
46,817233,final-intermixed-textured,v2,jsons/MX_seq36_1_VE1000.json,http://54.235.29.9/FacialAge/BNav_EC2/DepthDuration/MX_fS_VE_MTurk/MX_fS_HTML.html#25,25,1536,730,1536,864,1-8-2024,12-40-48,47,VR_target_stimuli/s31_0.75x_4.96_329_BC.png,1000,0.75x,4.96,2.5,3297,995,meters,jsons/MX_seq36_1_VE1000.json,220936,287467,23,Woman
47,817233,final-intermixed-textured,v2,jsons/MX_seq36_1_VE1000.json,http://54.235.29.9/FacialAge/BNav_EC2/DepthDuration/MX_fS_VE_MTurk/MX_fS_HTML.html#25,25,1536,730,1536,864,1-8-2024,12-40-48,48,VR_target_stimuli/s33_0.75x_3.1_361.png,1000,0.75x,3.1,2.5,3231,990,meters,jsons/MX_seq36_1_VE1000.json,220936,287467,23,Woman
48,817233,final-intermixed-textured,v2,jsons/MX_seq36_1_VE1000.json,http://54.235.29.9/FacialAge/BNav_EC2/DepthDuration/MX_fS_VE_MTurk/MX_fS_HTML.html#25,25,1536,730,1536,864,1-8-2024,12-40-48,49,VR_target_stimuli/s52_1.3x_3.2_280.png,1000,1.3x,3.2,2.0,3314,1012,meters,jsons/MX_seq36_1_VE1000.json,220936,287467,23,Woman
49,817233,final-intermixed-textured,v2,jsons/MX_seq36_1_VE1000.json,http://54.235.29.9/FacialAge/BNav_EC2/DepthDuration/MX_fS_VE_MTurk/MX_fS_HTML.html#25,25,1536,730,1536,864,1-8-2024,12-40-48,50,VR_target_stimuli/s32_1x_1.5_218.png,1000,1x,1.5,1.0,3169,1005,meters,jsons/MX_seq36_1_VE1000.json,220936,287467,23,Woman
50,817233,final-intermixed-textured,v2,jsons/MX_seq36_1_VE1000.json,http://54.235.29.9/FacialAge/BNav_EC2/DepthDuration/MX_fS_VE_MTurk/MX_fS_HTML.html#25,25,1536,730,1536,864,1-8-2024,12-40-48,51,VR_target_stimuli/s18_1.3x_2.25_368_BC.png,1000,1.3x,2.25,1.0,2745,1004,meters,jsons/MX_seq36_1_VE1000.json,220936,287467,23,Woman
51,817233,final-intermixed-textured,v2,jsons/MX_seq36_1_VE1000.json,http://54.235.29.9/FacialAge/BNav_EC2/DepthDuration/MX_fS_VE_MTurk/MX_fS_HTML.html#25,25,1536,730,1536,864,1-8-2024,12-40-48,52,VR_target_stimuli/s39_0.75x_1_205_BC.png,1000,0.75x,1.0,1.0,2730,1008,meters,jsons/MX_seq36_1_VE1000.json,220936,287467,23,Woman
52,817233,final-intermixed-textured,v2,jsons/MX_seq36_1_VE1000.json,http://54.235.29.9/FacialAge/BNav_EC2/DepthDuration/MX_fS_VE_MTurk/MX_fS_HTML.html#25,25,1536,730,1536,864,1-8-2024,12-40-48,53,catch_stimuli/c5.png,1000,,,0.0,2813,992,meters,jsons/MX_seq36_1_VE1000.json,220936,287467,23,Woman
53,817233,final-intermixed-textured,v2,jsons/MX_seq36_1_VE1000.json,http://54.235.29.9/FacialAge/BNav_EC2/DepthDuration/MX_fS_VE_MTurk/MX_fS_HTML.html#25,25,1536,730,1536,864,1-8-2024,12-40-48,54,VR_target_stimuli/s51_1x_3.64_461_BC.png,1000,1x,3.64,1.5,3423,988,meters,jsons/MX_seq36_1_VE1000.json,220936,287467,23,Woman
54,817233,final-intermixed-textured,v2,jsons/MX_seq36_1_VE1000.json,http://54.235.29.9/FacialAge/BNav_EC2/DepthDuration/MX_fS_VE_MTurk/MX_fS_HTML.html#25,25,1536,730,1536,864,1-8-2024,12-40-48,55,VR_target_stimuli/s43_0.75x_2.2_348.png,1000,0.75x,2.2,1.5,3485,988,meters,jsons/MX_seq36_1_VE1000.json,220936,287467,23,Woman
55,817233,final-intermixed-textured,v2,jsons/MX_seq36_1_VE1000.json,http://54.235.29.9/FacialAge/BNav_EC2/DepthDuration/MX_fS_VE_MTurk/MX_fS_HTML.html#25,25,1536,730,1536,864,1-8-2024,12-40-48,56,VR_target_stimuli/s24_1.3x_3.3_352.png,1000,1.3x,3.3,3.0,3081,1005,meters,jsons/MX_seq36_1_VE1000.json,220936,287467,23,Woman
56,817233,final-intermixed-textured,v2,jsons/MX_seq36_1_VE1000.json,http://54.235.29.9/FacialAge/BNav_EC2/DepthDuration/MX_fS_VE_MTurk/MX_fS_HTML.html#25,25,1536,730,1536,864,1-8-2024,12-40-48,57,VR_target_stimuli/s10_1x_2.7_324_BC.png,1000,1x,2.7,2.0,2501,1006,meters,jsons/MX_seq36_1_VE1000.json,220936,287467,23,Woman
57,817233,final-intermixed-textured,v2,jsons/MX_seq36_1_VE1000.json,http://54.235.29.9/FacialAge/BNav_EC2/DepthDuration/MX_fS_VE_MTurk/MX_fS_HTML.html#25,25,1536,730,1536,864,1-8-2024,12-40-48,58,VR_target_stimuli/s36_1x_4.1_423.png,1000,1x,4.1,2.5,3216,993,meters,jsons/MX_seq36_1_VE1000.json,220936,287467,23,Woman
58,817233,final-intermixed-textured,v2,jsons/MX_seq36_1_VE1000.json,http://54.235.29.9/FacialAge/BNav_EC2/DepthDuration/MX_fS_VE_MTurk/MX_fS_HTML.html#25,25,1536,730,1536,864,1-8-2024,12-40-48,59,VR_target_stimuli/s40_0.75x_1.2_308_BC.png,1000,0.75x,1.2,1.5,4971,990,meters,jsons/MX_seq36_1_VE1000.json,220936,287467,23,Woman
59,817233,final-intermixed-textured,v2,jsons/MX_seq36_1_VE1000.json,http://54.235.29.9/FacialAge/BNav_EC2/DepthDuration/MX_fS_VE_MTurk/MX_fS_HTML.html#25,25,1536,730,1536,864,1-8-2024,12-40-48,60,VR_target_stimuli/s41_1.3x_2.1_294_BC.png,1000,1.3x,2.1,1.5,5047,1005,meters,jsons/MX_seq36_1_VE1000.json,220936,287467,23,Woman
