,subjID,experimentName,versionName,sequenceName,url,selected_row,windowWidth,windowHeight,screenWidth,screenHeight,startDate,startTime,trial,stimulus,duration,scale,actual_depth,depth_estimate,trial_RT,log_sceneDuration,unitSelection,seq_filepath,experimentTime,totalTime,age,gender
0,817699,final-intermixed-textured,v2,jsons/MX_seq38_0_VE1000.json,http://54.235.29.9/FacialAge/BNav_EC2/DepthDuration/MX_fS_VE_MTurk/MX_fS_HTML.html#274,274,1422,650,1280,720,1-8-2024,15-46-41,1,VR_target_stimuli/s26_0.75x_4_430.png,1000,0.75x,4.0,5,5256,999,meters,jsons/MX_seq38_0_VE1000.json,263966,416409,24,Woman
1,817699,final-intermixed-textured,v2,jsons/MX_seq38_0_VE1000.json,http://54.235.29.9/FacialAge/BNav_EC2/DepthDuration/MX_fS_VE_MTurk/MX_fS_HTML.html#274,274,1422,650,1280,720,1-8-2024,15-46-41,2,VR_target_stimuli/s12_1x_3.1_372.png,1000,1x,3.1,5,5529,994,meters,jsons/MX_seq38_0_VE1000.json,263966,416409,24,Woman
2,817699,final-intermixed-textured,v2,jsons/MX_seq38_0_VE1000.json,http://54.235.29.9/FacialAge/BNav_EC2/DepthDuration/MX_fS_VE_MTurk/MX_fS_HTML.html#274,274,1422,650,1280,720,1-8-2024,15-46-41,3,VR_target_stimuli/s30_1.3x_2.3_337_BC.png,1000,1.3x,2.3,3,6515,996,meters,jsons/MX_seq38_0_VE1000.json,263966,416409,24,Woman
3,817699,final-intermixed-textured,v2,jsons/MX_seq38_0_VE1000.json,http://54.235.29.9/FacialAge/BNav_EC2/DepthDuration/MX_fS_VE_MTurk/MX_fS_HTML.html#274,274,1422,650,1280,720,1-8-2024,15-46-41,4,VR_target_stimuli/s16_1x_1_219_BC.png,1000,1x,1.0,2,6635,1001,meters,jsons/MX_seq38_0_VE1000.json,263966,416409,24,Woman
4,817699,final-intermixed-textured,v2,jsons/MX_seq38_0_VE1000.json,http://54.235.29.9/FacialAge/BNav_EC2/DepthDuration/MX_fS_VE_MTurk/MX_fS_HTML.html#274,274,1422,650,1280,720,1-8-2024,15-46-41,5,VR_target_stimuli/s17_0.75x_1.8_285_BC.png,1000,0.75x,1.8,4,4836,1005,meters,jsons/MX_seq38_0_VE1000.json,263966,416409,24,Woman
5,817699,final-intermixed-textured,v2,jsons/MX_seq38_0_VE1000.json,http://54.235.29.9/FacialAge/BNav_EC2/DepthDuration/MX_fS_VE_MTurk/MX_fS_HTML.html#274,274,1422,650,1280,720,1-8-2024,15-46-41,6,VR_target_stimuli/s5_1.3x_4_393.png,1000,1.3x,4.0,6,4976,1007,meters,jsons/MX_seq38_0_VE1000.json,263966,416409,24,Woman
6,817699,final-intermixed-textured,v2,jsons/MX_seq38_0_VE1000.json,http://54.235.29.9/FacialAge/BNav_EC2/DepthDuration/MX_fS_VE_MTurk/MX_fS_HTML.html#274,274,1422,650,1280,720,1-8-2024,15-46-41,7,catch_stimuli/c0.png,1000,,,0,3772,1004,meters,jsons/MX_seq38_0_VE1000.json,263966,416409,24,Woman
7,817699,final-intermixed-textured,v2,jsons/MX_seq38_0_VE1000.json,http://54.235.29.9/FacialAge/BNav_EC2/DepthDuration/MX_fS_VE_MTurk/MX_fS_HTML.html#274,274,1422,650,1280,720,1-8-2024,15-46-41,8,VR_target_stimuli/s37_1.3x_3.3_555.png,1000,1.3x,3.3,3,5384,1002,meters,jsons/MX_seq38_0_VE1000.json,263966,416409,24,Woman
8,817699,final-intermixed-textured,v2,jsons/MX_seq38_0_VE1000.json,http://54.235.29.9/FacialAge/BNav_EC2/DepthDuration/MX_fS_VE_MTurk/MX_fS_HTML.html#274,274,1422,650,1280,720,1-8-2024,15-46-41,9,VR_target_stimuli/s46_1x_2.42_348_BC.png,1000,1x,2.42,5,4153,1003,meters,jsons/MX_seq38_0_VE1000.json,263966,416409,24,Woman
9,817699,final-intermixed-textured,v2,jsons/MX_seq38_0_VE1000.json,http://54.235.29.9/FacialAge/BNav_EC2/DepthDuration/MX_fS_VE_MTurk/MX_fS_HTML.html#274,274,1422,650,1280,720,1-8-2024,15-46-41,10,VR_target_stimuli/s22_0.75x_4.29_348_BC.png,1000,0.75x,4.29,7,4637,996,meters,jsons/MX_seq38_0_VE1000.json,263966,416409,24,Woman
10,817699,final-intermixed-textured,v2,jsons/MX_seq38_0_VE1000.json,http://54.235.29.9/FacialAge/BNav_EC2/DepthDuration/MX_fS_VE_MTurk/MX_fS_HTML.html#274,274,1422,650,1280,720,1-8-2024,15-46-41,11,VR_target_stimuli/s42_1x_3.2_303.png,1000,1x,3.2,6,3639,1000,meters,jsons/MX_seq38_0_VE1000.json,263966,416409,24,Woman
11,817699,final-intermixed-textured,v2,jsons/MX_seq38_0_VE1000.json,http://54.235.29.9/FacialAge/BNav_EC2/DepthDuration/MX_fS_VE_MTurk/MX_fS_HTML.html#274,274,1422,650,1280,720,1-8-2024,15-46-41,12,VR_target_stimuli/s25_1.3x_1.4_299_BC.png,1000,1.3x,1.4,2,9489,996,meters,jsons/MX_seq38_0_VE1000.json,263966,416409,24,Woman
12,817699,final-intermixed-textured,v2,jsons/MX_seq38_0_VE1000.json,http://54.235.29.9/FacialAge/BNav_EC2/DepthDuration/MX_fS_VE_MTurk/MX_fS_HTML.html#274,274,1422,650,1280,720,1-8-2024,15-46-41,13,VR_target_stimuli/s50_0.75x_4.53_517.png,1000,0.75x,4.53,5,5147,999,meters,jsons/MX_seq38_0_VE1000.json,263966,416409,24,Woman
13,817699,final-intermixed-textured,v2,jsons/MX_seq38_0_VE1000.json,http://54.235.29.9/FacialAge/BNav_EC2/DepthDuration/MX_fS_VE_MTurk/MX_fS_HTML.html#274,274,1422,650,1280,720,1-8-2024,15-46-41,14,VR_target_stimuli/s53_1.3x_1.6_355.png,1000,1.3x,1.6,1,2883,1001,meters,jsons/MX_seq38_0_VE1000.json,263966,416409,24,Woman
14,817699,final-intermixed-textured,v2,jsons/MX_seq38_0_VE1000.json,http://54.235.29.9/FacialAge/BNav_EC2/DepthDuration/MX_fS_VE_MTurk/MX_fS_HTML.html#274,274,1422,650,1280,720,1-8-2024,15-46-41,15,VR_target_stimuli/s38_1x_3.55_353.png,1000,1x,3.55,6,4283,992,meters,jsons/MX_seq38_0_VE1000.json,263966,416409,24,Woman
15,817699,final-intermixed-textured,v2,jsons/MX_seq38_0_VE1000.json,http://54.235.29.9/FacialAge/BNav_EC2/DepthDuration/MX_fS_VE_MTurk/MX_fS_HTML.html#274,274,1422,650,1280,720,1-8-2024,15-46-41,16,VR_target_stimuli/s9_0.75x_1.2_260.png,1000,0.75x,1.2,2,4042,1006,meters,jsons/MX_seq38_0_VE1000.json,263966,416409,24,Woman
16,817699,final-intermixed-textured,v2,jsons/MX_seq38_0_VE1000.json,http://54.235.29.9/FacialAge/BNav_EC2/DepthDuration/MX_fS_VE_MTurk/MX_fS_HTML.html#274,274,1422,650,1280,720,1-8-2024,15-46-41,17,catch_stimuli/c1.png,1000,,,0,3086,1000,meters,jsons/MX_seq38_0_VE1000.json,263966,416409,24,Woman
17,817699,final-intermixed-textured,v2,jsons/MX_seq38_0_VE1000.json,http://54.235.29.9/FacialAge/BNav_EC2/DepthDuration/MX_fS_VE_MTurk/MX_fS_HTML.html#274,274,1422,650,1280,720,1-8-2024,15-46-41,18,VR_target_stimuli/s44_0.75x_4.4_314_BC.png,1000,0.75x,4.4,7,3252,1004,meters,jsons/MX_seq38_0_VE1000.json,263966,416409,24,Woman
18,817699,final-intermixed-textured,v2,jsons/MX_seq38_0_VE1000.json,http://54.235.29.9/FacialAge/BNav_EC2/DepthDuration/MX_fS_VE_MTurk/MX_fS_HTML.html#274,274,1422,650,1280,720,1-8-2024,15-46-41,19,VR_target_stimuli/s3_1.3x_5_390_BC.png,1000,1.3x,5.0,7,3068,1011,meters,jsons/MX_seq38_0_VE1000.json,263966,416409,24,Woman
19,817699,final-intermixed-textured,v2,jsons/MX_seq38_0_VE1000.json,http://54.235.29.9/FacialAge/BNav_EC2/DepthDuration/MX_fS_VE_MTurk/MX_fS_HTML.html#274,274,1422,650,1280,720,1-8-2024,15-46-41,20,VR_target_stimuli/s1_1x_1.7_262_BC.png,1000,1x,1.7,3,2706,1003,meters,jsons/MX_seq38_0_VE1000.json,263966,416409,24,Woman
20,817699,final-intermixed-textured,v2,jsons/MX_seq38_0_VE1000.json,http://54.235.29.9/FacialAge/BNav_EC2/DepthDuration/MX_fS_VE_MTurk/MX_fS_HTML.html#274,274,1422,650,1280,720,1-8-2024,15-46-41,21,VR_target_stimuli/s11_1.3x_5_363_BC.png,1000,1.3x,5.0,8,3235,1007,meters,jsons/MX_seq38_0_VE1000.json,263966,416409,24,Woman
21,817699,final-intermixed-textured,v2,jsons/MX_seq38_0_VE1000.json,http://54.235.29.9/FacialAge/BNav_EC2/DepthDuration/MX_fS_VE_MTurk/MX_fS_HTML.html#274,274,1422,650,1280,720,1-8-2024,15-46-41,22,VR_target_stimuli/s2_0.75x_2.7_384.png,1000,0.75x,2.7,5,3232,995,meters,jsons/MX_seq38_0_VE1000.json,263966,416409,24,Woman
22,817699,final-intermixed-textured,v2,jsons/MX_seq38_0_VE1000.json,http://54.235.29.9/FacialAge/BNav_EC2/DepthDuration/MX_fS_VE_MTurk/MX_fS_HTML.html#274,274,1422,650,1280,720,1-8-2024,15-46-41,23,VR_target_stimuli/s6_1x_2.1_293.png,1000,1x,2.1,4,3707,999,meters,jsons/MX_seq38_0_VE1000.json,263966,416409,24,Woman
23,817699,final-intermixed-textured,v2,jsons/MX_seq38_0_VE1000.json,http://54.235.29.9/FacialAge/BNav_EC2/DepthDuration/MX_fS_VE_MTurk/MX_fS_HTML.html#274,274,1422,650,1280,720,1-8-2024,15-46-41,24,VR_target_stimuli/s0_0.75x_2.6_345_BC.png,1000,0.75x,2.6,5,3782,1004,meters,jsons/MX_seq38_0_VE1000.json,263966,416409,24,Woman
24,817699,final-intermixed-textured,v2,jsons/MX_seq38_0_VE1000.json,http://54.235.29.9/FacialAge/BNav_EC2/DepthDuration/MX_fS_VE_MTurk/MX_fS_HTML.html#274,274,1422,650,1280,720,1-8-2024,15-46-41,25,VR_target_stimuli/s34_1.3x_2.8_294.png,1000,1.3x,2.8,5,3688,1002,meters,jsons/MX_seq38_0_VE1000.json,263966,416409,24,Woman
25,817699,final-intermixed-textured,v2,jsons/MX_seq38_0_VE1000.json,http://54.235.29.9/FacialAge/BNav_EC2/DepthDuration/MX_fS_VE_MTurk/MX_fS_HTML.html#274,274,1422,650,1280,720,1-8-2024,15-46-41,26,catch_stimuli/c2.png,1000,,,0,2949,984,meters,jsons/MX_seq38_0_VE1000.json,263966,416409,24,Woman
26,817699,final-intermixed-textured,v2,jsons/MX_seq38_0_VE1000.json,http://54.235.29.9/FacialAge/BNav_EC2/DepthDuration/MX_fS_VE_MTurk/MX_fS_HTML.html#274,274,1422,650,1280,720,1-8-2024,15-46-41,27,VR_target_stimuli/s13_1x_2.4_310_BC.png,1000,1x,2.4,4,3078,1001,meters,jsons/MX_seq38_0_VE1000.json,263966,416409,24,Woman
27,817699,final-intermixed-textured,v2,jsons/MX_seq38_0_VE1000.json,http://54.235.29.9/FacialAge/BNav_EC2/DepthDuration/MX_fS_VE_MTurk/MX_fS_HTML.html#274,274,1422,650,1280,720,1-8-2024,15-46-41,28,VR_target_stimuli/s14_1x_ 3.83_357_BC.png,1000,1x,3.83,7,3896,1012,meters,jsons/MX_seq38_0_VE1000.json,263966,416409,24,Woman
28,817699,final-intermixed-textured,v2,jsons/MX_seq38_0_VE1000.json,http://54.235.29.9/FacialAge/BNav_EC2/DepthDuration/MX_fS_VE_MTurk/MX_fS_HTML.html#274,274,1422,650,1280,720,1-8-2024,15-46-41,29,VR_target_stimuli/s47_0.75x_3.45_366.png,1000,0.75x,3.45,4,4502,998,meters,jsons/MX_seq38_0_VE1000.json,263966,416409,24,Woman
29,817699,final-intermixed-textured,v2,jsons/MX_seq38_0_VE1000.json,http://54.235.29.9/FacialAge/BNav_EC2/DepthDuration/MX_fS_VE_MTurk/MX_fS_HTML.html#274,274,1422,650,1280,720,1-8-2024,15-46-41,30,VR_target_stimuli/s29_1.3x_1.3_253.png,1000,1.3x,1.3,2,2462,997,meters,jsons/MX_seq38_0_VE1000.json,263966,416409,24,Woman
30,817699,final-intermixed-textured,v2,jsons/MX_seq38_0_VE1000.json,http://54.235.29.9/FacialAge/BNav_EC2/DepthDuration/MX_fS_VE_MTurk/MX_fS_HTML.html#274,274,1422,650,1280,720,1-8-2024,15-46-41,31,VR_target_stimuli/s28_1x_3.2_362.png,1000,1x,3.2,4,4465,990,meters,jsons/MX_seq38_0_VE1000.json,263966,416409,24,Woman
31,817699,final-intermixed-textured,v2,jsons/MX_seq38_0_VE1000.json,http://54.235.29.9/FacialAge/BNav_EC2/DepthDuration/MX_fS_VE_MTurk/MX_fS_HTML.html#274,274,1422,650,1280,720,1-8-2024,15-46-41,32,VR_target_stimuli/s48_1.3x_2.55_255_BC.png,1000,1.3x,2.55,3,6351,1002,meters,jsons/MX_seq38_0_VE1000.json,263966,416409,24,Woman
32,817699,final-intermixed-textured,v2,jsons/MX_seq38_0_VE1000.json,http://54.235.29.9/FacialAge/BNav_EC2/DepthDuration/MX_fS_VE_MTurk/MX_fS_HTML.html#274,274,1422,650,1280,720,1-8-2024,15-46-41,33,VR_target_stimuli/s19_0.75x_1.21_257_BC.png,1000,0.75x,1.21,3,2488,991,meters,jsons/MX_seq38_0_VE1000.json,263966,416409,24,Woman
33,817699,final-intermixed-textured,v2,jsons/MX_seq38_0_VE1000.json,http://54.235.29.9/FacialAge/BNav_EC2/DepthDuration/MX_fS_VE_MTurk/MX_fS_HTML.html#274,274,1422,650,1280,720,1-8-2024,15-46-41,34,catch_stimuli/c3.png,1000,,,0,3010,992,meters,jsons/MX_seq38_0_VE1000.json,263966,416409,24,Woman
34,817699,final-intermixed-textured,v2,jsons/MX_seq38_0_VE1000.json,http://54.235.29.9/FacialAge/BNav_EC2/DepthDuration/MX_fS_VE_MTurk/MX_fS_HTML.html#274,274,1422,650,1280,720,1-8-2024,15-46-41,35,VR_target_stimuli/s21_1.3x_4.22_384.png,1000,1.3x,4.22,8,2718,996,meters,jsons/MX_seq38_0_VE1000.json,263966,416409,24,Woman
35,817699,final-intermixed-textured,v2,jsons/MX_seq38_0_VE1000.json,http://54.235.29.9/FacialAge/BNav_EC2/DepthDuration/MX_fS_VE_MTurk/MX_fS_HTML.html#274,274,1422,650,1280,720,1-8-2024,15-46-41,36,VR_target_stimuli/s8_1x_3.1_332_BC.png,1000,1x,3.1,7,2783,997,meters,jsons/MX_seq38_0_VE1000.json,263966,416409,24,Woman
36,817699,final-intermixed-textured,v2,jsons/MX_seq38_0_VE1000.json,http://54.235.29.9/FacialAge/BNav_EC2/DepthDuration/MX_fS_VE_MTurk/MX_fS_HTML.html#274,274,1422,650,1280,720,1-8-2024,15-46-41,37,VR_target_stimuli/s27_0.75x_1.76_243_BC.png,1000,0.75x,1.76,6,2644,999,meters,jsons/MX_seq38_0_VE1000.json,263966,416409,24,Woman
37,817699,final-intermixed-textured,v2,jsons/MX_seq38_0_VE1000.json,http://54.235.29.9/FacialAge/BNav_EC2/DepthDuration/MX_fS_VE_MTurk/MX_fS_HTML.html#274,274,1422,650,1280,720,1-8-2024,15-46-41,38,VR_target_stimuli/s15_0.75x_4.2_388.png,1000,0.75x,4.2,8,3144,994,meters,jsons/MX_seq38_0_VE1000.json,263966,416409,24,Woman
38,817699,final-intermixed-textured,v2,jsons/MX_seq38_0_VE1000.json,http://54.235.29.9/FacialAge/BNav_EC2/DepthDuration/MX_fS_VE_MTurk/MX_fS_HTML.html#274,274,1422,650,1280,720,1-8-2024,15-46-41,39,VR_target_stimuli/s4_1.3x_1.4_328_BC.png,1000,1.3x,1.4,2,3070,997,meters,jsons/MX_seq38_0_VE1000.json,263966,416409,24,Woman
39,817699,final-intermixed-textured,v2,jsons/MX_seq38_0_VE1000.json,http://54.235.29.9/FacialAge/BNav_EC2/DepthDuration/MX_fS_VE_MTurk/MX_fS_HTML.html#274,274,1422,650,1280,720,1-8-2024,15-46-41,40,VR_target_stimuli/s35_1x_2_331.png,1000,1x,2.0,6,5103,1005,meters,jsons/MX_seq38_0_VE1000.json,263966,416409,24,Woman
40,817699,final-intermixed-textured,v2,jsons/MX_seq38_0_VE1000.json,http://54.235.29.9/FacialAge/BNav_EC2/DepthDuration/MX_fS_VE_MTurk/MX_fS_HTML.html#274,274,1422,650,1280,720,1-8-2024,15-46-41,41,VR_target_stimuli/s49_1.3x_4.67_354.png,1000,1.3x,4.67,6,3832,1001,meters,jsons/MX_seq38_0_VE1000.json,263966,416409,24,Woman
41,817699,final-intermixed-textured,v2,jsons/MX_seq38_0_VE1000.json,http://54.235.29.9/FacialAge/BNav_EC2/DepthDuration/MX_fS_VE_MTurk/MX_fS_HTML.html#274,274,1422,650,1280,720,1-8-2024,15-46-41,42,VR_target_stimuli/s7_0.75x_1.5_253_BC.png,1000,0.75x,1.5,4,4530,1003,meters,jsons/MX_seq38_0_VE1000.json,263966,416409,24,Woman
42,817699,final-intermixed-textured,v2,jsons/MX_seq38_0_VE1000.json,http://54.235.29.9/FacialAge/BNav_EC2/DepthDuration/MX_fS_VE_MTurk/MX_fS_HTML.html#274,274,1422,650,1280,720,1-8-2024,15-46-41,43,VR_target_stimuli/s20_1x_4.99_398.png,1000,1x,4.99,8,3992,1011,meters,jsons/MX_seq38_0_VE1000.json,263966,416409,24,Woman
43,817699,final-intermixed-textured,v2,jsons/MX_seq38_0_VE1000.json,http://54.235.29.9/FacialAge/BNav_EC2/DepthDuration/MX_fS_VE_MTurk/MX_fS_HTML.html#274,274,1422,650,1280,720,1-8-2024,15-46-41,44,VR_target_stimuli/s31_0.75x_4.96_329.png,1000,0.75x,4.96,5,4126,995,meters,jsons/MX_seq38_0_VE1000.json,263966,416409,24,Woman
44,817699,final-intermixed-textured,v2,jsons/MX_seq38_0_VE1000.json,http://54.235.29.9/FacialAge/BNav_EC2/DepthDuration/MX_fS_VE_MTurk/MX_fS_HTML.html#274,274,1422,650,1280,720,1-8-2024,15-46-41,45,catch_stimuli/c4.png,1000,,,0,2600,989,meters,jsons/MX_seq38_0_VE1000.json,263966,416409,24,Woman
45,817699,final-intermixed-textured,v2,jsons/MX_seq38_0_VE1000.json,http://54.235.29.9/FacialAge/BNav_EC2/DepthDuration/MX_fS_VE_MTurk/MX_fS_HTML.html#274,274,1422,650,1280,720,1-8-2024,15-46-41,46,VR_target_stimuli/s33_1.3x_3.1_378_BC.png,1000,1.3x,3.1,5,2768,1001,meters,jsons/MX_seq38_0_VE1000.json,263966,416409,24,Woman
46,817699,final-intermixed-textured,v2,jsons/MX_seq38_0_VE1000.json,http://54.235.29.9/FacialAge/BNav_EC2/DepthDuration/MX_fS_VE_MTurk/MX_fS_HTML.html#274,274,1422,650,1280,720,1-8-2024,15-46-41,47,VR_target_stimuli/s52_1x_3.2_275_BC.png,1000,1x,3.2,6,4486,996,meters,jsons/MX_seq38_0_VE1000.json,263966,416409,24,Woman
47,817699,final-intermixed-textured,v2,jsons/MX_seq38_0_VE1000.json,http://54.235.29.9/FacialAge/BNav_EC2/DepthDuration/MX_fS_VE_MTurk/MX_fS_HTML.html#274,274,1422,650,1280,720,1-8-2024,15-46-41,48,VR_target_stimuli/s32_1x_1.5_218_BC.png,1000,1x,1.5,4,2935,996,meters,jsons/MX_seq38_0_VE1000.json,263966,416409,24,Woman
48,817699,final-intermixed-textured,v2,jsons/MX_seq38_0_VE1000.json,http://54.235.29.9/FacialAge/BNav_EC2/DepthDuration/MX_fS_VE_MTurk/MX_fS_HTML.html#274,274,1422,650,1280,720,1-8-2024,15-46-41,49,VR_target_stimuli/s18_0.75x_2.25_341_BC.png,1000,0.75x,2.25,4,3134,1003,meters,jsons/MX_seq38_0_VE1000.json,263966,416409,24,Woman
49,817699,final-intermixed-textured,v2,jsons/MX_seq38_0_VE1000.json,http://54.235.29.9/FacialAge/BNav_EC2/DepthDuration/MX_fS_VE_MTurk/MX_fS_HTML.html#274,274,1422,650,1280,720,1-8-2024,15-46-41,50,VR_target_stimuli/s39_1.3x_1_208_BC.png,1000,1.3x,1.0,2,2525,997,meters,jsons/MX_seq38_0_VE1000.json,263966,416409,24,Woman
50,817699,final-intermixed-textured,v2,jsons/MX_seq38_0_VE1000.json,http://54.235.29.9/FacialAge/BNav_EC2/DepthDuration/MX_fS_VE_MTurk/MX_fS_HTML.html#274,274,1422,650,1280,720,1-8-2024,15-46-41,51,VR_target_stimuli/s51_0.75x_3.64_460.png,1000,0.75x,3.64,4,3526,1000,meters,jsons/MX_seq38_0_VE1000.json,263966,416409,24,Woman
51,817699,final-intermixed-textured,v2,jsons/MX_seq38_0_VE1000.json,http://54.235.29.9/FacialAge/BNav_EC2/DepthDuration/MX_fS_VE_MTurk/MX_fS_HTML.html#274,274,1422,650,1280,720,1-8-2024,15-46-41,52,VR_target_stimuli/s43_1x_2.2_354.png,1000,1x,2.2,6,3141,1001,meters,jsons/MX_seq38_0_VE1000.json,263966,416409,24,Woman
52,817699,final-intermixed-textured,v2,jsons/MX_seq38_0_VE1000.json,http://54.235.29.9/FacialAge/BNav_EC2/DepthDuration/MX_fS_VE_MTurk/MX_fS_HTML.html#274,274,1422,650,1280,720,1-8-2024,15-46-41,53,catch_stimuli/c5.png,1000,,,0,2379,1001,meters,jsons/MX_seq38_0_VE1000.json,263966,416409,24,Woman
53,817699,final-intermixed-textured,v2,jsons/MX_seq38_0_VE1000.json,http://54.235.29.9/FacialAge/BNav_EC2/DepthDuration/MX_fS_VE_MTurk/MX_fS_HTML.html#274,274,1422,650,1280,720,1-8-2024,15-46-41,54,VR_target_stimuli/s24_1.3x_3.3_352.png,1000,1.3x,3.3,7,3991,999,meters,jsons/MX_seq38_0_VE1000.json,263966,416409,24,Woman
54,817699,final-intermixed-textured,v2,jsons/MX_seq38_0_VE1000.json,http://54.235.29.9/FacialAge/BNav_EC2/DepthDuration/MX_fS_VE_MTurk/MX_fS_HTML.html#274,274,1422,650,1280,720,1-8-2024,15-46-41,55,VR_target_stimuli/s10_1x_2.7_324_BC.png,1000,1x,2.7,7,3683,1010,meters,jsons/MX_seq38_0_VE1000.json,263966,416409,24,Woman
55,817699,final-intermixed-textured,v2,jsons/MX_seq38_0_VE1000.json,http://54.235.29.9/FacialAge/BNav_EC2/DepthDuration/MX_fS_VE_MTurk/MX_fS_HTML.html#274,274,1422,650,1280,720,1-8-2024,15-46-41,56,VR_target_stimuli/s36_0.75x_4.1_407.png,1000,0.75x,4.1,9,2960,1001,meters,jsons/MX_seq38_0_VE1000.json,263966,416409,24,Woman
56,817699,final-intermixed-textured,v2,jsons/MX_seq38_0_VE1000.json,http://54.235.29.9/FacialAge/BNav_EC2/DepthDuration/MX_fS_VE_MTurk/MX_fS_HTML.html#274,274,1422,650,1280,720,1-8-2024,15-46-41,57,VR_target_stimuli/s40_1.3x_1.2_332.png,1000,1.3x,1.2,2,4508,997,meters,jsons/MX_seq38_0_VE1000.json,263966,416409,24,Woman
57,817699,final-intermixed-textured,v2,jsons/MX_seq38_0_VE1000.json,http://54.235.29.9/FacialAge/BNav_EC2/DepthDuration/MX_fS_VE_MTurk/MX_fS_HTML.html#274,274,1422,650,1280,720,1-8-2024,15-46-41,58,VR_target_stimuli/s41_1.3x_2.1_294_BC.png,1000,1.3x,2.1,3,3635,1003,meters,jsons/MX_seq38_0_VE1000.json,263966,416409,24,Woman
58,817699,final-intermixed-textured,v2,jsons/MX_seq38_0_VE1000.json,http://54.235.29.9/FacialAge/BNav_EC2/DepthDuration/MX_fS_VE_MTurk/MX_fS_HTML.html#274,274,1422,650,1280,720,1-8-2024,15-46-41,59,VR_target_stimuli/s45_1x_3.5_368.png,1000,1x,3.5,4,3490,1012,meters,jsons/MX_seq38_0_VE1000.json,263966,416409,24,Woman
59,817699,final-intermixed-textured,v2,jsons/MX_seq38_0_VE1000.json,http://54.235.29.9/FacialAge/BNav_EC2/DepthDuration/MX_fS_VE_MTurk/MX_fS_HTML.html#274,274,1422,650,1280,720,1-8-2024,15-46-41,60,VR_target_stimuli/s23_0.75x_3.65_351_BC.png,1000,0.75x,3.65,6,3720,1000,meters,jsons/MX_seq38_0_VE1000.json,263966,416409,24,Woman
