,subjID,experimentName,versionName,sequenceName,url,selected_row,windowWidth,windowHeight,screenWidth,screenHeight,startDate,startTime,trial,stimulus,duration,scale,actual_depth,depth_estimate,trial_RT,log_sceneDuration,unitSelection,seq_filepath,experimentTime,totalTime,age,gender
0,829516,final-intermixed-textured,v2,jsons/MX_seq37_2_VE1000.json,http://54.235.29.9/FacialAge/BNav_EC2/DepthDuration/MX_fS_VE_MTurk/MX_fS_HTML.html#164,164,1920,1080,1920,1080,1-8-2024,14-2-44,1,VR_target_stimuli/s23_1x_3.65_353.png,1000,1x,3.65,1.5,6468,1000,meters,jsons/MX_seq37_2_VE1000.json,332512,1254579,22,Man
1,829516,final-intermixed-textured,v2,jsons/MX_seq37_2_VE1000.json,http://54.235.29.9/FacialAge/BNav_EC2/DepthDuration/MX_fS_VE_MTurk/MX_fS_HTML.html#164,164,1920,1080,1920,1080,1-8-2024,14-2-44,2,VR_target_stimuli/s26_1.3x_4_441.png,1000,1.3x,4.0,2.0,6459,1015,meters,jsons/MX_seq37_2_VE1000.json,332512,1254579,22,Man
2,829516,final-intermixed-textured,v2,jsons/MX_seq37_2_VE1000.json,http://54.235.29.9/FacialAge/BNav_EC2/DepthDuration/MX_fS_VE_MTurk/MX_fS_HTML.html#164,164,1920,1080,1920,1080,1-8-2024,14-2-44,3,VR_target_stimuli/s12_0.75x_3.1_364.png,1000,0.75x,3.1,3.0,3252,1008,meters,jsons/MX_seq37_2_VE1000.json,332512,1254579,22,Man
3,829516,final-intermixed-textured,v2,jsons/MX_seq37_2_VE1000.json,http://54.235.29.9/FacialAge/BNav_EC2/DepthDuration/MX_fS_VE_MTurk/MX_fS_HTML.html#164,164,1920,1080,1920,1080,1-8-2024,14-2-44,4,VR_target_stimuli/s30_1.3x_2.3_337_BC.png,1000,1.3x,2.3,3.0,2899,1005,meters,jsons/MX_seq37_2_VE1000.json,332512,1254579,22,Man
4,829516,final-intermixed-textured,v2,jsons/MX_seq37_2_VE1000.json,http://54.235.29.9/FacialAge/BNav_EC2/DepthDuration/MX_fS_VE_MTurk/MX_fS_HTML.html#164,164,1920,1080,1920,1080,1-8-2024,14-2-44,5,VR_target_stimuli/s16_1x_1_219_BC.png,1000,1x,1.0,1.0,7542,1000,meters,jsons/MX_seq37_2_VE1000.json,332512,1254579,22,Man
5,829516,final-intermixed-textured,v2,jsons/MX_seq37_2_VE1000.json,http://54.235.29.9/FacialAge/BNav_EC2/DepthDuration/MX_fS_VE_MTurk/MX_fS_HTML.html#164,164,1920,1080,1920,1080,1-8-2024,14-2-44,6,VR_target_stimuli/s17_0.75x_1.8_285_BC.png,1000,0.75x,1.8,1.5,4741,1003,meters,jsons/MX_seq37_2_VE1000.json,332512,1254579,22,Man
6,829516,final-intermixed-textured,v2,jsons/MX_seq37_2_VE1000.json,http://54.235.29.9/FacialAge/BNav_EC2/DepthDuration/MX_fS_VE_MTurk/MX_fS_HTML.html#164,164,1920,1080,1920,1080,1-8-2024,14-2-44,7,catch_stimuli/c0.png,1000,,,0.0,3942,1011,meters,jsons/MX_seq37_2_VE1000.json,332512,1254579,22,Man
7,829516,final-intermixed-textured,v2,jsons/MX_seq37_2_VE1000.json,http://54.235.29.9/FacialAge/BNav_EC2/DepthDuration/MX_fS_VE_MTurk/MX_fS_HTML.html#164,164,1920,1080,1920,1080,1-8-2024,14-2-44,8,VR_target_stimuli/s5_0.75x_4_375.png,1000,0.75x,4.0,3.5,5637,1000,meters,jsons/MX_seq37_2_VE1000.json,332512,1254579,22,Man
8,829516,final-intermixed-textured,v2,jsons/MX_seq37_2_VE1000.json,http://54.235.29.9/FacialAge/BNav_EC2/DepthDuration/MX_fS_VE_MTurk/MX_fS_HTML.html#164,164,1920,1080,1920,1080,1-8-2024,14-2-44,9,VR_target_stimuli/s37_1.3x_3.3_555_BC.png,1000,1.3x,3.3,2.5,5663,1004,meters,jsons/MX_seq37_2_VE1000.json,332512,1254579,22,Man
9,829516,final-intermixed-textured,v2,jsons/MX_seq37_2_VE1000.json,http://54.235.29.9/FacialAge/BNav_EC2/DepthDuration/MX_fS_VE_MTurk/MX_fS_HTML.html#164,164,1920,1080,1920,1080,1-8-2024,14-2-44,10,VR_target_stimuli/s46_1x_2.42_348.png,1000,1x,2.42,2.75,12795,994,meters,jsons/MX_seq37_2_VE1000.json,332512,1254579,22,Man
10,829516,final-intermixed-textured,v2,jsons/MX_seq37_2_VE1000.json,http://54.235.29.9/FacialAge/BNav_EC2/DepthDuration/MX_fS_VE_MTurk/MX_fS_HTML.html#164,164,1920,1080,1920,1080,1-8-2024,14-2-44,11,VR_target_stimuli/s22_1.3x_4.29_364.png,1000,1.3x,4.29,3.5,5111,1000,meters,jsons/MX_seq37_2_VE1000.json,332512,1254579,22,Man
11,829516,final-intermixed-textured,v2,jsons/MX_seq37_2_VE1000.json,http://54.235.29.9/FacialAge/BNav_EC2/DepthDuration/MX_fS_VE_MTurk/MX_fS_HTML.html#164,164,1920,1080,1920,1080,1-8-2024,14-2-44,12,VR_target_stimuli/s42_0.75x_3.2_301_BC.png,1000,0.75x,3.2,3.0,4835,985,meters,jsons/MX_seq37_2_VE1000.json,332512,1254579,22,Man
12,829516,final-intermixed-textured,v2,jsons/MX_seq37_2_VE1000.json,http://54.235.29.9/FacialAge/BNav_EC2/DepthDuration/MX_fS_VE_MTurk/MX_fS_HTML.html#164,164,1920,1080,1920,1080,1-8-2024,14-2-44,13,VR_target_stimuli/s25_1x_1.4_290_BC.png,1000,1x,1.4,2.0,4205,992,meters,jsons/MX_seq37_2_VE1000.json,332512,1254579,22,Man
13,829516,final-intermixed-textured,v2,jsons/MX_seq37_2_VE1000.json,http://54.235.29.9/FacialAge/BNav_EC2/DepthDuration/MX_fS_VE_MTurk/MX_fS_HTML.html#164,164,1920,1080,1920,1080,1-8-2024,14-2-44,14,VR_target_stimuli/s50_0.75x_4.53_517_BC.png,1000,0.75x,4.53,3.75,6293,1001,meters,jsons/MX_seq37_2_VE1000.json,332512,1254579,22,Man
14,829516,final-intermixed-textured,v2,jsons/MX_seq37_2_VE1000.json,http://54.235.29.9/FacialAge/BNav_EC2/DepthDuration/MX_fS_VE_MTurk/MX_fS_HTML.html#164,164,1920,1080,1920,1080,1-8-2024,14-2-44,15,VR_target_stimuli/s53_1.3x_1.6_355.png,1000,1.3x,1.6,0.75,10454,996,meters,jsons/MX_seq37_2_VE1000.json,332512,1254579,22,Man
15,829516,final-intermixed-textured,v2,jsons/MX_seq37_2_VE1000.json,http://54.235.29.9/FacialAge/BNav_EC2/DepthDuration/MX_fS_VE_MTurk/MX_fS_HTML.html#164,164,1920,1080,1920,1080,1-8-2024,14-2-44,16,VR_target_stimuli/s38_1x_3.55_353_BC.png,1000,1x,3.55,3.0,6316,999,meters,jsons/MX_seq37_2_VE1000.json,332512,1254579,22,Man
16,829516,final-intermixed-textured,v2,jsons/MX_seq37_2_VE1000.json,http://54.235.29.9/FacialAge/BNav_EC2/DepthDuration/MX_fS_VE_MTurk/MX_fS_HTML.html#164,164,1920,1080,1920,1080,1-8-2024,14-2-44,17,catch_stimuli/c1.png,1000,,,0.0,3014,993,meters,jsons/MX_seq37_2_VE1000.json,332512,1254579,22,Man
17,829516,final-intermixed-textured,v2,jsons/MX_seq37_2_VE1000.json,http://54.235.29.9/FacialAge/BNav_EC2/DepthDuration/MX_fS_VE_MTurk/MX_fS_HTML.html#164,164,1920,1080,1920,1080,1-8-2024,14-2-44,18,VR_target_stimuli/s9_1x_1.2_263.png,1000,1x,1.2,1.5,4960,1011,meters,jsons/MX_seq37_2_VE1000.json,332512,1254579,22,Man
18,829516,final-intermixed-textured,v2,jsons/MX_seq37_2_VE1000.json,http://54.235.29.9/FacialAge/BNav_EC2/DepthDuration/MX_fS_VE_MTurk/MX_fS_HTML.html#164,164,1920,1080,1920,1080,1-8-2024,14-2-44,19,VR_target_stimuli/s44_0.75x_4.4_314.png,1000,0.75x,4.4,4.0,5273,999,meters,jsons/MX_seq37_2_VE1000.json,332512,1254579,22,Man
19,829516,final-intermixed-textured,v2,jsons/MX_seq37_2_VE1000.json,http://54.235.29.9/FacialAge/BNav_EC2/DepthDuration/MX_fS_VE_MTurk/MX_fS_HTML.html#164,164,1920,1080,1920,1080,1-8-2024,14-2-44,20,VR_target_stimuli/s3_1.3x_5_390_BC.png,1000,1.3x,5.0,3.5,6092,990,meters,jsons/MX_seq37_2_VE1000.json,332512,1254579,22,Man
20,829516,final-intermixed-textured,v2,jsons/MX_seq37_2_VE1000.json,http://54.235.29.9/FacialAge/BNav_EC2/DepthDuration/MX_fS_VE_MTurk/MX_fS_HTML.html#164,164,1920,1080,1920,1080,1-8-2024,14-2-44,21,VR_target_stimuli/s1_0.75x_1.7_265_BC.png,1000,0.75x,1.7,2.0,5822,1015,meters,jsons/MX_seq37_2_VE1000.json,332512,1254579,22,Man
21,829516,final-intermixed-textured,v2,jsons/MX_seq37_2_VE1000.json,http://54.235.29.9/FacialAge/BNav_EC2/DepthDuration/MX_fS_VE_MTurk/MX_fS_HTML.html#164,164,1920,1080,1920,1080,1-8-2024,14-2-44,22,VR_target_stimuli/s11_1x_5_361.png,1000,1x,5.0,4.0,3381,999,meters,jsons/MX_seq37_2_VE1000.json,332512,1254579,22,Man
22,829516,final-intermixed-textured,v2,jsons/MX_seq37_2_VE1000.json,http://54.235.29.9/FacialAge/BNav_EC2/DepthDuration/MX_fS_VE_MTurk/MX_fS_HTML.html#164,164,1920,1080,1920,1080,1-8-2024,14-2-44,23,VR_target_stimuli/s2_1.3x_2.7_397.png,1000,1.3x,2.7,2.5,5248,1000,meters,jsons/MX_seq37_2_VE1000.json,332512,1254579,22,Man
23,829516,final-intermixed-textured,v2,jsons/MX_seq37_2_VE1000.json,http://54.235.29.9/FacialAge/BNav_EC2/DepthDuration/MX_fS_VE_MTurk/MX_fS_HTML.html#164,164,1920,1080,1920,1080,1-8-2024,14-2-44,24,VR_target_stimuli/s6_1x_2.1_293_BC.png,1000,1x,2.1,2.0,5332,1013,meters,jsons/MX_seq37_2_VE1000.json,332512,1254579,22,Man
24,829516,final-intermixed-textured,v2,jsons/MX_seq37_2_VE1000.json,http://54.235.29.9/FacialAge/BNav_EC2/DepthDuration/MX_fS_VE_MTurk/MX_fS_HTML.html#164,164,1920,1080,1920,1080,1-8-2024,14-2-44,25,VR_target_stimuli/s0_0.75x_2.6_345.png,1000,0.75x,2.6,3.0,3402,989,meters,jsons/MX_seq37_2_VE1000.json,332512,1254579,22,Man
25,829516,final-intermixed-textured,v2,jsons/MX_seq37_2_VE1000.json,http://54.235.29.9/FacialAge/BNav_EC2/DepthDuration/MX_fS_VE_MTurk/MX_fS_HTML.html#164,164,1920,1080,1920,1080,1-8-2024,14-2-44,26,catch_stimuli/c2.png,1000,,,0.0,3469,1000,meters,jsons/MX_seq37_2_VE1000.json,332512,1254579,22,Man
26,829516,final-intermixed-textured,v2,jsons/MX_seq37_2_VE1000.json,http://54.235.29.9/FacialAge/BNav_EC2/DepthDuration/MX_fS_VE_MTurk/MX_fS_HTML.html#164,164,1920,1080,1920,1080,1-8-2024,14-2-44,27,VR_target_stimuli/s34_1.3x_2.8_294_BC.png,1000,1.3x,2.8,2.5,6151,1001,meters,jsons/MX_seq37_2_VE1000.json,332512,1254579,22,Man
27,829516,final-intermixed-textured,v2,jsons/MX_seq37_2_VE1000.json,http://54.235.29.9/FacialAge/BNav_EC2/DepthDuration/MX_fS_VE_MTurk/MX_fS_HTML.html#164,164,1920,1080,1920,1080,1-8-2024,14-2-44,28,VR_target_stimuli/s13_1.3x_2.4_313.png,1000,1.3x,2.4,2.5,5369,995,meters,jsons/MX_seq37_2_VE1000.json,332512,1254579,22,Man
28,829516,final-intermixed-textured,v2,jsons/MX_seq37_2_VE1000.json,http://54.235.29.9/FacialAge/BNav_EC2/DepthDuration/MX_fS_VE_MTurk/MX_fS_HTML.html#164,164,1920,1080,1920,1080,1-8-2024,14-2-44,29,VR_target_stimuli/s14_1x_ 3.83_357_BC.png,1000,1x,3.83,4.0,4538,996,meters,jsons/MX_seq37_2_VE1000.json,332512,1254579,22,Man
29,829516,final-intermixed-textured,v2,jsons/MX_seq37_2_VE1000.json,http://54.235.29.9/FacialAge/BNav_EC2/DepthDuration/MX_fS_VE_MTurk/MX_fS_HTML.html#164,164,1920,1080,1920,1080,1-8-2024,14-2-44,30,VR_target_stimuli/s47_0.75x_3.45_366_BC.png,1000,0.75x,3.45,2.0,4527,1000,meters,jsons/MX_seq37_2_VE1000.json,332512,1254579,22,Man
30,829516,final-intermixed-textured,v2,jsons/MX_seq37_2_VE1000.json,http://54.235.29.9/FacialAge/BNav_EC2/DepthDuration/MX_fS_VE_MTurk/MX_fS_HTML.html#164,164,1920,1080,1920,1080,1-8-2024,14-2-44,31,VR_target_stimuli/s29_1.3x_1.3_253_BC.png,1000,1.3x,1.3,2.0,4579,1000,meters,jsons/MX_seq37_2_VE1000.json,332512,1254579,22,Man
31,829516,final-intermixed-textured,v2,jsons/MX_seq37_2_VE1000.json,http://54.235.29.9/FacialAge/BNav_EC2/DepthDuration/MX_fS_VE_MTurk/MX_fS_HTML.html#164,164,1920,1080,1920,1080,1-8-2024,14-2-44,32,VR_target_stimuli/s28_0.75x_3.2_357.png,1000,0.75x,3.2,3.5,4997,999,meters,jsons/MX_seq37_2_VE1000.json,332512,1254579,22,Man
32,829516,final-intermixed-textured,v2,jsons/MX_seq37_2_VE1000.json,http://54.235.29.9/FacialAge/BNav_EC2/DepthDuration/MX_fS_VE_MTurk/MX_fS_HTML.html#164,164,1920,1080,1920,1080,1-8-2024,14-2-44,33,VR_target_stimuli/s48_1x_2.55_256.png,1000,1x,2.55,3.0,8235,1000,meters,jsons/MX_seq37_2_VE1000.json,332512,1254579,22,Man
33,829516,final-intermixed-textured,v2,jsons/MX_seq37_2_VE1000.json,http://54.235.29.9/FacialAge/BNav_EC2/DepthDuration/MX_fS_VE_MTurk/MX_fS_HTML.html#164,164,1920,1080,1920,1080,1-8-2024,14-2-44,34,catch_stimuli/c3.png,1000,,,0.0,3028,998,meters,jsons/MX_seq37_2_VE1000.json,332512,1254579,22,Man
34,829516,final-intermixed-textured,v2,jsons/MX_seq37_2_VE1000.json,http://54.235.29.9/FacialAge/BNav_EC2/DepthDuration/MX_fS_VE_MTurk/MX_fS_HTML.html#164,164,1920,1080,1920,1080,1-8-2024,14-2-44,35,VR_target_stimuli/s19_0.75x_1.21_257_BC.png,1000,0.75x,1.21,3.0,12637,1000,meters,jsons/MX_seq37_2_VE1000.json,332512,1254579,22,Man
35,829516,final-intermixed-textured,v2,jsons/MX_seq37_2_VE1000.json,http://54.235.29.9/FacialAge/BNav_EC2/DepthDuration/MX_fS_VE_MTurk/MX_fS_HTML.html#164,164,1920,1080,1920,1080,1-8-2024,14-2-44,36,VR_target_stimuli/s21_1.3x_4.22_384.png,1000,1.3x,4.22,4.5,4542,998,meters,jsons/MX_seq37_2_VE1000.json,332512,1254579,22,Man
36,829516,final-intermixed-textured,v2,jsons/MX_seq37_2_VE1000.json,http://54.235.29.9/FacialAge/BNav_EC2/DepthDuration/MX_fS_VE_MTurk/MX_fS_HTML.html#164,164,1920,1080,1920,1080,1-8-2024,14-2-44,37,VR_target_stimuli/s8_1x_3.1_332.png,1000,1x,3.1,4.0,3243,994,meters,jsons/MX_seq37_2_VE1000.json,332512,1254579,22,Man
37,829516,final-intermixed-textured,v2,jsons/MX_seq37_2_VE1000.json,http://54.235.29.9/FacialAge/BNav_EC2/DepthDuration/MX_fS_VE_MTurk/MX_fS_HTML.html#164,164,1920,1080,1920,1080,1-8-2024,14-2-44,38,VR_target_stimuli/s27_1x_1.76_248_BC.png,1000,1x,1.76,3.0,2511,1000,meters,jsons/MX_seq37_2_VE1000.json,332512,1254579,22,Man
38,829516,final-intermixed-textured,v2,jsons/MX_seq37_2_VE1000.json,http://54.235.29.9/FacialAge/BNav_EC2/DepthDuration/MX_fS_VE_MTurk/MX_fS_HTML.html#164,164,1920,1080,1920,1080,1-8-2024,14-2-44,39,VR_target_stimuli/s15_0.75x_4.2_388.png,1000,0.75x,4.2,4.5,3996,1001,meters,jsons/MX_seq37_2_VE1000.json,332512,1254579,22,Man
39,829516,final-intermixed-textured,v2,jsons/MX_seq37_2_VE1000.json,http://54.235.29.9/FacialAge/BNav_EC2/DepthDuration/MX_fS_VE_MTurk/MX_fS_HTML.html#164,164,1920,1080,1920,1080,1-8-2024,14-2-44,40,VR_target_stimuli/s4_1.3x_1.4_328_BC.png,1000,1.3x,1.4,2.0,4287,1000,meters,jsons/MX_seq37_2_VE1000.json,332512,1254579,22,Man
40,829516,final-intermixed-textured,v2,jsons/MX_seq37_2_VE1000.json,http://54.235.29.9/FacialAge/BNav_EC2/DepthDuration/MX_fS_VE_MTurk/MX_fS_HTML.html#164,164,1920,1080,1920,1080,1-8-2024,14-2-44,41,VR_target_stimuli/s35_0.75x_2_323_BC.png,1000,0.75x,2.0,2.2,8822,1000,meters,jsons/MX_seq37_2_VE1000.json,332512,1254579,22,Man
41,829516,final-intermixed-textured,v2,jsons/MX_seq37_2_VE1000.json,http://54.235.29.9/FacialAge/BNav_EC2/DepthDuration/MX_fS_VE_MTurk/MX_fS_HTML.html#164,164,1920,1080,1920,1080,1-8-2024,14-2-44,42,VR_target_stimuli/s49_1x_4.67_341.png,1000,1x,4.67,0.0,3699,1003,meters,jsons/MX_seq37_2_VE1000.json,332512,1254579,22,Man
42,829516,final-intermixed-textured,v2,jsons/MX_seq37_2_VE1000.json,http://54.235.29.9/FacialAge/BNav_EC2/DepthDuration/MX_fS_VE_MTurk/MX_fS_HTML.html#164,164,1920,1080,1920,1080,1-8-2024,14-2-44,43,VR_target_stimuli/s7_1.3x_1.5_256.png,1000,1.3x,1.5,2.5,5404,999,meters,jsons/MX_seq37_2_VE1000.json,332512,1254579,22,Man
43,829516,final-intermixed-textured,v2,jsons/MX_seq37_2_VE1000.json,http://54.235.29.9/FacialAge/BNav_EC2/DepthDuration/MX_fS_VE_MTurk/MX_fS_HTML.html#164,164,1920,1080,1920,1080,1-8-2024,14-2-44,44,VR_target_stimuli/s20_1x_4.99_398_BC.png,1000,1x,4.99,4.0,7266,1001,meters,jsons/MX_seq37_2_VE1000.json,332512,1254579,22,Man
44,829516,final-intermixed-textured,v2,jsons/MX_seq37_2_VE1000.json,http://54.235.29.9/FacialAge/BNav_EC2/DepthDuration/MX_fS_VE_MTurk/MX_fS_HTML.html#164,164,1920,1080,1920,1080,1-8-2024,14-2-44,45,catch_stimuli/c4.png,1000,,,0.0,2873,1005,meters,jsons/MX_seq37_2_VE1000.json,332512,1254579,22,Man
45,829516,final-intermixed-textured,v2,jsons/MX_seq37_2_VE1000.json,http://54.235.29.9/FacialAge/BNav_EC2/DepthDuration/MX_fS_VE_MTurk/MX_fS_HTML.html#164,164,1920,1080,1920,1080,1-8-2024,14-2-44,46,VR_target_stimuli/s31_0.75x_4.96_329.png,1000,0.75x,4.96,2.5,4667,985,meters,jsons/MX_seq37_2_VE1000.json,332512,1254579,22,Man
46,829516,final-intermixed-textured,v2,jsons/MX_seq37_2_VE1000.json,http://54.235.29.9/FacialAge/BNav_EC2/DepthDuration/MX_fS_VE_MTurk/MX_fS_HTML.html#164,164,1920,1080,1920,1080,1-8-2024,14-2-44,47,VR_target_stimuli/s33_1.3x_3.1_378_BC.png,1000,1.3x,3.1,2.5,4889,1001,meters,jsons/MX_seq37_2_VE1000.json,332512,1254579,22,Man
47,829516,final-intermixed-textured,v2,jsons/MX_seq37_2_VE1000.json,http://54.235.29.9/FacialAge/BNav_EC2/DepthDuration/MX_fS_VE_MTurk/MX_fS_HTML.html#164,164,1920,1080,1920,1080,1-8-2024,14-2-44,48,VR_target_stimuli/s52_1.3x_3.2_280.png,1000,1.3x,3.2,4.0,3221,1000,meters,jsons/MX_seq37_2_VE1000.json,332512,1254579,22,Man
48,829516,final-intermixed-textured,v2,jsons/MX_seq37_2_VE1000.json,http://54.235.29.9/FacialAge/BNav_EC2/DepthDuration/MX_fS_VE_MTurk/MX_fS_HTML.html#164,164,1920,1080,1920,1080,1-8-2024,14-2-44,49,VR_target_stimuli/s32_1x_1.5_218.png,1000,1x,1.5,3.0,3521,1000,meters,jsons/MX_seq37_2_VE1000.json,332512,1254579,22,Man
49,829516,final-intermixed-textured,v2,jsons/MX_seq37_2_VE1000.json,http://54.235.29.9/FacialAge/BNav_EC2/DepthDuration/MX_fS_VE_MTurk/MX_fS_HTML.html#164,164,1920,1080,1920,1080,1-8-2024,14-2-44,50,VR_target_stimuli/s18_0.75x_2.25_341.png,1000,0.75x,2.25,3.0,2548,1000,meters,jsons/MX_seq37_2_VE1000.json,332512,1254579,22,Man
50,829516,final-intermixed-textured,v2,jsons/MX_seq37_2_VE1000.json,http://54.235.29.9/FacialAge/BNav_EC2/DepthDuration/MX_fS_VE_MTurk/MX_fS_HTML.html#164,164,1920,1080,1920,1080,1-8-2024,14-2-44,51,VR_target_stimuli/s39_1x_1_207_BC.png,1000,1x,1.0,2.0,3044,999,meters,jsons/MX_seq37_2_VE1000.json,332512,1254579,22,Man
51,829516,final-intermixed-textured,v2,jsons/MX_seq37_2_VE1000.json,http://54.235.29.9/FacialAge/BNav_EC2/DepthDuration/MX_fS_VE_MTurk/MX_fS_HTML.html#164,164,1920,1080,1920,1080,1-8-2024,14-2-44,52,VR_target_stimuli/s51_1.3x_3.64_479_BC.png,1000,1.3x,3.64,3.5,4616,998,meters,jsons/MX_seq37_2_VE1000.json,332512,1254579,22,Man
52,829516,final-intermixed-textured,v2,jsons/MX_seq37_2_VE1000.json,http://54.235.29.9/FacialAge/BNav_EC2/DepthDuration/MX_fS_VE_MTurk/MX_fS_HTML.html#164,164,1920,1080,1920,1080,1-8-2024,14-2-44,53,catch_stimuli/c5.png,1000,,,0.0,3049,1000,meters,jsons/MX_seq37_2_VE1000.json,332512,1254579,22,Man
53,829516,final-intermixed-textured,v2,jsons/MX_seq37_2_VE1000.json,http://54.235.29.9/FacialAge/BNav_EC2/DepthDuration/MX_fS_VE_MTurk/MX_fS_HTML.html#164,164,1920,1080,1920,1080,1-8-2024,14-2-44,54,VR_target_stimuli/s43_0.75x_2.2_348_BC.png,1000,0.75x,2.2,3.0,5571,1001,meters,jsons/MX_seq37_2_VE1000.json,332512,1254579,22,Man
54,829516,final-intermixed-textured,v2,jsons/MX_seq37_2_VE1000.json,http://54.235.29.9/FacialAge/BNav_EC2/DepthDuration/MX_fS_VE_MTurk/MX_fS_HTML.html#164,164,1920,1080,1920,1080,1-8-2024,14-2-44,55,VR_target_stimuli/s24_1.3x_3.3_352.png,1000,1.3x,3.3,3.0,2494,997,meters,jsons/MX_seq37_2_VE1000.json,332512,1254579,22,Man
55,829516,final-intermixed-textured,v2,jsons/MX_seq37_2_VE1000.json,http://54.235.29.9/FacialAge/BNav_EC2/DepthDuration/MX_fS_VE_MTurk/MX_fS_HTML.html#164,164,1920,1080,1920,1080,1-8-2024,14-2-44,56,VR_target_stimuli/s10_1x_2.7_324_BC.png,1000,1x,2.7,0.0,4145,999,meters,jsons/MX_seq37_2_VE1000.json,332512,1254579,22,Man
56,829516,final-intermixed-textured,v2,jsons/MX_seq37_2_VE1000.json,http://54.235.29.9/FacialAge/BNav_EC2/DepthDuration/MX_fS_VE_MTurk/MX_fS_HTML.html#164,164,1920,1080,1920,1080,1-8-2024,14-2-44,57,VR_target_stimuli/s36_0.75x_4.1_407.png,1000,0.75x,4.1,5.0,4170,974,meters,jsons/MX_seq37_2_VE1000.json,332512,1254579,22,Man
57,829516,final-intermixed-textured,v2,jsons/MX_seq37_2_VE1000.json,http://54.235.29.9/FacialAge/BNav_EC2/DepthDuration/MX_fS_VE_MTurk/MX_fS_HTML.html#164,164,1920,1080,1920,1080,1-8-2024,14-2-44,58,VR_target_stimuli/s40_0.75x_1.2_308_BC.png,1000,0.75x,1.2,2.0,3449,999,meters,jsons/MX_seq37_2_VE1000.json,332512,1254579,22,Man
58,829516,final-intermixed-textured,v2,jsons/MX_seq37_2_VE1000.json,http://54.235.29.9/FacialAge/BNav_EC2/DepthDuration/MX_fS_VE_MTurk/MX_fS_HTML.html#164,164,1920,1080,1920,1080,1-8-2024,14-2-44,59,VR_target_stimuli/s41_1.3x_2.1_294_BC.png,1000,1.3x,2.1,2.5,4040,1000,meters,jsons/MX_seq37_2_VE1000.json,332512,1254579,22,Man
59,829516,final-intermixed-textured,v2,jsons/MX_seq37_2_VE1000.json,http://54.235.29.9/FacialAge/BNav_EC2/DepthDuration/MX_fS_VE_MTurk/MX_fS_HTML.html#164,164,1920,1080,1920,1080,1-8-2024,14-2-44,60,VR_target_stimuli/s45_1x_3.5_368.png,1000,1x,3.5,3.5,5356,1000,meters,jsons/MX_seq37_2_VE1000.json,332512,1254579,22,Man
