,subjID,experimentName,versionName,sequenceName,url,selected_row,windowWidth,windowHeight,screenWidth,screenHeight,startDate,startTime,trial,stimulus,duration,scale,actual_depth,depth_estimate,trial_RT,log_sceneDuration,unitSelection,seq_filepath,experimentTime,totalTime,age,gender
0,831594,final-intermixed-textured,v2,jsons/MX_seq42_1_VE1000.json,http://54.235.29.9/FacialAge/BNav_EC2/DepthDuration/MX_fS_VE_MTurk/MX_fS_HTML.html#11,11,1366,607,1366,768,1-8-2024,12-36-20,1,VR_target_stimuli/s17_1.3x_1.8_300.png,1000,1.3x,1.8,2.0,4573,1002,meters,jsons/MX_seq42_1_VE1000.json,271195,426737,39,Woman
1,831594,final-intermixed-textured,v2,jsons/MX_seq42_1_VE1000.json,http://54.235.29.9/FacialAge/BNav_EC2/DepthDuration/MX_fS_VE_MTurk/MX_fS_HTML.html#11,11,1366,607,1366,768,1-8-2024,12-36-20,2,VR_target_stimuli/s5_0.75x_4_375_BC.png,1000,0.75x,4.0,4.0,3820,1000,meters,jsons/MX_seq42_1_VE1000.json,271195,426737,39,Woman
2,831594,final-intermixed-textured,v2,jsons/MX_seq42_1_VE1000.json,http://54.235.29.9/FacialAge/BNav_EC2/DepthDuration/MX_fS_VE_MTurk/MX_fS_HTML.html#11,11,1366,607,1366,768,1-8-2024,12-36-20,3,VR_target_stimuli/s37_1x_3.3_563_BC.png,1000,1x,3.3,3.0,5776,1008,meters,jsons/MX_seq42_1_VE1000.json,271195,426737,39,Woman
3,831594,final-intermixed-textured,v2,jsons/MX_seq42_1_VE1000.json,http://54.235.29.9/FacialAge/BNav_EC2/DepthDuration/MX_fS_VE_MTurk/MX_fS_HTML.html#11,11,1366,607,1366,768,1-8-2024,12-36-20,4,VR_target_stimuli/s46_0.75x_2.42_343.png,1000,0.75x,2.42,3.0,4579,1000,meters,jsons/MX_seq42_1_VE1000.json,271195,426737,39,Woman
4,831594,final-intermixed-textured,v2,jsons/MX_seq42_1_VE1000.json,http://54.235.29.9/FacialAge/BNav_EC2/DepthDuration/MX_fS_VE_MTurk/MX_fS_HTML.html#11,11,1366,607,1366,768,1-8-2024,12-36-20,5,VR_target_stimuli/s22_1.3x_4.29_364_BC.png,1000,1.3x,4.29,4.0,4317,989,meters,jsons/MX_seq42_1_VE1000.json,271195,426737,39,Woman
5,831594,final-intermixed-textured,v2,jsons/MX_seq42_1_VE1000.json,http://54.235.29.9/FacialAge/BNav_EC2/DepthDuration/MX_fS_VE_MTurk/MX_fS_HTML.html#11,11,1366,607,1366,768,1-8-2024,12-36-20,6,VR_target_stimuli/s42_1x_3.2_303.png,1000,1x,3.2,3.0,3734,999,meters,jsons/MX_seq42_1_VE1000.json,271195,426737,39,Woman
6,831594,final-intermixed-textured,v2,jsons/MX_seq42_1_VE1000.json,http://54.235.29.9/FacialAge/BNav_EC2/DepthDuration/MX_fS_VE_MTurk/MX_fS_HTML.html#11,11,1366,607,1366,768,1-8-2024,12-36-20,7,catch_stimuli/c0.png,1000,,,0.0,3848,1000,meters,jsons/MX_seq42_1_VE1000.json,271195,426737,39,Woman
7,831594,final-intermixed-textured,v2,jsons/MX_seq42_1_VE1000.json,http://54.235.29.9/FacialAge/BNav_EC2/DepthDuration/MX_fS_VE_MTurk/MX_fS_HTML.html#11,11,1366,607,1366,768,1-8-2024,12-36-20,8,VR_target_stimuli/s25_1x_1.4_290.png,1000,1x,1.4,1.0,16708,1001,meters,jsons/MX_seq42_1_VE1000.json,271195,426737,39,Woman
8,831594,final-intermixed-textured,v2,jsons/MX_seq42_1_VE1000.json,http://54.235.29.9/FacialAge/BNav_EC2/DepthDuration/MX_fS_VE_MTurk/MX_fS_HTML.html#11,11,1366,607,1366,768,1-8-2024,12-36-20,9,VR_target_stimuli/s50_0.75x_4.53_517_BC.png,1000,0.75x,4.53,2.0,3650,992,meters,jsons/MX_seq42_1_VE1000.json,271195,426737,39,Woman
9,831594,final-intermixed-textured,v2,jsons/MX_seq42_1_VE1000.json,http://54.235.29.9/FacialAge/BNav_EC2/DepthDuration/MX_fS_VE_MTurk/MX_fS_HTML.html#11,11,1366,607,1366,768,1-8-2024,12-36-20,10,VR_target_stimuli/s53_1.3x_1.6_355.png,1000,1.3x,1.6,0.5,7240,1013,meters,jsons/MX_seq42_1_VE1000.json,271195,426737,39,Woman
10,831594,final-intermixed-textured,v2,jsons/MX_seq42_1_VE1000.json,http://54.235.29.9/FacialAge/BNav_EC2/DepthDuration/MX_fS_VE_MTurk/MX_fS_HTML.html#11,11,1366,607,1366,768,1-8-2024,12-36-20,11,VR_target_stimuli/s38_0.75x_3.55_346.png,1000,0.75x,3.55,3.0,3736,1001,meters,jsons/MX_seq42_1_VE1000.json,271195,426737,39,Woman
11,831594,final-intermixed-textured,v2,jsons/MX_seq42_1_VE1000.json,http://54.235.29.9/FacialAge/BNav_EC2/DepthDuration/MX_fS_VE_MTurk/MX_fS_HTML.html#11,11,1366,607,1366,768,1-8-2024,12-36-20,12,VR_target_stimuli/s9_1x_1.2_263_BC.png,1000,1x,1.2,1.0,3274,1000,meters,jsons/MX_seq42_1_VE1000.json,271195,426737,39,Woman
12,831594,final-intermixed-textured,v2,jsons/MX_seq42_1_VE1000.json,http://54.235.29.9/FacialAge/BNav_EC2/DepthDuration/MX_fS_VE_MTurk/MX_fS_HTML.html#11,11,1366,607,1366,768,1-8-2024,12-36-20,13,VR_target_stimuli/s44_1.3x_4.4_325_BC.png,1000,1.3x,4.4,4.0,3630,1005,meters,jsons/MX_seq42_1_VE1000.json,271195,426737,39,Woman
13,831594,final-intermixed-textured,v2,jsons/MX_seq42_1_VE1000.json,http://54.235.29.9/FacialAge/BNav_EC2/DepthDuration/MX_fS_VE_MTurk/MX_fS_HTML.html#11,11,1366,607,1366,768,1-8-2024,12-36-20,14,VR_target_stimuli/s3_1x_5_385_BC.png,1000,1x,5.0,5.0,4156,986,meters,jsons/MX_seq42_1_VE1000.json,271195,426737,39,Woman
14,831594,final-intermixed-textured,v2,jsons/MX_seq42_1_VE1000.json,http://54.235.29.9/FacialAge/BNav_EC2/DepthDuration/MX_fS_VE_MTurk/MX_fS_HTML.html#11,11,1366,607,1366,768,1-8-2024,12-36-20,15,VR_target_stimuli/s1_0.75x_1.7_265_BC.png,1000,0.75x,1.7,2.0,3653,1000,meters,jsons/MX_seq42_1_VE1000.json,271195,426737,39,Woman
15,831594,final-intermixed-textured,v2,jsons/MX_seq42_1_VE1000.json,http://54.235.29.9/FacialAge/BNav_EC2/DepthDuration/MX_fS_VE_MTurk/MX_fS_HTML.html#11,11,1366,607,1366,768,1-8-2024,12-36-20,16,VR_target_stimuli/s11_1.3x_5_363.png,1000,1.3x,5.0,4.0,3408,998,meters,jsons/MX_seq42_1_VE1000.json,271195,426737,39,Woman
16,831594,final-intermixed-textured,v2,jsons/MX_seq42_1_VE1000.json,http://54.235.29.9/FacialAge/BNav_EC2/DepthDuration/MX_fS_VE_MTurk/MX_fS_HTML.html#11,11,1366,607,1366,768,1-8-2024,12-36-20,17,catch_stimuli/c1.png,1000,,,0.0,3455,989,meters,jsons/MX_seq42_1_VE1000.json,271195,426737,39,Woman
17,831594,final-intermixed-textured,v2,jsons/MX_seq42_1_VE1000.json,http://54.235.29.9/FacialAge/BNav_EC2/DepthDuration/MX_fS_VE_MTurk/MX_fS_HTML.html#11,11,1366,607,1366,768,1-8-2024,12-36-20,18,VR_target_stimuli/s2_1.3x_2.7_397_BC.png,1000,1.3x,2.7,2.0,3310,1009,meters,jsons/MX_seq42_1_VE1000.json,271195,426737,39,Woman
18,831594,final-intermixed-textured,v2,jsons/MX_seq42_1_VE1000.json,http://54.235.29.9/FacialAge/BNav_EC2/DepthDuration/MX_fS_VE_MTurk/MX_fS_HTML.html#11,11,1366,607,1366,768,1-8-2024,12-36-20,19,VR_target_stimuli/s6_1x_2.1_293.png,1000,1x,2.1,2.0,3390,999,meters,jsons/MX_seq42_1_VE1000.json,271195,426737,39,Woman
19,831594,final-intermixed-textured,v2,jsons/MX_seq42_1_VE1000.json,http://54.235.29.9/FacialAge/BNav_EC2/DepthDuration/MX_fS_VE_MTurk/MX_fS_HTML.html#11,11,1366,607,1366,768,1-8-2024,12-36-20,20,VR_target_stimuli/s0_0.75x_2.6_345.png,1000,0.75x,2.6,3.0,3414,999,meters,jsons/MX_seq42_1_VE1000.json,271195,426737,39,Woman
20,831594,final-intermixed-textured,v2,jsons/MX_seq42_1_VE1000.json,http://54.235.29.9/FacialAge/BNav_EC2/DepthDuration/MX_fS_VE_MTurk/MX_fS_HTML.html#11,11,1366,607,1366,768,1-8-2024,12-36-20,21,VR_target_stimuli/s34_1x_2.8_283.png,1000,1x,2.8,3.0,3313,974,meters,jsons/MX_seq42_1_VE1000.json,271195,426737,39,Woman
21,831594,final-intermixed-textured,v2,jsons/MX_seq42_1_VE1000.json,http://54.235.29.9/FacialAge/BNav_EC2/DepthDuration/MX_fS_VE_MTurk/MX_fS_HTML.html#11,11,1366,607,1366,768,1-8-2024,12-36-20,22,VR_target_stimuli/s13_1.3x_2.4_313.png,1000,1.3x,2.4,3.0,3360,999,meters,jsons/MX_seq42_1_VE1000.json,271195,426737,39,Woman
22,831594,final-intermixed-textured,v2,jsons/MX_seq42_1_VE1000.json,http://54.235.29.9/FacialAge/BNav_EC2/DepthDuration/MX_fS_VE_MTurk/MX_fS_HTML.html#11,11,1366,607,1366,768,1-8-2024,12-36-20,23,VR_target_stimuli/s14_0.75x_3.83_355_BC.png,1000,0.75x,3.83,3.5,5160,999,meters,jsons/MX_seq42_1_VE1000.json,271195,426737,39,Woman
23,831594,final-intermixed-textured,v2,jsons/MX_seq42_1_VE1000.json,http://54.235.29.9/FacialAge/BNav_EC2/DepthDuration/MX_fS_VE_MTurk/MX_fS_HTML.html#11,11,1366,607,1366,768,1-8-2024,12-36-20,24,VR_target_stimuli/s47_1.3x_3.45_373_BC.png,1000,1.3x,3.45,2.0,3217,1001,meters,jsons/MX_seq42_1_VE1000.json,271195,426737,39,Woman
24,831594,final-intermixed-textured,v2,jsons/MX_seq42_1_VE1000.json,http://54.235.29.9/FacialAge/BNav_EC2/DepthDuration/MX_fS_VE_MTurk/MX_fS_HTML.html#11,11,1366,607,1366,768,1-8-2024,12-36-20,25,VR_target_stimuli/s29_1x_1.3_250_BC.png,1000,1x,1.3,1.5,4377,1002,meters,jsons/MX_seq42_1_VE1000.json,271195,426737,39,Woman
25,831594,final-intermixed-textured,v2,jsons/MX_seq42_1_VE1000.json,http://54.235.29.9/FacialAge/BNav_EC2/DepthDuration/MX_fS_VE_MTurk/MX_fS_HTML.html#11,11,1366,607,1366,768,1-8-2024,12-36-20,26,catch_stimuli/c2.png,1000,,,0.0,3425,998,meters,jsons/MX_seq42_1_VE1000.json,271195,426737,39,Woman
26,831594,final-intermixed-textured,v2,jsons/MX_seq42_1_VE1000.json,http://54.235.29.9/FacialAge/BNav_EC2/DepthDuration/MX_fS_VE_MTurk/MX_fS_HTML.html#11,11,1366,607,1366,768,1-8-2024,12-36-20,27,VR_target_stimuli/s28_0.75x_3.2_357.png,1000,0.75x,3.2,2.0,5954,1002,meters,jsons/MX_seq42_1_VE1000.json,271195,426737,39,Woman
27,831594,final-intermixed-textured,v2,jsons/MX_seq42_1_VE1000.json,http://54.235.29.9/FacialAge/BNav_EC2/DepthDuration/MX_fS_VE_MTurk/MX_fS_HTML.html#11,11,1366,607,1366,768,1-8-2024,12-36-20,28,VR_target_stimuli/s48_0.75x_2.55_243_BC.png,1000,0.75x,2.55,2.0,3120,1000,meters,jsons/MX_seq42_1_VE1000.json,271195,426737,39,Woman
28,831594,final-intermixed-textured,v2,jsons/MX_seq42_1_VE1000.json,http://54.235.29.9/FacialAge/BNav_EC2/DepthDuration/MX_fS_VE_MTurk/MX_fS_HTML.html#11,11,1366,607,1366,768,1-8-2024,12-36-20,29,VR_target_stimuli/s19_1.3x_1.21_270.png,1000,1.3x,1.21,1.0,3420,1001,meters,jsons/MX_seq42_1_VE1000.json,271195,426737,39,Woman
29,831594,final-intermixed-textured,v2,jsons/MX_seq42_1_VE1000.json,http://54.235.29.9/FacialAge/BNav_EC2/DepthDuration/MX_fS_VE_MTurk/MX_fS_HTML.html#11,11,1366,607,1366,768,1-8-2024,12-36-20,30,VR_target_stimuli/s21_1x_4.22_379.png,1000,1x,4.22,4.0,3168,999,meters,jsons/MX_seq42_1_VE1000.json,271195,426737,39,Woman
30,831594,final-intermixed-textured,v2,jsons/MX_seq42_1_VE1000.json,http://54.235.29.9/FacialAge/BNav_EC2/DepthDuration/MX_fS_VE_MTurk/MX_fS_HTML.html#11,11,1366,607,1366,768,1-8-2024,12-36-20,31,VR_target_stimuli/s8_0.75x_3.1_325.png,1000,0.75x,3.1,3.0,3161,1002,meters,jsons/MX_seq42_1_VE1000.json,271195,426737,39,Woman
31,831594,final-intermixed-textured,v2,jsons/MX_seq42_1_VE1000.json,http://54.235.29.9/FacialAge/BNav_EC2/DepthDuration/MX_fS_VE_MTurk/MX_fS_HTML.html#11,11,1366,607,1366,768,1-8-2024,12-36-20,32,VR_target_stimuli/s27_1x_1.76_248_BC.png,1000,1x,1.76,2.0,3018,1001,meters,jsons/MX_seq42_1_VE1000.json,271195,426737,39,Woman
32,831594,final-intermixed-textured,v2,jsons/MX_seq42_1_VE1000.json,http://54.235.29.9/FacialAge/BNav_EC2/DepthDuration/MX_fS_VE_MTurk/MX_fS_HTML.html#11,11,1366,607,1366,768,1-8-2024,12-36-20,33,VR_target_stimuli/s15_1.3x_4.2_389_BC.png,1000,1.3x,4.2,3.0,3213,1001,meters,jsons/MX_seq42_1_VE1000.json,271195,426737,39,Woman
33,831594,final-intermixed-textured,v2,jsons/MX_seq42_1_VE1000.json,http://54.235.29.9/FacialAge/BNav_EC2/DepthDuration/MX_fS_VE_MTurk/MX_fS_HTML.html#11,11,1366,607,1366,768,1-8-2024,12-36-20,34,catch_stimuli/c3.png,1000,,,0.0,3377,1008,meters,jsons/MX_seq42_1_VE1000.json,271195,426737,39,Woman
34,831594,final-intermixed-textured,v2,jsons/MX_seq42_1_VE1000.json,http://54.235.29.9/FacialAge/BNav_EC2/DepthDuration/MX_fS_VE_MTurk/MX_fS_HTML.html#11,11,1366,607,1366,768,1-8-2024,12-36-20,35,VR_target_stimuli/s4_1x_1.4_313_BC.png,1000,1x,1.4,1.5,4653,993,meters,jsons/MX_seq42_1_VE1000.json,271195,426737,39,Woman
35,831594,final-intermixed-textured,v2,jsons/MX_seq42_1_VE1000.json,http://54.235.29.9/FacialAge/BNav_EC2/DepthDuration/MX_fS_VE_MTurk/MX_fS_HTML.html#11,11,1366,607,1366,768,1-8-2024,12-36-20,36,VR_target_stimuli/s35_0.75x_2_323.png,1000,0.75x,2.0,1.5,4434,1000,meters,jsons/MX_seq42_1_VE1000.json,271195,426737,39,Woman
36,831594,final-intermixed-textured,v2,jsons/MX_seq42_1_VE1000.json,http://54.235.29.9/FacialAge/BNav_EC2/DepthDuration/MX_fS_VE_MTurk/MX_fS_HTML.html#11,11,1366,607,1366,768,1-8-2024,12-36-20,37,VR_target_stimuli/s49_1.3x_4.67_354.png,1000,1.3x,4.67,4.0,3658,998,meters,jsons/MX_seq42_1_VE1000.json,271195,426737,39,Woman
37,831594,final-intermixed-textured,v2,jsons/MX_seq42_1_VE1000.json,http://54.235.29.9/FacialAge/BNav_EC2/DepthDuration/MX_fS_VE_MTurk/MX_fS_HTML.html#11,11,1366,607,1366,768,1-8-2024,12-36-20,38,VR_target_stimuli/s7_1.3x_1.5_256_BC.png,1000,1.3x,1.5,2.0,2950,1002,meters,jsons/MX_seq42_1_VE1000.json,271195,426737,39,Woman
38,831594,final-intermixed-textured,v2,jsons/MX_seq42_1_VE1000.json,http://54.235.29.9/FacialAge/BNav_EC2/DepthDuration/MX_fS_VE_MTurk/MX_fS_HTML.html#11,11,1366,607,1366,768,1-8-2024,12-36-20,39,VR_target_stimuli/s20_1x_4.99_398.png,1000,1x,4.99,4.0,3245,999,meters,jsons/MX_seq42_1_VE1000.json,271195,426737,39,Woman
39,831594,final-intermixed-textured,v2,jsons/MX_seq42_1_VE1000.json,http://54.235.29.9/FacialAge/BNav_EC2/DepthDuration/MX_fS_VE_MTurk/MX_fS_HTML.html#11,11,1366,607,1366,768,1-8-2024,12-36-20,40,VR_target_stimuli/s31_0.75x_4.96_329_BC.png,1000,0.75x,4.96,3.0,3170,1000,meters,jsons/MX_seq42_1_VE1000.json,271195,426737,39,Woman
40,831594,final-intermixed-textured,v2,jsons/MX_seq42_1_VE1000.json,http://54.235.29.9/FacialAge/BNav_EC2/DepthDuration/MX_fS_VE_MTurk/MX_fS_HTML.html#11,11,1366,607,1366,768,1-8-2024,12-36-20,41,VR_target_stimuli/s33_1x_3.1_366_BC.png,1000,1x,3.1,2.5,4261,1002,meters,jsons/MX_seq42_1_VE1000.json,271195,426737,39,Woman
41,831594,final-intermixed-textured,v2,jsons/MX_seq42_1_VE1000.json,http://54.235.29.9/FacialAge/BNav_EC2/DepthDuration/MX_fS_VE_MTurk/MX_fS_HTML.html#11,11,1366,607,1366,768,1-8-2024,12-36-20,42,VR_target_stimuli/s52_1.3x_3.2_280_BC.png,1000,1.3x,3.2,3.0,3753,1006,meters,jsons/MX_seq42_1_VE1000.json,271195,426737,39,Woman
42,831594,final-intermixed-textured,v2,jsons/MX_seq42_1_VE1000.json,http://54.235.29.9/FacialAge/BNav_EC2/DepthDuration/MX_fS_VE_MTurk/MX_fS_HTML.html#11,11,1366,607,1366,768,1-8-2024,12-36-20,43,VR_target_stimuli/s32_0.75x_1.5_213.png,1000,0.75x,1.5,2.0,3369,1000,meters,jsons/MX_seq42_1_VE1000.json,271195,426737,39,Woman
43,831594,final-intermixed-textured,v2,jsons/MX_seq42_1_VE1000.json,http://54.235.29.9/FacialAge/BNav_EC2/DepthDuration/MX_fS_VE_MTurk/MX_fS_HTML.html#11,11,1366,607,1366,768,1-8-2024,12-36-20,44,VR_target_stimuli/s18_1.3x_2.25_368.png,1000,1.3x,2.25,2.0,3514,1003,meters,jsons/MX_seq42_1_VE1000.json,271195,426737,39,Woman
44,831594,final-intermixed-textured,v2,jsons/MX_seq42_1_VE1000.json,http://54.235.29.9/FacialAge/BNav_EC2/DepthDuration/MX_fS_VE_MTurk/MX_fS_HTML.html#11,11,1366,607,1366,768,1-8-2024,12-36-20,45,catch_stimuli/c4.png,1000,,,0.0,3382,982,meters,jsons/MX_seq42_1_VE1000.json,271195,426737,39,Woman
45,831594,final-intermixed-textured,v2,jsons/MX_seq42_1_VE1000.json,http://54.235.29.9/FacialAge/BNav_EC2/DepthDuration/MX_fS_VE_MTurk/MX_fS_HTML.html#11,11,1366,607,1366,768,1-8-2024,12-36-20,46,VR_target_stimuli/s39_1x_1_207.png,1000,1x,1.0,1.0,3863,996,meters,jsons/MX_seq42_1_VE1000.json,271195,426737,39,Woman
46,831594,final-intermixed-textured,v2,jsons/MX_seq42_1_VE1000.json,http://54.235.29.9/FacialAge/BNav_EC2/DepthDuration/MX_fS_VE_MTurk/MX_fS_HTML.html#11,11,1366,607,1366,768,1-8-2024,12-36-20,47,VR_target_stimuli/s51_0.75x_3.64_460_BC.png,1000,0.75x,3.64,2.0,3615,1002,meters,jsons/MX_seq42_1_VE1000.json,271195,426737,39,Woman
47,831594,final-intermixed-textured,v2,jsons/MX_seq42_1_VE1000.json,http://54.235.29.9/FacialAge/BNav_EC2/DepthDuration/MX_fS_VE_MTurk/MX_fS_HTML.html#11,11,1366,607,1366,768,1-8-2024,12-36-20,48,VR_target_stimuli/s43_0.75x_2.2_348_BC.png,1000,0.75x,2.2,2.5,4856,1002,meters,jsons/MX_seq42_1_VE1000.json,271195,426737,39,Woman
48,831594,final-intermixed-textured,v2,jsons/MX_seq42_1_VE1000.json,http://54.235.29.9/FacialAge/BNav_EC2/DepthDuration/MX_fS_VE_MTurk/MX_fS_HTML.html#11,11,1366,607,1366,768,1-8-2024,12-36-20,49,VR_target_stimuli/s24_1.3x_3.3_352.png,1000,1.3x,3.3,2.0,3612,999,meters,jsons/MX_seq42_1_VE1000.json,271195,426737,39,Woman
49,831594,final-intermixed-textured,v2,jsons/MX_seq42_1_VE1000.json,http://54.235.29.9/FacialAge/BNav_EC2/DepthDuration/MX_fS_VE_MTurk/MX_fS_HTML.html#11,11,1366,607,1366,768,1-8-2024,12-36-20,50,VR_target_stimuli/s10_1x_2.7_324_BC.png,1000,1x,2.7,2.0,3444,996,meters,jsons/MX_seq42_1_VE1000.json,271195,426737,39,Woman
50,831594,final-intermixed-textured,v2,jsons/MX_seq42_1_VE1000.json,http://54.235.29.9/FacialAge/BNav_EC2/DepthDuration/MX_fS_VE_MTurk/MX_fS_HTML.html#11,11,1366,607,1366,768,1-8-2024,12-36-20,51,VR_target_stimuli/s36_1.3x_4.1_442_BC.png,1000,1.3x,4.1,3.0,3432,1001,meters,jsons/MX_seq42_1_VE1000.json,271195,426737,39,Woman
51,831594,final-intermixed-textured,v2,jsons/MX_seq42_1_VE1000.json,http://54.235.29.9/FacialAge/BNav_EC2/DepthDuration/MX_fS_VE_MTurk/MX_fS_HTML.html#11,11,1366,607,1366,768,1-8-2024,12-36-20,52,VR_target_stimuli/s40_0.75x_1.2_308.png,1000,0.75x,1.2,1.5,4515,999,meters,jsons/MX_seq42_1_VE1000.json,271195,426737,39,Woman
52,831594,final-intermixed-textured,v2,jsons/MX_seq42_1_VE1000.json,http://54.235.29.9/FacialAge/BNav_EC2/DepthDuration/MX_fS_VE_MTurk/MX_fS_HTML.html#11,11,1366,607,1366,768,1-8-2024,12-36-20,53,catch_stimuli/c5.png,1000,,,0.0,3599,994,meters,jsons/MX_seq42_1_VE1000.json,271195,426737,39,Woman
53,831594,final-intermixed-textured,v2,jsons/MX_seq42_1_VE1000.json,http://54.235.29.9/FacialAge/BNav_EC2/DepthDuration/MX_fS_VE_MTurk/MX_fS_HTML.html#11,11,1366,607,1366,768,1-8-2024,12-36-20,54,VR_target_stimuli/s41_1x_2.1_286.png,1000,1x,2.1,2.0,3776,1005,meters,jsons/MX_seq42_1_VE1000.json,271195,426737,39,Woman
54,831594,final-intermixed-textured,v2,jsons/MX_seq42_1_VE1000.json,http://54.235.29.9/FacialAge/BNav_EC2/DepthDuration/MX_fS_VE_MTurk/MX_fS_HTML.html#11,11,1366,607,1366,768,1-8-2024,12-36-20,55,VR_target_stimuli/s45_0.75x_3.5_362_BC.png,1000,0.75x,3.5,3.0,3439,1003,meters,jsons/MX_seq42_1_VE1000.json,271195,426737,39,Woman
55,831594,final-intermixed-textured,v2,jsons/MX_seq42_1_VE1000.json,http://54.235.29.9/FacialAge/BNav_EC2/DepthDuration/MX_fS_VE_MTurk/MX_fS_HTML.html#11,11,1366,607,1366,768,1-8-2024,12-36-20,56,VR_target_stimuli/s23_1.3x_3.65_354_BC.png,1000,1.3x,3.65,2.0,3117,1000,meters,jsons/MX_seq42_1_VE1000.json,271195,426737,39,Woman
56,831594,final-intermixed-textured,v2,jsons/MX_seq42_1_VE1000.json,http://54.235.29.9/FacialAge/BNav_EC2/DepthDuration/MX_fS_VE_MTurk/MX_fS_HTML.html#11,11,1366,607,1366,768,1-8-2024,12-36-20,57,VR_target_stimuli/s26_1x_4_433.png,1000,1x,4.0,3.0,3096,1001,meters,jsons/MX_seq42_1_VE1000.json,271195,426737,39,Woman
57,831594,final-intermixed-textured,v2,jsons/MX_seq42_1_VE1000.json,http://54.235.29.9/FacialAge/BNav_EC2/DepthDuration/MX_fS_VE_MTurk/MX_fS_HTML.html#11,11,1366,607,1366,768,1-8-2024,12-36-20,58,VR_target_stimuli/s12_1x_3.1_372_BC.png,1000,1x,3.1,3.0,3107,1000,meters,jsons/MX_seq42_1_VE1000.json,271195,426737,39,Woman
58,831594,final-intermixed-textured,v2,jsons/MX_seq42_1_VE1000.json,http://54.235.29.9/FacialAge/BNav_EC2/DepthDuration/MX_fS_VE_MTurk/MX_fS_HTML.html#11,11,1366,607,1366,768,1-8-2024,12-36-20,59,VR_target_stimuli/s30_0.75x_2.3_332.png,1000,0.75x,2.3,2.5,4282,1000,meters,jsons/MX_seq42_1_VE1000.json,271195,426737,39,Woman
59,831594,final-intermixed-textured,v2,jsons/MX_seq42_1_VE1000.json,http://54.235.29.9/FacialAge/BNav_EC2/DepthDuration/MX_fS_VE_MTurk/MX_fS_HTML.html#11,11,1366,607,1366,768,1-8-2024,12-36-20,60,VR_target_stimuli/s16_1.3x_1_223.png,1000,1.3x,1.0,1.0,3585,988,meters,jsons/MX_seq42_1_VE1000.json,271195,426737,39,Woman
