,subjID,experimentName,versionName,sequenceName,url,selected_row,windowWidth,windowHeight,screenWidth,screenHeight,startDate,startTime,trial,stimulus,duration,scale,actual_depth,depth_estimate,trial_RT,log_sceneDuration,unitSelection,seq_filepath,experimentTime,totalTime,age,gender
0,836864,final-intermixed-textured,v2,jsons/MX_seq45_1_VE1000_flipped.json,http://54.235.29.9/FacialAge/BNav_EC2/DepthDuration/MX_fS_VE_MTurk/MX_fS_HTML.html#308,308,1920,919,1920,1080,1-8-2024,20-46-36,1,VR_target_stimuli/s46_1.3x_2.42_354.png,1000,1.3x,2.42,4.0,8091,995,meters,jsons/MX_seq45_1_VE1000_flipped.json,296166,515337,35,Man
1,836864,final-intermixed-textured,v2,jsons/MX_seq45_1_VE1000_flipped.json,http://54.235.29.9/FacialAge/BNav_EC2/DepthDuration/MX_fS_VE_MTurk/MX_fS_HTML.html#308,308,1920,919,1920,1080,1-8-2024,20-46-36,2,VR_target_stimuli/s22_0.75x_4.29_348_BC.png,1000,0.75x,4.29,6.0,3957,992,meters,jsons/MX_seq45_1_VE1000_flipped.json,296166,515337,35,Man
2,836864,final-intermixed-textured,v2,jsons/MX_seq45_1_VE1000_flipped.json,http://54.235.29.9/FacialAge/BNav_EC2/DepthDuration/MX_fS_VE_MTurk/MX_fS_HTML.html#308,308,1920,919,1920,1080,1-8-2024,20-46-36,3,VR_target_stimuli/s42_1x_3.2_303.png,1000,1x,3.2,4.0,4293,991,meters,jsons/MX_seq45_1_VE1000_flipped.json,296166,515337,35,Man
3,836864,final-intermixed-textured,v2,jsons/MX_seq45_1_VE1000_flipped.json,http://54.235.29.9/FacialAge/BNav_EC2/DepthDuration/MX_fS_VE_MTurk/MX_fS_HTML.html#308,308,1920,919,1920,1080,1-8-2024,20-46-36,4,VR_target_stimuli/s25_0.75x_1.4_281.png,1000,0.75x,1.4,2.5,12643,1004,meters,jsons/MX_seq45_1_VE1000_flipped.json,296166,515337,35,Man
4,836864,final-intermixed-textured,v2,jsons/MX_seq45_1_VE1000_flipped.json,http://54.235.29.9/FacialAge/BNav_EC2/DepthDuration/MX_fS_VE_MTurk/MX_fS_HTML.html#308,308,1920,919,1920,1080,1-8-2024,20-46-36,5,VR_target_stimuli/s50_1.3x_4.53_518_BC.png,1000,1.3x,4.53,4.0,6368,995,meters,jsons/MX_seq45_1_VE1000_flipped.json,296166,515337,35,Man
5,836864,final-intermixed-textured,v2,jsons/MX_seq45_1_VE1000_flipped.json,http://54.235.29.9/FacialAge/BNav_EC2/DepthDuration/MX_fS_VE_MTurk/MX_fS_HTML.html#308,308,1920,919,1920,1080,1-8-2024,20-46-36,6,VR_target_stimuli/s53_1x_1.6_387_BC.png,1000,1x,1.6,2.0,3871,999,meters,jsons/MX_seq45_1_VE1000_flipped.json,296166,515337,35,Man
6,836864,final-intermixed-textured,v2,jsons/MX_seq45_1_VE1000_flipped.json,http://54.235.29.9/FacialAge/BNav_EC2/DepthDuration/MX_fS_VE_MTurk/MX_fS_HTML.html#308,308,1920,919,1920,1080,1-8-2024,20-46-36,7,catch_stimuli/c0_BC.png,1000,,,0.0,2944,1003,meters,jsons/MX_seq45_1_VE1000_flipped.json,296166,515337,35,Man
7,836864,final-intermixed-textured,v2,jsons/MX_seq45_1_VE1000_flipped.json,http://54.235.29.9/FacialAge/BNav_EC2/DepthDuration/MX_fS_VE_MTurk/MX_fS_HTML.html#308,308,1920,919,1920,1080,1-8-2024,20-46-36,8,VR_target_stimuli/s38_1x_3.55_353_BC.png,1000,1x,3.55,4.0,8560,1004,meters,jsons/MX_seq45_1_VE1000_flipped.json,296166,515337,35,Man
8,836864,final-intermixed-textured,v2,jsons/MX_seq45_1_VE1000_flipped.json,http://54.235.29.9/FacialAge/BNav_EC2/DepthDuration/MX_fS_VE_MTurk/MX_fS_HTML.html#308,308,1920,919,1920,1080,1-8-2024,20-46-36,9,VR_target_stimuli/s9_0.75x_1.2_260.png,1000,0.75x,1.2,1.5,4786,1003,meters,jsons/MX_seq45_1_VE1000_flipped.json,296166,515337,35,Man
9,836864,final-intermixed-textured,v2,jsons/MX_seq45_1_VE1000_flipped.json,http://54.235.29.9/FacialAge/BNav_EC2/DepthDuration/MX_fS_VE_MTurk/MX_fS_HTML.html#308,308,1920,919,1920,1080,1-8-2024,20-46-36,10,VR_target_stimuli/s44_1.3x_4.4_325_BC.png,1000,1.3x,4.4,5.0,4923,999,meters,jsons/MX_seq45_1_VE1000_flipped.json,296166,515337,35,Man
10,836864,final-intermixed-textured,v2,jsons/MX_seq45_1_VE1000_flipped.json,http://54.235.29.9/FacialAge/BNav_EC2/DepthDuration/MX_fS_VE_MTurk/MX_fS_HTML.html#308,308,1920,919,1920,1080,1-8-2024,20-46-36,11,VR_target_stimuli/s3_0.75x_5_381_BC.png,1000,0.75x,5.0,6.0,3232,1003,meters,jsons/MX_seq45_1_VE1000_flipped.json,296166,515337,35,Man
11,836864,final-intermixed-textured,v2,jsons/MX_seq45_1_VE1000_flipped.json,http://54.235.29.9/FacialAge/BNav_EC2/DepthDuration/MX_fS_VE_MTurk/MX_fS_HTML.html#308,308,1920,919,1920,1080,1-8-2024,20-46-36,12,VR_target_stimuli/s1_1x_1.7_262.png,1000,1x,1.7,2.0,3688,1000,meters,jsons/MX_seq45_1_VE1000_flipped.json,296166,515337,35,Man
12,836864,final-intermixed-textured,v2,jsons/MX_seq45_1_VE1000_flipped.json,http://54.235.29.9/FacialAge/BNav_EC2/DepthDuration/MX_fS_VE_MTurk/MX_fS_HTML.html#308,308,1920,919,1920,1080,1-8-2024,20-46-36,13,VR_target_stimuli/s11_1.3x_5_363.png,1000,1.3x,5.0,5.0,7389,1004,meters,jsons/MX_seq45_1_VE1000_flipped.json,296166,515337,35,Man
13,836864,final-intermixed-textured,v2,jsons/MX_seq45_1_VE1000_flipped.json,http://54.235.29.9/FacialAge/BNav_EC2/DepthDuration/MX_fS_VE_MTurk/MX_fS_HTML.html#308,308,1920,919,1920,1080,1-8-2024,20-46-36,14,VR_target_stimuli/s2_1x_2.7_390.png,1000,1x,2.7,2.0,3219,1002,meters,jsons/MX_seq45_1_VE1000_flipped.json,296166,515337,35,Man
14,836864,final-intermixed-textured,v2,jsons/MX_seq45_1_VE1000_flipped.json,http://54.235.29.9/FacialAge/BNav_EC2/DepthDuration/MX_fS_VE_MTurk/MX_fS_HTML.html#308,308,1920,919,1920,1080,1-8-2024,20-46-36,15,VR_target_stimuli/s6_0.75x_2.1_290_BC.png,1000,0.75x,2.1,2.5,5161,1002,meters,jsons/MX_seq45_1_VE1000_flipped.json,296166,515337,35,Man
15,836864,final-intermixed-textured,v2,jsons/MX_seq45_1_VE1000_flipped.json,http://54.235.29.9/FacialAge/BNav_EC2/DepthDuration/MX_fS_VE_MTurk/MX_fS_HTML.html#308,308,1920,919,1920,1080,1-8-2024,20-46-36,16,VR_target_stimuli/s0_1.3x_2.6_356_BC.png,1000,1.3x,2.6,2.5,5762,998,meters,jsons/MX_seq45_1_VE1000_flipped.json,296166,515337,35,Man
16,836864,final-intermixed-textured,v2,jsons/MX_seq45_1_VE1000_flipped.json,http://54.235.29.9/FacialAge/BNav_EC2/DepthDuration/MX_fS_VE_MTurk/MX_fS_HTML.html#308,308,1920,919,1920,1080,1-8-2024,20-46-36,17,catch_stimuli/c1_BC.png,1000,,,0.0,3252,1001,meters,jsons/MX_seq45_1_VE1000_flipped.json,296166,515337,35,Man
17,836864,final-intermixed-textured,v2,jsons/MX_seq45_1_VE1000_flipped.json,http://54.235.29.9/FacialAge/BNav_EC2/DepthDuration/MX_fS_VE_MTurk/MX_fS_HTML.html#308,308,1920,919,1920,1080,1-8-2024,20-46-36,18,VR_target_stimuli/s34_1.3x_2.8_294.png,1000,1.3x,2.8,3.0,5999,1001,meters,jsons/MX_seq45_1_VE1000_flipped.json,296166,515337,35,Man
18,836864,final-intermixed-textured,v2,jsons/MX_seq45_1_VE1000_flipped.json,http://54.235.29.9/FacialAge/BNav_EC2/DepthDuration/MX_fS_VE_MTurk/MX_fS_HTML.html#308,308,1920,919,1920,1080,1-8-2024,20-46-36,19,VR_target_stimuli/s13_1x_2.4_310_BC.png,1000,1x,2.4,3.0,3991,1011,meters,jsons/MX_seq45_1_VE1000_flipped.json,296166,515337,35,Man
19,836864,final-intermixed-textured,v2,jsons/MX_seq45_1_VE1000_flipped.json,http://54.235.29.9/FacialAge/BNav_EC2/DepthDuration/MX_fS_VE_MTurk/MX_fS_HTML.html#308,308,1920,919,1920,1080,1-8-2024,20-46-36,20,VR_target_stimuli/s14_0.75x_3.83_355.png,1000,0.75x,3.83,3.5,4448,1004,meters,jsons/MX_seq45_1_VE1000_flipped.json,296166,515337,35,Man
20,836864,final-intermixed-textured,v2,jsons/MX_seq45_1_VE1000_flipped.json,http://54.235.29.9/FacialAge/BNav_EC2/DepthDuration/MX_fS_VE_MTurk/MX_fS_HTML.html#308,308,1920,919,1920,1080,1-8-2024,20-46-36,21,VR_target_stimuli/s47_1x_3.45_370_BC.png,1000,1x,3.45,3.5,6852,1002,meters,jsons/MX_seq45_1_VE1000_flipped.json,296166,515337,35,Man
21,836864,final-intermixed-textured,v2,jsons/MX_seq45_1_VE1000_flipped.json,http://54.235.29.9/FacialAge/BNav_EC2/DepthDuration/MX_fS_VE_MTurk/MX_fS_HTML.html#308,308,1920,919,1920,1080,1-8-2024,20-46-36,22,VR_target_stimuli/s29_1.3x_1.3_253_BC.png,1000,1.3x,1.3,2.5,4260,1002,meters,jsons/MX_seq45_1_VE1000_flipped.json,296166,515337,35,Man
22,836864,final-intermixed-textured,v2,jsons/MX_seq45_1_VE1000_flipped.json,http://54.235.29.9/FacialAge/BNav_EC2/DepthDuration/MX_fS_VE_MTurk/MX_fS_HTML.html#308,308,1920,919,1920,1080,1-8-2024,20-46-36,23,VR_target_stimuli/s28_0.75x_3.2_357_BC.png,1000,0.75x,3.2,3.5,4398,1001,meters,jsons/MX_seq45_1_VE1000_flipped.json,296166,515337,35,Man
23,836864,final-intermixed-textured,v2,jsons/MX_seq45_1_VE1000_flipped.json,http://54.235.29.9/FacialAge/BNav_EC2/DepthDuration/MX_fS_VE_MTurk/MX_fS_HTML.html#308,308,1920,919,1920,1080,1-8-2024,20-46-36,24,VR_target_stimuli/s48_1.3x_2.55_255.png,1000,1.3x,2.55,3.0,3771,1001,meters,jsons/MX_seq45_1_VE1000_flipped.json,296166,515337,35,Man
24,836864,final-intermixed-textured,v2,jsons/MX_seq45_1_VE1000_flipped.json,http://54.235.29.9/FacialAge/BNav_EC2/DepthDuration/MX_fS_VE_MTurk/MX_fS_HTML.html#308,308,1920,919,1920,1080,1-8-2024,20-46-36,25,VR_target_stimuli/s19_1x_1.21_263.png,1000,1x,1.21,1.5,4400,996,meters,jsons/MX_seq45_1_VE1000_flipped.json,296166,515337,35,Man
25,836864,final-intermixed-textured,v2,jsons/MX_seq45_1_VE1000_flipped.json,http://54.235.29.9/FacialAge/BNav_EC2/DepthDuration/MX_fS_VE_MTurk/MX_fS_HTML.html#308,308,1920,919,1920,1080,1-8-2024,20-46-36,26,catch_stimuli/c2_BC.png,1000,,,0.0,3545,1011,meters,jsons/MX_seq45_1_VE1000_flipped.json,296166,515337,35,Man
26,836864,final-intermixed-textured,v2,jsons/MX_seq45_1_VE1000_flipped.json,http://54.235.29.9/FacialAge/BNav_EC2/DepthDuration/MX_fS_VE_MTurk/MX_fS_HTML.html#308,308,1920,919,1920,1080,1-8-2024,20-46-36,27,VR_target_stimuli/s21_0.75x_4.22_374.png,1000,0.75x,4.22,7.0,4835,1000,meters,jsons/MX_seq45_1_VE1000_flipped.json,296166,515337,35,Man
27,836864,final-intermixed-textured,v2,jsons/MX_seq45_1_VE1000_flipped.json,http://54.235.29.9/FacialAge/BNav_EC2/DepthDuration/MX_fS_VE_MTurk/MX_fS_HTML.html#308,308,1920,919,1920,1080,1-8-2024,20-46-36,28,VR_target_stimuli/s8_0.75x_3.1_325_BC.png,1000,0.75x,3.1,6.0,2627,987,meters,jsons/MX_seq45_1_VE1000_flipped.json,296166,515337,35,Man
28,836864,final-intermixed-textured,v2,jsons/MX_seq45_1_VE1000_flipped.json,http://54.235.29.9/FacialAge/BNav_EC2/DepthDuration/MX_fS_VE_MTurk/MX_fS_HTML.html#308,308,1920,919,1920,1080,1-8-2024,20-46-36,29,VR_target_stimuli/s27_1.3x_1.76_250_BC.png,1000,1.3x,1.76,3.5,5394,996,meters,jsons/MX_seq45_1_VE1000_flipped.json,296166,515337,35,Man
29,836864,final-intermixed-textured,v2,jsons/MX_seq45_1_VE1000_flipped.json,http://54.235.29.9/FacialAge/BNav_EC2/DepthDuration/MX_fS_VE_MTurk/MX_fS_HTML.html#308,308,1920,919,1920,1080,1-8-2024,20-46-36,30,VR_target_stimuli/s15_1x_4.2_390_BC.png,1000,1x,4.2,6.0,3282,1003,meters,jsons/MX_seq45_1_VE1000_flipped.json,296166,515337,35,Man
30,836864,final-intermixed-textured,v2,jsons/MX_seq45_1_VE1000_flipped.json,http://54.235.29.9/FacialAge/BNav_EC2/DepthDuration/MX_fS_VE_MTurk/MX_fS_HTML.html#308,308,1920,919,1920,1080,1-8-2024,20-46-36,31,VR_target_stimuli/s4_0.75x_1.4_301.png,1000,0.75x,1.4,2.0,6862,1010,meters,jsons/MX_seq45_1_VE1000_flipped.json,296166,515337,35,Man
31,836864,final-intermixed-textured,v2,jsons/MX_seq45_1_VE1000_flipped.json,http://54.235.29.9/FacialAge/BNav_EC2/DepthDuration/MX_fS_VE_MTurk/MX_fS_HTML.html#308,308,1920,919,1920,1080,1-8-2024,20-46-36,32,VR_target_stimuli/s35_1x_2_331.png,1000,1x,2.0,2.5,4486,1004,meters,jsons/MX_seq45_1_VE1000_flipped.json,296166,515337,35,Man
32,836864,final-intermixed-textured,v2,jsons/MX_seq45_1_VE1000_flipped.json,http://54.235.29.9/FacialAge/BNav_EC2/DepthDuration/MX_fS_VE_MTurk/MX_fS_HTML.html#308,308,1920,919,1920,1080,1-8-2024,20-46-36,33,VR_target_stimuli/s49_1.3x_4.67_354.png,1000,1.3x,4.67,4.0,2800,995,meters,jsons/MX_seq45_1_VE1000_flipped.json,296166,515337,35,Man
33,836864,final-intermixed-textured,v2,jsons/MX_seq45_1_VE1000_flipped.json,http://54.235.29.9/FacialAge/BNav_EC2/DepthDuration/MX_fS_VE_MTurk/MX_fS_HTML.html#308,308,1920,919,1920,1080,1-8-2024,20-46-36,34,catch_stimuli/c3_BC.png,1000,,,0.0,3007,990,meters,jsons/MX_seq45_1_VE1000_flipped.json,296166,515337,35,Man
34,836864,final-intermixed-textured,v2,jsons/MX_seq45_1_VE1000_flipped.json,http://54.235.29.9/FacialAge/BNav_EC2/DepthDuration/MX_fS_VE_MTurk/MX_fS_HTML.html#308,308,1920,919,1920,1080,1-8-2024,20-46-36,35,VR_target_stimuli/s7_1x_1.5_255_BC.png,1000,1x,1.5,2.0,3860,997,meters,jsons/MX_seq45_1_VE1000_flipped.json,296166,515337,35,Man
35,836864,final-intermixed-textured,v2,jsons/MX_seq45_1_VE1000_flipped.json,http://54.235.29.9/FacialAge/BNav_EC2/DepthDuration/MX_fS_VE_MTurk/MX_fS_HTML.html#308,308,1920,919,1920,1080,1-8-2024,20-46-36,36,VR_target_stimuli/s20_0.75x_4.99_390_BC.png,1000,0.75x,4.99,6.0,3126,989,meters,jsons/MX_seq45_1_VE1000_flipped.json,296166,515337,35,Man
36,836864,final-intermixed-textured,v2,jsons/MX_seq45_1_VE1000_flipped.json,http://54.235.29.9/FacialAge/BNav_EC2/DepthDuration/MX_fS_VE_MTurk/MX_fS_HTML.html#308,308,1920,919,1920,1080,1-8-2024,20-46-36,37,VR_target_stimuli/s31_1.3x_4.96_342.png,1000,1.3x,4.96,3.0,4051,990,meters,jsons/MX_seq45_1_VE1000_flipped.json,296166,515337,35,Man
37,836864,final-intermixed-textured,v2,jsons/MX_seq45_1_VE1000_flipped.json,http://54.235.29.9/FacialAge/BNav_EC2/DepthDuration/MX_fS_VE_MTurk/MX_fS_HTML.html#308,308,1920,919,1920,1080,1-8-2024,20-46-36,38,VR_target_stimuli/s33_1.3x_3.1_378_BC.png,1000,1.3x,3.1,3.0,2605,999,meters,jsons/MX_seq45_1_VE1000_flipped.json,296166,515337,35,Man
38,836864,final-intermixed-textured,v2,jsons/MX_seq45_1_VE1000_flipped.json,http://54.235.29.9/FacialAge/BNav_EC2/DepthDuration/MX_fS_VE_MTurk/MX_fS_HTML.html#308,308,1920,919,1920,1080,1-8-2024,20-46-36,39,VR_target_stimuli/s52_1x_3.2_275.png,1000,1x,3.2,4.0,2864,996,meters,jsons/MX_seq45_1_VE1000_flipped.json,296166,515337,35,Man
39,836864,final-intermixed-textured,v2,jsons/MX_seq45_1_VE1000_flipped.json,http://54.235.29.9/FacialAge/BNav_EC2/DepthDuration/MX_fS_VE_MTurk/MX_fS_HTML.html#308,308,1920,919,1920,1080,1-8-2024,20-46-36,40,VR_target_stimuli/s32_0.75x_1.5_213.png,1000,0.75x,1.5,3.0,2720,1004,meters,jsons/MX_seq45_1_VE1000_flipped.json,296166,515337,35,Man
40,836864,final-intermixed-textured,v2,jsons/MX_seq45_1_VE1000_flipped.json,http://54.235.29.9/FacialAge/BNav_EC2/DepthDuration/MX_fS_VE_MTurk/MX_fS_HTML.html#308,308,1920,919,1920,1080,1-8-2024,20-46-36,41,VR_target_stimuli/s18_1x_2.25_353_BC.png,1000,1x,2.25,2.5,3786,996,meters,jsons/MX_seq45_1_VE1000_flipped.json,296166,515337,35,Man
41,836864,final-intermixed-textured,v2,jsons/MX_seq45_1_VE1000_flipped.json,http://54.235.29.9/FacialAge/BNav_EC2/DepthDuration/MX_fS_VE_MTurk/MX_fS_HTML.html#308,308,1920,919,1920,1080,1-8-2024,20-46-36,42,VR_target_stimuli/s39_1.3x_1_208.png,1000,1.3x,1.0,1.5,3724,988,meters,jsons/MX_seq45_1_VE1000_flipped.json,296166,515337,35,Man
42,836864,final-intermixed-textured,v2,jsons/MX_seq45_1_VE1000_flipped.json,http://54.235.29.9/FacialAge/BNav_EC2/DepthDuration/MX_fS_VE_MTurk/MX_fS_HTML.html#308,308,1920,919,1920,1080,1-8-2024,20-46-36,43,VR_target_stimuli/s51_0.75x_3.64_460_BC.png,1000,0.75x,3.64,2.0,2931,993,meters,jsons/MX_seq45_1_VE1000_flipped.json,296166,515337,35,Man
43,836864,final-intermixed-textured,v2,jsons/MX_seq45_1_VE1000_flipped.json,http://54.235.29.9/FacialAge/BNav_EC2/DepthDuration/MX_fS_VE_MTurk/MX_fS_HTML.html#308,308,1920,919,1920,1080,1-8-2024,20-46-36,44,VR_target_stimuli/s43_1.3x_2.2_363_BC.png,1000,1.3x,2.2,2.5,3860,988,meters,jsons/MX_seq45_1_VE1000_flipped.json,296166,515337,35,Man
44,836864,final-intermixed-textured,v2,jsons/MX_seq45_1_VE1000_flipped.json,http://54.235.29.9/FacialAge/BNav_EC2/DepthDuration/MX_fS_VE_MTurk/MX_fS_HTML.html#308,308,1920,919,1920,1080,1-8-2024,20-46-36,45,catch_stimuli/c4_BC.png,1000,,,0.0,2765,998,meters,jsons/MX_seq45_1_VE1000_flipped.json,296166,515337,35,Man
45,836864,final-intermixed-textured,v2,jsons/MX_seq45_1_VE1000_flipped.json,http://54.235.29.9/FacialAge/BNav_EC2/DepthDuration/MX_fS_VE_MTurk/MX_fS_HTML.html#308,308,1920,919,1920,1080,1-8-2024,20-46-36,46,VR_target_stimuli/s24_1x_3.3_349.png,1000,1x,3.3,4.0,2833,999,meters,jsons/MX_seq45_1_VE1000_flipped.json,296166,515337,35,Man
46,836864,final-intermixed-textured,v2,jsons/MX_seq45_1_VE1000_flipped.json,http://54.235.29.9/FacialAge/BNav_EC2/DepthDuration/MX_fS_VE_MTurk/MX_fS_HTML.html#308,308,1920,919,1920,1080,1-8-2024,20-46-36,47,VR_target_stimuli/s10_0.75x_2.7_321.png,1000,0.75x,2.7,4.0,3427,1001,meters,jsons/MX_seq45_1_VE1000_flipped.json,296166,515337,35,Man
47,836864,final-intermixed-textured,v2,jsons/MX_seq45_1_VE1000_flipped.json,http://54.235.29.9/FacialAge/BNav_EC2/DepthDuration/MX_fS_VE_MTurk/MX_fS_HTML.html#308,308,1920,919,1920,1080,1-8-2024,20-46-36,48,VR_target_stimuli/s36_0.75x_4.1_407.png,1000,0.75x,4.1,6.0,2732,993,meters,jsons/MX_seq45_1_VE1000_flipped.json,296166,515337,35,Man
48,836864,final-intermixed-textured,v2,jsons/MX_seq45_1_VE1000_flipped.json,http://54.235.29.9/FacialAge/BNav_EC2/DepthDuration/MX_fS_VE_MTurk/MX_fS_HTML.html#308,308,1920,919,1920,1080,1-8-2024,20-46-36,49,VR_target_stimuli/s40_1.3x_1.2_332.png,1000,1.3x,1.2,1.5,4059,992,meters,jsons/MX_seq45_1_VE1000_flipped.json,296166,515337,35,Man
49,836864,final-intermixed-textured,v2,jsons/MX_seq45_1_VE1000_flipped.json,http://54.235.29.9/FacialAge/BNav_EC2/DepthDuration/MX_fS_VE_MTurk/MX_fS_HTML.html#308,308,1920,919,1920,1080,1-8-2024,20-46-36,50,VR_target_stimuli/s41_1x_2.1_286_BC.png,1000,1x,2.1,2.5,6510,1002,meters,jsons/MX_seq45_1_VE1000_flipped.json,296166,515337,35,Man
50,836864,final-intermixed-textured,v2,jsons/MX_seq45_1_VE1000_flipped.json,http://54.235.29.9/FacialAge/BNav_EC2/DepthDuration/MX_fS_VE_MTurk/MX_fS_HTML.html#308,308,1920,919,1920,1080,1-8-2024,20-46-36,51,VR_target_stimuli/s45_1.3x_3.5_377_BC.png,1000,1.3x,3.5,3.0,3301,1008,meters,jsons/MX_seq45_1_VE1000_flipped.json,296166,515337,35,Man
51,836864,final-intermixed-textured,v2,jsons/MX_seq45_1_VE1000_flipped.json,http://54.235.29.9/FacialAge/BNav_EC2/DepthDuration/MX_fS_VE_MTurk/MX_fS_HTML.html#308,308,1920,919,1920,1080,1-8-2024,20-46-36,52,VR_target_stimuli/s23_0.75x_3.65_351_BC.png,1000,0.75x,3.65,4.0,4761,1004,meters,jsons/MX_seq45_1_VE1000_flipped.json,296166,515337,35,Man
52,836864,final-intermixed-textured,v2,jsons/MX_seq45_1_VE1000_flipped.json,http://54.235.29.9/FacialAge/BNav_EC2/DepthDuration/MX_fS_VE_MTurk/MX_fS_HTML.html#308,308,1920,919,1920,1080,1-8-2024,20-46-36,53,catch_stimuli/c5_BC.png,1000,,,0.0,2847,1001,meters,jsons/MX_seq45_1_VE1000_flipped.json,296166,515337,35,Man
53,836864,final-intermixed-textured,v2,jsons/MX_seq45_1_VE1000_flipped.json,http://54.235.29.9/FacialAge/BNav_EC2/DepthDuration/MX_fS_VE_MTurk/MX_fS_HTML.html#308,308,1920,919,1920,1080,1-8-2024,20-46-36,54,VR_target_stimuli/s26_1x_4_433.png,1000,1x,4.0,3.5,4860,1001,meters,jsons/MX_seq45_1_VE1000_flipped.json,296166,515337,35,Man
54,836864,final-intermixed-textured,v2,jsons/MX_seq45_1_VE1000_flipped.json,http://54.235.29.9/FacialAge/BNav_EC2/DepthDuration/MX_fS_VE_MTurk/MX_fS_HTML.html#308,308,1920,919,1920,1080,1-8-2024,20-46-36,55,VR_target_stimuli/s12_0.75x_3.1_364.png,1000,0.75x,3.1,3.5,4057,1000,meters,jsons/MX_seq45_1_VE1000_flipped.json,296166,515337,35,Man
55,836864,final-intermixed-textured,v2,jsons/MX_seq45_1_VE1000_flipped.json,http://54.235.29.9/FacialAge/BNav_EC2/DepthDuration/MX_fS_VE_MTurk/MX_fS_HTML.html#308,308,1920,919,1920,1080,1-8-2024,20-46-36,56,VR_target_stimuli/s30_1.3x_2.3_337_BC.png,1000,1.3x,2.3,3.5,4700,1003,meters,jsons/MX_seq45_1_VE1000_flipped.json,296166,515337,35,Man
56,836864,final-intermixed-textured,v2,jsons/MX_seq45_1_VE1000_flipped.json,http://54.235.29.9/FacialAge/BNav_EC2/DepthDuration/MX_fS_VE_MTurk/MX_fS_HTML.html#308,308,1920,919,1920,1080,1-8-2024,20-46-36,57,VR_target_stimuli/s16_1x_1_219_BC.png,1000,1x,1.0,1.5,3517,1001,meters,jsons/MX_seq45_1_VE1000_flipped.json,296166,515337,35,Man
57,836864,final-intermixed-textured,v2,jsons/MX_seq45_1_VE1000_flipped.json,http://54.235.29.9/FacialAge/BNav_EC2/DepthDuration/MX_fS_VE_MTurk/MX_fS_HTML.html#308,308,1920,919,1920,1080,1-8-2024,20-46-36,58,VR_target_stimuli/s17_1x_1.8_291.png,1000,1x,1.8,2.5,4089,999,meters,jsons/MX_seq45_1_VE1000_flipped.json,296166,515337,35,Man
58,836864,final-intermixed-textured,v2,jsons/MX_seq45_1_VE1000_flipped.json,http://54.235.29.9/FacialAge/BNav_EC2/DepthDuration/MX_fS_VE_MTurk/MX_fS_HTML.html#308,308,1920,919,1920,1080,1-8-2024,20-46-36,59,VR_target_stimuli/s5_0.75x_4_375_BC.png,1000,0.75x,4.0,3.5,6244,1001,meters,jsons/MX_seq45_1_VE1000_flipped.json,296166,515337,35,Man
59,836864,final-intermixed-textured,v2,jsons/MX_seq45_1_VE1000_flipped.json,http://54.235.29.9/FacialAge/BNav_EC2/DepthDuration/MX_fS_VE_MTurk/MX_fS_HTML.html#308,308,1920,919,1920,1080,1-8-2024,20-46-36,60,VR_target_stimuli/s37_1.3x_3.3_555.png,1000,1.3x,3.3,2.5,4366,997,meters,jsons/MX_seq45_1_VE1000_flipped.json,296166,515337,35,Man
