,subjID,experimentName,versionName,sequenceName,url,selected_row,windowWidth,windowHeight,screenWidth,screenHeight,startDate,startTime,trial,stimulus,duration,scale,actual_depth,depth_estimate,trial_RT,log_sceneDuration,unitSelection,seq_filepath,experimentTime,totalTime,age,gender
0,836905,final-intermixed-textured,v2,jsons/MX_seq0_0_VE1000.json,http://54.235.29.9/FacialAge/BNav_EC2/DepthDuration/MX_fS_VE_MTurk/MX_fS_HTML.html#35,35,1912,966,1920,1080,1-8-2024,7-35-13,1,VR_target_stimuli/s3_0.75x_5_381_BC.png,1000,0.75x,5.0,6.0,3863,999,meters,jsons/MX_seq0_0_VE1000.json,235919,708828,35,Man
1,836905,final-intermixed-textured,v2,jsons/MX_seq0_0_VE1000.json,http://54.235.29.9/FacialAge/BNav_EC2/DepthDuration/MX_fS_VE_MTurk/MX_fS_HTML.html#35,35,1912,966,1920,1080,1-8-2024,7-35-13,2,VR_target_stimuli/s1_1x_1.7_262.png,1000,1x,1.7,2.0,3370,1008,meters,jsons/MX_seq0_0_VE1000.json,235919,708828,35,Man
2,836905,final-intermixed-textured,v2,jsons/MX_seq0_0_VE1000.json,http://54.235.29.9/FacialAge/BNav_EC2/DepthDuration/MX_fS_VE_MTurk/MX_fS_HTML.html#35,35,1912,966,1920,1080,1-8-2024,7-35-13,3,VR_target_stimuli/s11_1.3x_5_363.png,1000,1.3x,5.0,5.0,3555,986,meters,jsons/MX_seq0_0_VE1000.json,235919,708828,35,Man
3,836905,final-intermixed-textured,v2,jsons/MX_seq0_0_VE1000.json,http://54.235.29.9/FacialAge/BNav_EC2/DepthDuration/MX_fS_VE_MTurk/MX_fS_HTML.html#35,35,1912,966,1920,1080,1-8-2024,7-35-13,4,VR_target_stimuli/s2_1x_2.7_390_BC.png,1000,1x,2.7,3.0,3583,989,meters,jsons/MX_seq0_0_VE1000.json,235919,708828,35,Man
4,836905,final-intermixed-textured,v2,jsons/MX_seq0_0_VE1000.json,http://54.235.29.9/FacialAge/BNav_EC2/DepthDuration/MX_fS_VE_MTurk/MX_fS_HTML.html#35,35,1912,966,1920,1080,1-8-2024,7-35-13,5,VR_target_stimuli/s6_0.75x_2.1_290.png,1000,0.75x,2.1,3.0,3231,990,meters,jsons/MX_seq0_0_VE1000.json,235919,708828,35,Man
5,836905,final-intermixed-textured,v2,jsons/MX_seq0_0_VE1000.json,http://54.235.29.9/FacialAge/BNav_EC2/DepthDuration/MX_fS_VE_MTurk/MX_fS_HTML.html#35,35,1912,966,1920,1080,1-8-2024,7-35-13,6,VR_target_stimuli/s0_1.3x_2.6_356_BC.png,1000,1.3x,2.6,3.0,2776,1004,meters,jsons/MX_seq0_0_VE1000.json,235919,708828,35,Man
6,836905,final-intermixed-textured,v2,jsons/MX_seq0_0_VE1000.json,http://54.235.29.9/FacialAge/BNav_EC2/DepthDuration/MX_fS_VE_MTurk/MX_fS_HTML.html#35,35,1912,966,1920,1080,1-8-2024,7-35-13,7,catch_stimuli/c0.png,1000,,,0.0,3300,997,meters,jsons/MX_seq0_0_VE1000.json,235919,708828,35,Man
7,836905,final-intermixed-textured,v2,jsons/MX_seq0_0_VE1000.json,http://54.235.29.9/FacialAge/BNav_EC2/DepthDuration/MX_fS_VE_MTurk/MX_fS_HTML.html#35,35,1912,966,1920,1080,1-8-2024,7-35-13,8,VR_target_stimuli/s34_1.3x_2.8_294_BC.png,1000,1.3x,2.8,6.0,3672,1003,meters,jsons/MX_seq0_0_VE1000.json,235919,708828,35,Man
8,836905,final-intermixed-textured,v2,jsons/MX_seq0_0_VE1000.json,http://54.235.29.9/FacialAge/BNav_EC2/DepthDuration/MX_fS_VE_MTurk/MX_fS_HTML.html#35,35,1912,966,1920,1080,1-8-2024,7-35-13,9,VR_target_stimuli/s13_1x_2.4_310_BC.png,1000,1x,2.4,5.0,3123,995,meters,jsons/MX_seq0_0_VE1000.json,235919,708828,35,Man
9,836905,final-intermixed-textured,v2,jsons/MX_seq0_0_VE1000.json,http://54.235.29.9/FacialAge/BNav_EC2/DepthDuration/MX_fS_VE_MTurk/MX_fS_HTML.html#35,35,1912,966,1920,1080,1-8-2024,7-35-13,10,VR_target_stimuli/s14_0.75x_3.83_355_BC.png,1000,0.75x,3.83,5.0,2562,998,meters,jsons/MX_seq0_0_VE1000.json,235919,708828,35,Man
10,836905,final-intermixed-textured,v2,jsons/MX_seq0_0_VE1000.json,http://54.235.29.9/FacialAge/BNav_EC2/DepthDuration/MX_fS_VE_MTurk/MX_fS_HTML.html#35,35,1912,966,1920,1080,1-8-2024,7-35-13,11,VR_target_stimuli/s47_1x_3.45_370.png,1000,1x,3.45,4.0,3668,1005,meters,jsons/MX_seq0_0_VE1000.json,235919,708828,35,Man
11,836905,final-intermixed-textured,v2,jsons/MX_seq0_0_VE1000.json,http://54.235.29.9/FacialAge/BNav_EC2/DepthDuration/MX_fS_VE_MTurk/MX_fS_HTML.html#35,35,1912,966,1920,1080,1-8-2024,7-35-13,12,VR_target_stimuli/s29_1.3x_1.3_253.png,1000,1.3x,1.3,2.0,3019,1011,meters,jsons/MX_seq0_0_VE1000.json,235919,708828,35,Man
12,836905,final-intermixed-textured,v2,jsons/MX_seq0_0_VE1000.json,http://54.235.29.9/FacialAge/BNav_EC2/DepthDuration/MX_fS_VE_MTurk/MX_fS_HTML.html#35,35,1912,966,1920,1080,1-8-2024,7-35-13,13,VR_target_stimuli/s28_0.75x_3.2_357.png,1000,0.75x,3.2,5.0,3838,998,meters,jsons/MX_seq0_0_VE1000.json,235919,708828,35,Man
13,836905,final-intermixed-textured,v2,jsons/MX_seq0_0_VE1000.json,http://54.235.29.9/FacialAge/BNav_EC2/DepthDuration/MX_fS_VE_MTurk/MX_fS_HTML.html#35,35,1912,966,1920,1080,1-8-2024,7-35-13,14,VR_target_stimuli/s48_1.3x_2.55_255.png,1000,1.3x,2.55,4.0,4061,1001,meters,jsons/MX_seq0_0_VE1000.json,235919,708828,35,Man
14,836905,final-intermixed-textured,v2,jsons/MX_seq0_0_VE1000.json,http://54.235.29.9/FacialAge/BNav_EC2/DepthDuration/MX_fS_VE_MTurk/MX_fS_HTML.html#35,35,1912,966,1920,1080,1-8-2024,7-35-13,15,VR_target_stimuli/s19_1x_1.21_263.png,1000,1x,1.21,2.0,3762,1000,meters,jsons/MX_seq0_0_VE1000.json,235919,708828,35,Man
15,836905,final-intermixed-textured,v2,jsons/MX_seq0_0_VE1000.json,http://54.235.29.9/FacialAge/BNav_EC2/DepthDuration/MX_fS_VE_MTurk/MX_fS_HTML.html#35,35,1912,966,1920,1080,1-8-2024,7-35-13,16,VR_target_stimuli/s21_0.75x_4.22_374.png,1000,0.75x,4.22,8.0,3825,996,meters,jsons/MX_seq0_0_VE1000.json,235919,708828,35,Man
16,836905,final-intermixed-textured,v2,jsons/MX_seq0_0_VE1000.json,http://54.235.29.9/FacialAge/BNav_EC2/DepthDuration/MX_fS_VE_MTurk/MX_fS_HTML.html#35,35,1912,966,1920,1080,1-8-2024,7-35-13,17,catch_stimuli/c1.png,1000,,,0.0,3448,1013,meters,jsons/MX_seq0_0_VE1000.json,235919,708828,35,Man
17,836905,final-intermixed-textured,v2,jsons/MX_seq0_0_VE1000.json,http://54.235.29.9/FacialAge/BNav_EC2/DepthDuration/MX_fS_VE_MTurk/MX_fS_HTML.html#35,35,1912,966,1920,1080,1-8-2024,7-35-13,18,VR_target_stimuli/s8_0.75x_3.1_325_BC.png,1000,0.75x,3.1,5.0,3337,989,meters,jsons/MX_seq0_0_VE1000.json,235919,708828,35,Man
18,836905,final-intermixed-textured,v2,jsons/MX_seq0_0_VE1000.json,http://54.235.29.9/FacialAge/BNav_EC2/DepthDuration/MX_fS_VE_MTurk/MX_fS_HTML.html#35,35,1912,966,1920,1080,1-8-2024,7-35-13,19,VR_target_stimuli/s27_1.3x_1.76_250_BC.png,1000,1.3x,1.76,4.0,3054,999,meters,jsons/MX_seq0_0_VE1000.json,235919,708828,35,Man
19,836905,final-intermixed-textured,v2,jsons/MX_seq0_0_VE1000.json,http://54.235.29.9/FacialAge/BNav_EC2/DepthDuration/MX_fS_VE_MTurk/MX_fS_HTML.html#35,35,1912,966,1920,1080,1-8-2024,7-35-13,20,VR_target_stimuli/s15_1x_4.2_390_BC.png,1000,1x,4.2,5.0,3151,1002,meters,jsons/MX_seq0_0_VE1000.json,235919,708828,35,Man
20,836905,final-intermixed-textured,v2,jsons/MX_seq0_0_VE1000.json,http://54.235.29.9/FacialAge/BNav_EC2/DepthDuration/MX_fS_VE_MTurk/MX_fS_HTML.html#35,35,1912,966,1920,1080,1-8-2024,7-35-13,21,VR_target_stimuli/s4_1.3x_1.4_328.png,1000,1.3x,1.4,2.0,2712,1011,meters,jsons/MX_seq0_0_VE1000.json,235919,708828,35,Man
21,836905,final-intermixed-textured,v2,jsons/MX_seq0_0_VE1000.json,http://54.235.29.9/FacialAge/BNav_EC2/DepthDuration/MX_fS_VE_MTurk/MX_fS_HTML.html#35,35,1912,966,1920,1080,1-8-2024,7-35-13,22,VR_target_stimuli/s35_0.75x_2_323.png,1000,0.75x,2.0,4.0,2444,999,meters,jsons/MX_seq0_0_VE1000.json,235919,708828,35,Man
22,836905,final-intermixed-textured,v2,jsons/MX_seq0_0_VE1000.json,http://54.235.29.9/FacialAge/BNav_EC2/DepthDuration/MX_fS_VE_MTurk/MX_fS_HTML.html#35,35,1912,966,1920,1080,1-8-2024,7-35-13,23,VR_target_stimuli/s49_1x_4.67_341_BC.png,1000,1x,4.67,6.0,2854,998,meters,jsons/MX_seq0_0_VE1000.json,235919,708828,35,Man
23,836905,final-intermixed-textured,v2,jsons/MX_seq0_0_VE1000.json,http://54.235.29.9/FacialAge/BNav_EC2/DepthDuration/MX_fS_VE_MTurk/MX_fS_HTML.html#35,35,1912,966,1920,1080,1-8-2024,7-35-13,24,VR_target_stimuli/s7_0.75x_1.5_253_BC.png,1000,0.75x,1.5,2.0,2762,998,meters,jsons/MX_seq0_0_VE1000.json,235919,708828,35,Man
24,836905,final-intermixed-textured,v2,jsons/MX_seq0_0_VE1000.json,http://54.235.29.9/FacialAge/BNav_EC2/DepthDuration/MX_fS_VE_MTurk/MX_fS_HTML.html#35,35,1912,966,1920,1080,1-8-2024,7-35-13,25,VR_target_stimuli/s20_1.3x_4.99_412_BC.png,1000,1.3x,4.99,5.0,3160,999,meters,jsons/MX_seq0_0_VE1000.json,235919,708828,35,Man
25,836905,final-intermixed-textured,v2,jsons/MX_seq0_0_VE1000.json,http://54.235.29.9/FacialAge/BNav_EC2/DepthDuration/MX_fS_VE_MTurk/MX_fS_HTML.html#35,35,1912,966,1920,1080,1-8-2024,7-35-13,26,catch_stimuli/c2.png,1000,,,0.0,3078,998,meters,jsons/MX_seq0_0_VE1000.json,235919,708828,35,Man
26,836905,final-intermixed-textured,v2,jsons/MX_seq0_0_VE1000.json,http://54.235.29.9/FacialAge/BNav_EC2/DepthDuration/MX_fS_VE_MTurk/MX_fS_HTML.html#35,35,1912,966,1920,1080,1-8-2024,7-35-13,27,VR_target_stimuli/s31_1x_4.96_333.png,1000,1x,4.96,3.0,2774,994,meters,jsons/MX_seq0_0_VE1000.json,235919,708828,35,Man
27,836905,final-intermixed-textured,v2,jsons/MX_seq0_0_VE1000.json,http://54.235.29.9/FacialAge/BNav_EC2/DepthDuration/MX_fS_VE_MTurk/MX_fS_HTML.html#35,35,1912,966,1920,1080,1-8-2024,7-35-13,28,VR_target_stimuli/s33_1x_3.1_366_BC.png,1000,1x,3.1,5.0,3902,998,meters,jsons/MX_seq0_0_VE1000.json,235919,708828,35,Man
28,836905,final-intermixed-textured,v2,jsons/MX_seq0_0_VE1000.json,http://54.235.29.9/FacialAge/BNav_EC2/DepthDuration/MX_fS_VE_MTurk/MX_fS_HTML.html#35,35,1912,966,1920,1080,1-8-2024,7-35-13,29,VR_target_stimuli/s52_0.75x_3.2_270_BC.png,1000,0.75x,3.2,7.0,3401,1009,meters,jsons/MX_seq0_0_VE1000.json,235919,708828,35,Man
29,836905,final-intermixed-textured,v2,jsons/MX_seq0_0_VE1000.json,http://54.235.29.9/FacialAge/BNav_EC2/DepthDuration/MX_fS_VE_MTurk/MX_fS_HTML.html#35,35,1912,966,1920,1080,1-8-2024,7-35-13,30,VR_target_stimuli/s32_1.3x_1.5_224_BC.png,1000,1.3x,1.5,4.0,3101,1001,meters,jsons/MX_seq0_0_VE1000.json,235919,708828,35,Man
30,836905,final-intermixed-textured,v2,jsons/MX_seq0_0_VE1000.json,http://54.235.29.9/FacialAge/BNav_EC2/DepthDuration/MX_fS_VE_MTurk/MX_fS_HTML.html#35,35,1912,966,1920,1080,1-8-2024,7-35-13,31,VR_target_stimuli/s18_1x_2.25_353.png,1000,1x,2.25,4.0,2854,997,meters,jsons/MX_seq0_0_VE1000.json,235919,708828,35,Man
31,836905,final-intermixed-textured,v2,jsons/MX_seq0_0_VE1000.json,http://54.235.29.9/FacialAge/BNav_EC2/DepthDuration/MX_fS_VE_MTurk/MX_fS_HTML.html#35,35,1912,966,1920,1080,1-8-2024,7-35-13,32,VR_target_stimuli/s39_1.3x_1_208.png,1000,1.3x,1.0,1.5,5485,1004,meters,jsons/MX_seq0_0_VE1000.json,235919,708828,35,Man
32,836905,final-intermixed-textured,v2,jsons/MX_seq0_0_VE1000.json,http://54.235.29.9/FacialAge/BNav_EC2/DepthDuration/MX_fS_VE_MTurk/MX_fS_HTML.html#35,35,1912,966,1920,1080,1-8-2024,7-35-13,33,VR_target_stimuli/s51_0.75x_3.64_460.png,1000,0.75x,3.64,5.0,3000,994,meters,jsons/MX_seq0_0_VE1000.json,235919,708828,35,Man
33,836905,final-intermixed-textured,v2,jsons/MX_seq0_0_VE1000.json,http://54.235.29.9/FacialAge/BNav_EC2/DepthDuration/MX_fS_VE_MTurk/MX_fS_HTML.html#35,35,1912,966,1920,1080,1-8-2024,7-35-13,34,catch_stimuli/c3.png,1000,,,0.0,3336,1006,meters,jsons/MX_seq0_0_VE1000.json,235919,708828,35,Man
34,836905,final-intermixed-textured,v2,jsons/MX_seq0_0_VE1000.json,http://54.235.29.9/FacialAge/BNav_EC2/DepthDuration/MX_fS_VE_MTurk/MX_fS_HTML.html#35,35,1912,966,1920,1080,1-8-2024,7-35-13,35,VR_target_stimuli/s43_1.3x_2.2_363.png,1000,1.3x,2.2,3.0,3841,998,meters,jsons/MX_seq0_0_VE1000.json,235919,708828,35,Man
35,836905,final-intermixed-textured,v2,jsons/MX_seq0_0_VE1000.json,http://54.235.29.9/FacialAge/BNav_EC2/DepthDuration/MX_fS_VE_MTurk/MX_fS_HTML.html#35,35,1912,966,1920,1080,1-8-2024,7-35-13,36,VR_target_stimuli/s24_1x_3.3_349.png,1000,1x,3.3,5.0,3557,996,meters,jsons/MX_seq0_0_VE1000.json,235919,708828,35,Man
36,836905,final-intermixed-textured,v2,jsons/MX_seq0_0_VE1000.json,http://54.235.29.9/FacialAge/BNav_EC2/DepthDuration/MX_fS_VE_MTurk/MX_fS_HTML.html#35,35,1912,966,1920,1080,1-8-2024,7-35-13,37,VR_target_stimuli/s10_0.75x_2.7_321_BC.png,1000,0.75x,2.7,3.0,10835,996,meters,jsons/MX_seq0_0_VE1000.json,235919,708828,35,Man
37,836905,final-intermixed-textured,v2,jsons/MX_seq0_0_VE1000.json,http://54.235.29.9/FacialAge/BNav_EC2/DepthDuration/MX_fS_VE_MTurk/MX_fS_HTML.html#35,35,1912,966,1920,1080,1-8-2024,7-35-13,38,VR_target_stimuli/s36_0.75x_4.1_407.png,1000,0.75x,4.1,5.0,3222,1003,meters,jsons/MX_seq0_0_VE1000.json,235919,708828,35,Man
38,836905,final-intermixed-textured,v2,jsons/MX_seq0_0_VE1000.json,http://54.235.29.9/FacialAge/BNav_EC2/DepthDuration/MX_fS_VE_MTurk/MX_fS_HTML.html#35,35,1912,966,1920,1080,1-8-2024,7-35-13,39,VR_target_stimuli/s40_1.3x_1.2_332_BC.png,1000,1.3x,1.2,1.5,4363,1000,meters,jsons/MX_seq0_0_VE1000.json,235919,708828,35,Man
39,836905,final-intermixed-textured,v2,jsons/MX_seq0_0_VE1000.json,http://54.235.29.9/FacialAge/BNav_EC2/DepthDuration/MX_fS_VE_MTurk/MX_fS_HTML.html#35,35,1912,966,1920,1080,1-8-2024,7-35-13,40,VR_target_stimuli/s41_1x_2.1_286_BC.png,1000,1x,2.1,4.0,3085,1010,meters,jsons/MX_seq0_0_VE1000.json,235919,708828,35,Man
40,836905,final-intermixed-textured,v2,jsons/MX_seq0_0_VE1000.json,http://54.235.29.9/FacialAge/BNav_EC2/DepthDuration/MX_fS_VE_MTurk/MX_fS_HTML.html#35,35,1912,966,1920,1080,1-8-2024,7-35-13,41,VR_target_stimuli/s45_1.3x_3.5_377.png,1000,1.3x,3.5,5.0,2866,991,meters,jsons/MX_seq0_0_VE1000.json,235919,708828,35,Man
41,836905,final-intermixed-textured,v2,jsons/MX_seq0_0_VE1000.json,http://54.235.29.9/FacialAge/BNav_EC2/DepthDuration/MX_fS_VE_MTurk/MX_fS_HTML.html#35,35,1912,966,1920,1080,1-8-2024,7-35-13,42,VR_target_stimuli/s23_0.75x_3.65_351_BC.png,1000,0.75x,3.65,4.0,2943,1003,meters,jsons/MX_seq0_0_VE1000.json,235919,708828,35,Man
42,836905,final-intermixed-textured,v2,jsons/MX_seq0_0_VE1000.json,http://54.235.29.9/FacialAge/BNav_EC2/DepthDuration/MX_fS_VE_MTurk/MX_fS_HTML.html#35,35,1912,966,1920,1080,1-8-2024,7-35-13,43,VR_target_stimuli/s26_1x_4_433.png,1000,1x,4.0,4.0,3820,996,meters,jsons/MX_seq0_0_VE1000.json,235919,708828,35,Man
43,836905,final-intermixed-textured,v2,jsons/MX_seq0_0_VE1000.json,http://54.235.29.9/FacialAge/BNav_EC2/DepthDuration/MX_fS_VE_MTurk/MX_fS_HTML.html#35,35,1912,966,1920,1080,1-8-2024,7-35-13,44,VR_target_stimuli/s12_0.75x_3.1_364.png,1000,0.75x,3.1,3.0,3654,993,meters,jsons/MX_seq0_0_VE1000.json,235919,708828,35,Man
44,836905,final-intermixed-textured,v2,jsons/MX_seq0_0_VE1000.json,http://54.235.29.9/FacialAge/BNav_EC2/DepthDuration/MX_fS_VE_MTurk/MX_fS_HTML.html#35,35,1912,966,1920,1080,1-8-2024,7-35-13,45,catch_stimuli/c4.png,1000,,,0.0,3060,999,meters,jsons/MX_seq0_0_VE1000.json,235919,708828,35,Man
45,836905,final-intermixed-textured,v2,jsons/MX_seq0_0_VE1000.json,http://54.235.29.9/FacialAge/BNav_EC2/DepthDuration/MX_fS_VE_MTurk/MX_fS_HTML.html#35,35,1912,966,1920,1080,1-8-2024,7-35-13,46,VR_target_stimuli/s30_1.3x_2.3_337_BC.png,1000,1.3x,2.3,3.0,2541,1005,meters,jsons/MX_seq0_0_VE1000.json,235919,708828,35,Man
46,836905,final-intermixed-textured,v2,jsons/MX_seq0_0_VE1000.json,http://54.235.29.9/FacialAge/BNav_EC2/DepthDuration/MX_fS_VE_MTurk/MX_fS_HTML.html#35,35,1912,966,1920,1080,1-8-2024,7-35-13,47,VR_target_stimuli/s16_1x_1_219_BC.png,1000,1x,1.0,2.0,3343,1011,meters,jsons/MX_seq0_0_VE1000.json,235919,708828,35,Man
47,836905,final-intermixed-textured,v2,jsons/MX_seq0_0_VE1000.json,http://54.235.29.9/FacialAge/BNav_EC2/DepthDuration/MX_fS_VE_MTurk/MX_fS_HTML.html#35,35,1912,966,1920,1080,1-8-2024,7-35-13,48,VR_target_stimuli/s17_1x_1.8_291.png,1000,1x,1.8,3.0,2445,996,meters,jsons/MX_seq0_0_VE1000.json,235919,708828,35,Man
48,836905,final-intermixed-textured,v2,jsons/MX_seq0_0_VE1000.json,http://54.235.29.9/FacialAge/BNav_EC2/DepthDuration/MX_fS_VE_MTurk/MX_fS_HTML.html#35,35,1912,966,1920,1080,1-8-2024,7-35-13,49,VR_target_stimuli/s5_0.75x_4_375_BC.png,1000,0.75x,4.0,5.0,2883,1002,meters,jsons/MX_seq0_0_VE1000.json,235919,708828,35,Man
49,836905,final-intermixed-textured,v2,jsons/MX_seq0_0_VE1000.json,http://54.235.29.9/FacialAge/BNav_EC2/DepthDuration/MX_fS_VE_MTurk/MX_fS_HTML.html#35,35,1912,966,1920,1080,1-8-2024,7-35-13,50,VR_target_stimuli/s37_1.3x_3.3_555.png,1000,1.3x,3.3,3.0,3310,995,meters,jsons/MX_seq0_0_VE1000.json,235919,708828,35,Man
50,836905,final-intermixed-textured,v2,jsons/MX_seq0_0_VE1000.json,http://54.235.29.9/FacialAge/BNav_EC2/DepthDuration/MX_fS_VE_MTurk/MX_fS_HTML.html#35,35,1912,966,1920,1080,1-8-2024,7-35-13,51,VR_target_stimuli/s46_0.75x_2.42_343.png,1000,0.75x,2.42,3.0,2853,1000,meters,jsons/MX_seq0_0_VE1000.json,235919,708828,35,Man
51,836905,final-intermixed-textured,v2,jsons/MX_seq0_0_VE1000.json,http://54.235.29.9/FacialAge/BNav_EC2/DepthDuration/MX_fS_VE_MTurk/MX_fS_HTML.html#35,35,1912,966,1920,1080,1-8-2024,7-35-13,52,VR_target_stimuli/s22_1x_4.29_354_BC.png,1000,1x,4.29,5.0,2707,1005,meters,jsons/MX_seq0_0_VE1000.json,235919,708828,35,Man
52,836905,final-intermixed-textured,v2,jsons/MX_seq0_0_VE1000.json,http://54.235.29.9/FacialAge/BNav_EC2/DepthDuration/MX_fS_VE_MTurk/MX_fS_HTML.html#35,35,1912,966,1920,1080,1-8-2024,7-35-13,53,catch_stimuli/c5.png,1000,,,0.0,3042,995,meters,jsons/MX_seq0_0_VE1000.json,235919,708828,35,Man
53,836905,final-intermixed-textured,v2,jsons/MX_seq0_0_VE1000.json,http://54.235.29.9/FacialAge/BNav_EC2/DepthDuration/MX_fS_VE_MTurk/MX_fS_HTML.html#35,35,1912,966,1920,1080,1-8-2024,7-35-13,54,VR_target_stimuli/s42_1.3x_3.2_305_BC.png,1000,1.3x,3.2,3.0,2633,1000,meters,jsons/MX_seq0_0_VE1000.json,235919,708828,35,Man
54,836905,final-intermixed-textured,v2,jsons/MX_seq0_0_VE1000.json,http://54.235.29.9/FacialAge/BNav_EC2/DepthDuration/MX_fS_VE_MTurk/MX_fS_HTML.html#35,35,1912,966,1920,1080,1-8-2024,7-35-13,55,VR_target_stimuli/s25_1x_1.4_290_BC.png,1000,1x,1.4,2.0,2562,995,meters,jsons/MX_seq0_0_VE1000.json,235919,708828,35,Man
55,836905,final-intermixed-textured,v2,jsons/MX_seq0_0_VE1000.json,http://54.235.29.9/FacialAge/BNav_EC2/DepthDuration/MX_fS_VE_MTurk/MX_fS_HTML.html#35,35,1912,966,1920,1080,1-8-2024,7-35-13,56,VR_target_stimuli/s50_0.75x_4.53_517.png,1000,0.75x,4.53,4.0,7030,999,meters,jsons/MX_seq0_0_VE1000.json,235919,708828,35,Man
56,836905,final-intermixed-textured,v2,jsons/MX_seq0_0_VE1000.json,http://54.235.29.9/FacialAge/BNav_EC2/DepthDuration/MX_fS_VE_MTurk/MX_fS_HTML.html#35,35,1912,966,1920,1080,1-8-2024,7-35-13,57,VR_target_stimuli/s53_1.3x_1.6_355.png,1000,1.3x,1.6,1.0,3411,1008,meters,jsons/MX_seq0_0_VE1000.json,235919,708828,35,Man
57,836905,final-intermixed-textured,v2,jsons/MX_seq0_0_VE1000.json,http://54.235.29.9/FacialAge/BNav_EC2/DepthDuration/MX_fS_VE_MTurk/MX_fS_HTML.html#35,35,1912,966,1920,1080,1-8-2024,7-35-13,58,VR_target_stimuli/s38_1.3x_3.55_358_BC.png,1000,1.3x,3.55,3.0,3024,1001,meters,jsons/MX_seq0_0_VE1000.json,235919,708828,35,Man
58,836905,final-intermixed-textured,v2,jsons/MX_seq0_0_VE1000.json,http://54.235.29.9/FacialAge/BNav_EC2/DepthDuration/MX_fS_VE_MTurk/MX_fS_HTML.html#35,35,1912,966,1920,1080,1-8-2024,7-35-13,59,VR_target_stimuli/s9_1x_1.2_263.png,1000,1x,1.2,3.0,2672,1001,meters,jsons/MX_seq0_0_VE1000.json,235919,708828,35,Man
59,836905,final-intermixed-textured,v2,jsons/MX_seq0_0_VE1000.json,http://54.235.29.9/FacialAge/BNav_EC2/DepthDuration/MX_fS_VE_MTurk/MX_fS_HTML.html#35,35,1912,966,1920,1080,1-8-2024,7-35-13,60,VR_target_stimuli/s44_0.75x_4.4_314_BC.png,1000,0.75x,4.4,5.0,2675,1003,meters,jsons/MX_seq0_0_VE1000.json,235919,708828,35,Man
