,subjID,experimentName,versionName,sequenceName,url,selected_row,windowWidth,windowHeight,screenWidth,screenHeight,startDate,startTime,trial,stimulus,duration,scale,actual_depth,depth_estimate,trial_RT,log_sceneDuration,unitSelection,seq_filepath,experimentTime,totalTime,age,gender
0,849063,final-intermixed-textured,v2,jsons/MX_seq23_2_VE1000.json,http://54.235.29.9/FacialAge/BNav_EC2/DepthDuration/MX_fS_VE_MTurk/MX_fS_HTML.html#228,228,1366,768,1366,768,1-8-2024,16-45-42,1,VR_target_stimuli/s31_1x_4.96_333_BC.png,1000,1x,4.96,10,4451,1010,meters,jsons/MX_seq23_2_VE1000.json,307319,582424,21,Woman
1,849063,final-intermixed-textured,v2,jsons/MX_seq23_2_VE1000.json,http://54.235.29.9/FacialAge/BNav_EC2/DepthDuration/MX_fS_VE_MTurk/MX_fS_HTML.html#228,228,1366,768,1366,768,1-8-2024,16-45-42,2,VR_target_stimuli/s33_1.3x_3.1_378.png,1000,1.3x,3.1,9,4605,1005,meters,jsons/MX_seq23_2_VE1000.json,307319,582424,21,Woman
2,849063,final-intermixed-textured,v2,jsons/MX_seq23_2_VE1000.json,http://54.235.29.9/FacialAge/BNav_EC2/DepthDuration/MX_fS_VE_MTurk/MX_fS_HTML.html#228,228,1366,768,1366,768,1-8-2024,16-45-42,3,VR_target_stimuli/s52_0.75x_3.2_270.png,1000,0.75x,3.2,9,4832,1004,meters,jsons/MX_seq23_2_VE1000.json,307319,582424,21,Woman
3,849063,final-intermixed-textured,v2,jsons/MX_seq23_2_VE1000.json,http://54.235.29.9/FacialAge/BNav_EC2/DepthDuration/MX_fS_VE_MTurk/MX_fS_HTML.html#228,228,1366,768,1366,768,1-8-2024,16-45-42,4,VR_target_stimuli/s32_1.3x_1.5_224_BC.png,1000,1.3x,1.5,4,4096,1006,meters,jsons/MX_seq23_2_VE1000.json,307319,582424,21,Woman
4,849063,final-intermixed-textured,v2,jsons/MX_seq23_2_VE1000.json,http://54.235.29.9/FacialAge/BNav_EC2/DepthDuration/MX_fS_VE_MTurk/MX_fS_HTML.html#228,228,1366,768,1366,768,1-8-2024,16-45-42,5,VR_target_stimuli/s18_1x_2.25_353.png,1000,1x,2.25,5,4782,989,meters,jsons/MX_seq23_2_VE1000.json,307319,582424,21,Woman
5,849063,final-intermixed-textured,v2,jsons/MX_seq23_2_VE1000.json,http://54.235.29.9/FacialAge/BNav_EC2/DepthDuration/MX_fS_VE_MTurk/MX_fS_HTML.html#228,228,1366,768,1366,768,1-8-2024,16-45-42,6,VR_target_stimuli/s39_0.75x_1_205_BC.png,1000,0.75x,1.0,3,4524,990,meters,jsons/MX_seq23_2_VE1000.json,307319,582424,21,Woman
6,849063,final-intermixed-textured,v2,jsons/MX_seq23_2_VE1000.json,http://54.235.29.9/FacialAge/BNav_EC2/DepthDuration/MX_fS_VE_MTurk/MX_fS_HTML.html#228,228,1366,768,1366,768,1-8-2024,16-45-42,7,catch_stimuli/c0.png,1000,,,0,4182,1004,meters,jsons/MX_seq23_2_VE1000.json,307319,582424,21,Woman
7,849063,final-intermixed-textured,v2,jsons/MX_seq23_2_VE1000.json,http://54.235.29.9/FacialAge/BNav_EC2/DepthDuration/MX_fS_VE_MTurk/MX_fS_HTML.html#228,228,1366,768,1366,768,1-8-2024,16-45-42,8,VR_target_stimuli/s51_0.75x_3.64_460.png,1000,0.75x,3.64,8,4348,1002,meters,jsons/MX_seq23_2_VE1000.json,307319,582424,21,Woman
8,849063,final-intermixed-textured,v2,jsons/MX_seq23_2_VE1000.json,http://54.235.29.9/FacialAge/BNav_EC2/DepthDuration/MX_fS_VE_MTurk/MX_fS_HTML.html#228,228,1366,768,1366,768,1-8-2024,16-45-42,9,VR_target_stimuli/s43_1.3x_2.2_363_BC.png,1000,1.3x,2.2,4,4597,1004,meters,jsons/MX_seq23_2_VE1000.json,307319,582424,21,Woman
9,849063,final-intermixed-textured,v2,jsons/MX_seq23_2_VE1000.json,http://54.235.29.9/FacialAge/BNav_EC2/DepthDuration/MX_fS_VE_MTurk/MX_fS_HTML.html#228,228,1366,768,1366,768,1-8-2024,16-45-42,10,VR_target_stimuli/s24_1x_3.3_349_BC.png,1000,1x,3.3,5,5641,990,meters,jsons/MX_seq23_2_VE1000.json,307319,582424,21,Woman
10,849063,final-intermixed-textured,v2,jsons/MX_seq23_2_VE1000.json,http://54.235.29.9/FacialAge/BNav_EC2/DepthDuration/MX_fS_VE_MTurk/MX_fS_HTML.html#228,228,1366,768,1366,768,1-8-2024,16-45-42,11,VR_target_stimuli/s10_1.3x_2.7_325.png,1000,1.3x,2.7,4,5404,1002,meters,jsons/MX_seq23_2_VE1000.json,307319,582424,21,Woman
11,849063,final-intermixed-textured,v2,jsons/MX_seq23_2_VE1000.json,http://54.235.29.9/FacialAge/BNav_EC2/DepthDuration/MX_fS_VE_MTurk/MX_fS_HTML.html#228,228,1366,768,1366,768,1-8-2024,16-45-42,12,VR_target_stimuli/s36_0.75x_4.1_407_BC.png,1000,0.75x,4.1,4,5232,956,meters,jsons/MX_seq23_2_VE1000.json,307319,582424,21,Woman
12,849063,final-intermixed-textured,v2,jsons/MX_seq23_2_VE1000.json,http://54.235.29.9/FacialAge/BNav_EC2/DepthDuration/MX_fS_VE_MTurk/MX_fS_HTML.html#228,228,1366,768,1366,768,1-8-2024,16-45-42,13,VR_target_stimuli/s40_1x_1.2_319.png,1000,1x,1.2,5,4987,981,meters,jsons/MX_seq23_2_VE1000.json,307319,582424,21,Woman
13,849063,final-intermixed-textured,v2,jsons/MX_seq23_2_VE1000.json,http://54.235.29.9/FacialAge/BNav_EC2/DepthDuration/MX_fS_VE_MTurk/MX_fS_HTML.html#228,228,1366,768,1366,768,1-8-2024,16-45-42,14,VR_target_stimuli/s41_0.75x_2.1_281.png,1000,0.75x,2.1,7,4759,953,meters,jsons/MX_seq23_2_VE1000.json,307319,582424,21,Woman
14,849063,final-intermixed-textured,v2,jsons/MX_seq23_2_VE1000.json,http://54.235.29.9/FacialAge/BNav_EC2/DepthDuration/MX_fS_VE_MTurk/MX_fS_HTML.html#228,228,1366,768,1366,768,1-8-2024,16-45-42,15,VR_target_stimuli/s45_1.3x_3.5_377.png,1000,1.3x,3.5,8,6352,997,meters,jsons/MX_seq23_2_VE1000.json,307319,582424,21,Woman
15,849063,final-intermixed-textured,v2,jsons/MX_seq23_2_VE1000.json,http://54.235.29.9/FacialAge/BNav_EC2/DepthDuration/MX_fS_VE_MTurk/MX_fS_HTML.html#228,228,1366,768,1366,768,1-8-2024,16-45-42,16,VR_target_stimuli/s23_1x_3.65_353_BC.png,1000,1x,3.65,0,5801,1078,meters,jsons/MX_seq23_2_VE1000.json,307319,582424,21,Woman
16,849063,final-intermixed-textured,v2,jsons/MX_seq23_2_VE1000.json,http://54.235.29.9/FacialAge/BNav_EC2/DepthDuration/MX_fS_VE_MTurk/MX_fS_HTML.html#228,228,1366,768,1366,768,1-8-2024,16-45-42,17,catch_stimuli/c1.png,1000,,,0,6343,1760,meters,jsons/MX_seq23_2_VE1000.json,307319,582424,21,Woman
17,849063,final-intermixed-textured,v2,jsons/MX_seq23_2_VE1000.json,http://54.235.29.9/FacialAge/BNav_EC2/DepthDuration/MX_fS_VE_MTurk/MX_fS_HTML.html#228,228,1366,768,1366,768,1-8-2024,16-45-42,18,VR_target_stimuli/s26_1x_4_433.png,1000,1x,4.0,8,4621,1003,meters,jsons/MX_seq23_2_VE1000.json,307319,582424,21,Woman
18,849063,final-intermixed-textured,v2,jsons/MX_seq23_2_VE1000.json,http://54.235.29.9/FacialAge/BNav_EC2/DepthDuration/MX_fS_VE_MTurk/MX_fS_HTML.html#228,228,1366,768,1366,768,1-8-2024,16-45-42,19,VR_target_stimuli/s12_0.75x_3.1_364_BC.png,1000,0.75x,3.1,9,4731,983,meters,jsons/MX_seq23_2_VE1000.json,307319,582424,21,Woman
19,849063,final-intermixed-textured,v2,jsons/MX_seq23_2_VE1000.json,http://54.235.29.9/FacialAge/BNav_EC2/DepthDuration/MX_fS_VE_MTurk/MX_fS_HTML.html#228,228,1366,768,1366,768,1-8-2024,16-45-42,20,VR_target_stimuli/s30_1.3x_2.3_337_BC.png,1000,1.3x,2.3,6,3891,1003,meters,jsons/MX_seq23_2_VE1000.json,307319,582424,21,Woman
20,849063,final-intermixed-textured,v2,jsons/MX_seq23_2_VE1000.json,http://54.235.29.9/FacialAge/BNav_EC2/DepthDuration/MX_fS_VE_MTurk/MX_fS_HTML.html#228,228,1366,768,1366,768,1-8-2024,16-45-42,21,VR_target_stimuli/s16_0.75x_1_217_BC.png,1000,0.75x,1.0,3,4173,1002,meters,jsons/MX_seq23_2_VE1000.json,307319,582424,21,Woman
21,849063,final-intermixed-textured,v2,jsons/MX_seq23_2_VE1000.json,http://54.235.29.9/FacialAge/BNav_EC2/DepthDuration/MX_fS_VE_MTurk/MX_fS_HTML.html#228,228,1366,768,1366,768,1-8-2024,16-45-42,22,VR_target_stimuli/s17_1x_1.8_291_BC.png,1000,1x,1.8,3,4474,1005,meters,jsons/MX_seq23_2_VE1000.json,307319,582424,21,Woman
22,849063,final-intermixed-textured,v2,jsons/MX_seq23_2_VE1000.json,http://54.235.29.9/FacialAge/BNav_EC2/DepthDuration/MX_fS_VE_MTurk/MX_fS_HTML.html#228,228,1366,768,1366,768,1-8-2024,16-45-42,23,VR_target_stimuli/s5_1.3x_4_393_BC.png,1000,1.3x,4.0,5,4073,989,meters,jsons/MX_seq23_2_VE1000.json,307319,582424,21,Woman
23,849063,final-intermixed-textured,v2,jsons/MX_seq23_2_VE1000.json,http://54.235.29.9/FacialAge/BNav_EC2/DepthDuration/MX_fS_VE_MTurk/MX_fS_HTML.html#228,228,1366,768,1366,768,1-8-2024,16-45-42,24,VR_target_stimuli/s37_1x_3.3_563.png,1000,1x,3.3,4,4006,984,meters,jsons/MX_seq23_2_VE1000.json,307319,582424,21,Woman
24,849063,final-intermixed-textured,v2,jsons/MX_seq23_2_VE1000.json,http://54.235.29.9/FacialAge/BNav_EC2/DepthDuration/MX_fS_VE_MTurk/MX_fS_HTML.html#228,228,1366,768,1366,768,1-8-2024,16-45-42,25,VR_target_stimuli/s46_0.75x_2.42_343.png,1000,0.75x,2.42,7,3908,1002,meters,jsons/MX_seq23_2_VE1000.json,307319,582424,21,Woman
25,849063,final-intermixed-textured,v2,jsons/MX_seq23_2_VE1000.json,http://54.235.29.9/FacialAge/BNav_EC2/DepthDuration/MX_fS_VE_MTurk/MX_fS_HTML.html#228,228,1366,768,1366,768,1-8-2024,16-45-42,26,catch_stimuli/c2.png,1000,,,0,3709,1006,meters,jsons/MX_seq23_2_VE1000.json,307319,582424,21,Woman
26,849063,final-intermixed-textured,v2,jsons/MX_seq23_2_VE1000.json,http://54.235.29.9/FacialAge/BNav_EC2/DepthDuration/MX_fS_VE_MTurk/MX_fS_HTML.html#228,228,1366,768,1366,768,1-8-2024,16-45-42,27,VR_target_stimuli/s22_1.3x_4.29_364.png,1000,1.3x,4.29,9,4354,990,meters,jsons/MX_seq23_2_VE1000.json,307319,582424,21,Woman
27,849063,final-intermixed-textured,v2,jsons/MX_seq23_2_VE1000.json,http://54.235.29.9/FacialAge/BNav_EC2/DepthDuration/MX_fS_VE_MTurk/MX_fS_HTML.html#228,228,1366,768,1366,768,1-8-2024,16-45-42,28,VR_target_stimuli/s42_1.3x_3.2_305.png,1000,1.3x,3.2,9,4969,1003,meters,jsons/MX_seq23_2_VE1000.json,307319,582424,21,Woman
28,849063,final-intermixed-textured,v2,jsons/MX_seq23_2_VE1000.json,http://54.235.29.9/FacialAge/BNav_EC2/DepthDuration/MX_fS_VE_MTurk/MX_fS_HTML.html#228,228,1366,768,1366,768,1-8-2024,16-45-42,29,VR_target_stimuli/s25_1x_1.4_290.png,1000,1x,1.4,6,4043,1004,meters,jsons/MX_seq23_2_VE1000.json,307319,582424,21,Woman
29,849063,final-intermixed-textured,v2,jsons/MX_seq23_2_VE1000.json,http://54.235.29.9/FacialAge/BNav_EC2/DepthDuration/MX_fS_VE_MTurk/MX_fS_HTML.html#228,228,1366,768,1366,768,1-8-2024,16-45-42,30,VR_target_stimuli/s50_0.75x_4.53_517_BC.png,1000,0.75x,4.53,7,4412,1005,meters,jsons/MX_seq23_2_VE1000.json,307319,582424,21,Woman
30,849063,final-intermixed-textured,v2,jsons/MX_seq23_2_VE1000.json,http://54.235.29.9/FacialAge/BNav_EC2/DepthDuration/MX_fS_VE_MTurk/MX_fS_HTML.html#228,228,1366,768,1366,768,1-8-2024,16-45-42,31,VR_target_stimuli/s53_1.3x_1.6_355_BC.png,1000,1.3x,1.6,6,4064,1005,meters,jsons/MX_seq23_2_VE1000.json,307319,582424,21,Woman
31,849063,final-intermixed-textured,v2,jsons/MX_seq23_2_VE1000.json,http://54.235.29.9/FacialAge/BNav_EC2/DepthDuration/MX_fS_VE_MTurk/MX_fS_HTML.html#228,228,1366,768,1366,768,1-8-2024,16-45-42,32,VR_target_stimuli/s38_0.75x_3.55_346.png,1000,0.75x,3.55,8,5220,1005,meters,jsons/MX_seq23_2_VE1000.json,307319,582424,21,Woman
32,849063,final-intermixed-textured,v2,jsons/MX_seq23_2_VE1000.json,http://54.235.29.9/FacialAge/BNav_EC2/DepthDuration/MX_fS_VE_MTurk/MX_fS_HTML.html#228,228,1366,768,1366,768,1-8-2024,16-45-42,33,VR_target_stimuli/s9_1x_1.2_263_BC.png,1000,1x,1.2,5,5425,1003,meters,jsons/MX_seq23_2_VE1000.json,307319,582424,21,Woman
33,849063,final-intermixed-textured,v2,jsons/MX_seq23_2_VE1000.json,http://54.235.29.9/FacialAge/BNav_EC2/DepthDuration/MX_fS_VE_MTurk/MX_fS_HTML.html#228,228,1366,768,1366,768,1-8-2024,16-45-42,34,catch_stimuli/c3.png,1000,,,0,4214,1007,meters,jsons/MX_seq23_2_VE1000.json,307319,582424,21,Woman
34,849063,final-intermixed-textured,v2,jsons/MX_seq23_2_VE1000.json,http://54.235.29.9/FacialAge/BNav_EC2/DepthDuration/MX_fS_VE_MTurk/MX_fS_HTML.html#228,228,1366,768,1366,768,1-8-2024,16-45-42,35,VR_target_stimuli/s44_0.75x_4.4_314_BC.png,1000,0.75x,4.4,10,4988,989,meters,jsons/MX_seq23_2_VE1000.json,307319,582424,21,Woman
35,849063,final-intermixed-textured,v2,jsons/MX_seq23_2_VE1000.json,http://54.235.29.9/FacialAge/BNav_EC2/DepthDuration/MX_fS_VE_MTurk/MX_fS_HTML.html#228,228,1366,768,1366,768,1-8-2024,16-45-42,36,VR_target_stimuli/s3_1.3x_5_390_BC.png,1000,1.3x,5.0,10,4974,1001,meters,jsons/MX_seq23_2_VE1000.json,307319,582424,21,Woman
36,849063,final-intermixed-textured,v2,jsons/MX_seq23_2_VE1000.json,http://54.235.29.9/FacialAge/BNav_EC2/DepthDuration/MX_fS_VE_MTurk/MX_fS_HTML.html#228,228,1366,768,1366,768,1-8-2024,16-45-42,37,VR_target_stimuli/s1_1x_1.7_262.png,1000,1x,1.7,4,4642,986,meters,jsons/MX_seq23_2_VE1000.json,307319,582424,21,Woman
37,849063,final-intermixed-textured,v2,jsons/MX_seq23_2_VE1000.json,http://54.235.29.9/FacialAge/BNav_EC2/DepthDuration/MX_fS_VE_MTurk/MX_fS_HTML.html#228,228,1366,768,1366,768,1-8-2024,16-45-42,38,VR_target_stimuli/s11_1x_5_361_BC.png,1000,1x,5.0,5,5624,1004,meters,jsons/MX_seq23_2_VE1000.json,307319,582424,21,Woman
38,849063,final-intermixed-textured,v2,jsons/MX_seq23_2_VE1000.json,http://54.235.29.9/FacialAge/BNav_EC2/DepthDuration/MX_fS_VE_MTurk/MX_fS_HTML.html#228,228,1366,768,1366,768,1-8-2024,16-45-42,39,VR_target_stimuli/s2_0.75x_2.7_384.png,1000,0.75x,2.7,4,3867,992,meters,jsons/MX_seq23_2_VE1000.json,307319,582424,21,Woman
39,849063,final-intermixed-textured,v2,jsons/MX_seq23_2_VE1000.json,http://54.235.29.9/FacialAge/BNav_EC2/DepthDuration/MX_fS_VE_MTurk/MX_fS_HTML.html#228,228,1366,768,1366,768,1-8-2024,16-45-42,40,VR_target_stimuli/s6_1.3x_2.1_298.png,1000,1.3x,2.1,5,4273,1005,meters,jsons/MX_seq23_2_VE1000.json,307319,582424,21,Woman
40,849063,final-intermixed-textured,v2,jsons/MX_seq23_2_VE1000.json,http://54.235.29.9/FacialAge/BNav_EC2/DepthDuration/MX_fS_VE_MTurk/MX_fS_HTML.html#228,228,1366,768,1366,768,1-8-2024,16-45-42,41,VR_target_stimuli/s0_0.75x_2.6_345.png,1000,0.75x,2.6,7,3667,1005,meters,jsons/MX_seq23_2_VE1000.json,307319,582424,21,Woman
41,849063,final-intermixed-textured,v2,jsons/MX_seq23_2_VE1000.json,http://54.235.29.9/FacialAge/BNav_EC2/DepthDuration/MX_fS_VE_MTurk/MX_fS_HTML.html#228,228,1366,768,1366,768,1-8-2024,16-45-42,42,VR_target_stimuli/s34_1x_2.8_283_BC.png,1000,1x,2.8,8,3744,1005,meters,jsons/MX_seq23_2_VE1000.json,307319,582424,21,Woman
42,849063,final-intermixed-textured,v2,jsons/MX_seq23_2_VE1000.json,http://54.235.29.9/FacialAge/BNav_EC2/DepthDuration/MX_fS_VE_MTurk/MX_fS_HTML.html#228,228,1366,768,1366,768,1-8-2024,16-45-42,43,VR_target_stimuli/s13_1.3x_2.4_313.png,1000,1.3x,2.4,7,4027,1004,meters,jsons/MX_seq23_2_VE1000.json,307319,582424,21,Woman
43,849063,final-intermixed-textured,v2,jsons/MX_seq23_2_VE1000.json,http://54.235.29.9/FacialAge/BNav_EC2/DepthDuration/MX_fS_VE_MTurk/MX_fS_HTML.html#228,228,1366,768,1366,768,1-8-2024,16-45-42,44,VR_target_stimuli/s14_1x_ 3.83_357.png,1000,1x,3.83,9,4829,990,meters,jsons/MX_seq23_2_VE1000.json,307319,582424,21,Woman
44,849063,final-intermixed-textured,v2,jsons/MX_seq23_2_VE1000.json,http://54.235.29.9/FacialAge/BNav_EC2/DepthDuration/MX_fS_VE_MTurk/MX_fS_HTML.html#228,228,1366,768,1366,768,1-8-2024,16-45-42,45,catch_stimuli/c4.png,1000,,,0,4001,982,meters,jsons/MX_seq23_2_VE1000.json,307319,582424,21,Woman
45,849063,final-intermixed-textured,v2,jsons/MX_seq23_2_VE1000.json,http://54.235.29.9/FacialAge/BNav_EC2/DepthDuration/MX_fS_VE_MTurk/MX_fS_HTML.html#228,228,1366,768,1366,768,1-8-2024,16-45-42,46,VR_target_stimuli/s47_0.75x_3.45_366_BC.png,1000,0.75x,3.45,7,4046,1005,meters,jsons/MX_seq23_2_VE1000.json,307319,582424,21,Woman
46,849063,final-intermixed-textured,v2,jsons/MX_seq23_2_VE1000.json,http://54.235.29.9/FacialAge/BNav_EC2/DepthDuration/MX_fS_VE_MTurk/MX_fS_HTML.html#228,228,1366,768,1366,768,1-8-2024,16-45-42,47,VR_target_stimuli/s29_1.3x_1.3_253_BC.png,1000,1.3x,1.3,4,3740,987,meters,jsons/MX_seq23_2_VE1000.json,307319,582424,21,Woman
47,849063,final-intermixed-textured,v2,jsons/MX_seq23_2_VE1000.json,http://54.235.29.9/FacialAge/BNav_EC2/DepthDuration/MX_fS_VE_MTurk/MX_fS_HTML.html#228,228,1366,768,1366,768,1-8-2024,16-45-42,48,VR_target_stimuli/s28_1.3x_3.2_365.png,1000,1.3x,3.2,8,3869,990,meters,jsons/MX_seq23_2_VE1000.json,307319,582424,21,Woman
48,849063,final-intermixed-textured,v2,jsons/MX_seq23_2_VE1000.json,http://54.235.29.9/FacialAge/BNav_EC2/DepthDuration/MX_fS_VE_MTurk/MX_fS_HTML.html#228,228,1366,768,1366,768,1-8-2024,16-45-42,49,VR_target_stimuli/s48_1x_2.55_256.png,1000,1x,2.55,6,4765,1004,meters,jsons/MX_seq23_2_VE1000.json,307319,582424,21,Woman
49,849063,final-intermixed-textured,v2,jsons/MX_seq23_2_VE1000.json,http://54.235.29.9/FacialAge/BNav_EC2/DepthDuration/MX_fS_VE_MTurk/MX_fS_HTML.html#228,228,1366,768,1366,768,1-8-2024,16-45-42,50,VR_target_stimuli/s19_0.75x_1.21_257_BC.png,1000,0.75x,1.21,5,4050,990,meters,jsons/MX_seq23_2_VE1000.json,307319,582424,21,Woman
50,849063,final-intermixed-textured,v2,jsons/MX_seq23_2_VE1000.json,http://54.235.29.9/FacialAge/BNav_EC2/DepthDuration/MX_fS_VE_MTurk/MX_fS_HTML.html#228,228,1366,768,1366,768,1-8-2024,16-45-42,51,VR_target_stimuli/s21_1x_4.22_379_BC.png,1000,1x,4.22,12,4251,990,meters,jsons/MX_seq23_2_VE1000.json,307319,582424,21,Woman
51,849063,final-intermixed-textured,v2,jsons/MX_seq23_2_VE1000.json,http://54.235.29.9/FacialAge/BNav_EC2/DepthDuration/MX_fS_VE_MTurk/MX_fS_HTML.html#228,228,1366,768,1366,768,1-8-2024,16-45-42,52,VR_target_stimuli/s8_1.3x_3.1_345_BC.png,1000,1.3x,3.1,9,4199,1006,meters,jsons/MX_seq23_2_VE1000.json,307319,582424,21,Woman
52,849063,final-intermixed-textured,v2,jsons/MX_seq23_2_VE1000.json,http://54.235.29.9/FacialAge/BNav_EC2/DepthDuration/MX_fS_VE_MTurk/MX_fS_HTML.html#228,228,1366,768,1366,768,1-8-2024,16-45-42,53,catch_stimuli/c5.png,1000,,,0,3696,990,meters,jsons/MX_seq23_2_VE1000.json,307319,582424,21,Woman
53,849063,final-intermixed-textured,v2,jsons/MX_seq23_2_VE1000.json,http://54.235.29.9/FacialAge/BNav_EC2/DepthDuration/MX_fS_VE_MTurk/MX_fS_HTML.html#228,228,1366,768,1366,768,1-8-2024,16-45-42,54,VR_target_stimuli/s27_0.75x_1.76_243.png,1000,0.75x,1.76,6,4694,1006,meters,jsons/MX_seq23_2_VE1000.json,307319,582424,21,Woman
54,849063,final-intermixed-textured,v2,jsons/MX_seq23_2_VE1000.json,http://54.235.29.9/FacialAge/BNav_EC2/DepthDuration/MX_fS_VE_MTurk/MX_fS_HTML.html#228,228,1366,768,1366,768,1-8-2024,16-45-42,55,VR_target_stimuli/s15_1.3x_4.2_389_BC.png,1000,1.3x,4.2,10,4785,1000,meters,jsons/MX_seq23_2_VE1000.json,307319,582424,21,Woman
55,849063,final-intermixed-textured,v2,jsons/MX_seq23_2_VE1000.json,http://54.235.29.9/FacialAge/BNav_EC2/DepthDuration/MX_fS_VE_MTurk/MX_fS_HTML.html#228,228,1366,768,1366,768,1-8-2024,16-45-42,56,VR_target_stimuli/s4_1x_1.4_313_BC.png,1000,1x,1.4,4,7304,989,meters,jsons/MX_seq23_2_VE1000.json,307319,582424,21,Woman
56,849063,final-intermixed-textured,v2,jsons/MX_seq23_2_VE1000.json,http://54.235.29.9/FacialAge/BNav_EC2/DepthDuration/MX_fS_VE_MTurk/MX_fS_HTML.html#228,228,1366,768,1366,768,1-8-2024,16-45-42,57,VR_target_stimuli/s35_0.75x_2_323_BC.png,1000,0.75x,2.0,5,4342,987,meters,jsons/MX_seq23_2_VE1000.json,307319,582424,21,Woman
57,849063,final-intermixed-textured,v2,jsons/MX_seq23_2_VE1000.json,http://54.235.29.9/FacialAge/BNav_EC2/DepthDuration/MX_fS_VE_MTurk/MX_fS_HTML.html#228,228,1366,768,1366,768,1-8-2024,16-45-42,58,VR_target_stimuli/s49_0.75x_4.67_328.png,1000,0.75x,4.67,6,6002,1004,meters,jsons/MX_seq23_2_VE1000.json,307319,582424,21,Woman
58,849063,final-intermixed-textured,v2,jsons/MX_seq23_2_VE1000.json,http://54.235.29.9/FacialAge/BNav_EC2/DepthDuration/MX_fS_VE_MTurk/MX_fS_HTML.html#228,228,1366,768,1366,768,1-8-2024,16-45-42,59,VR_target_stimuli/s7_1.3x_1.5_256.png,1000,1.3x,1.5,3,4155,1005,meters,jsons/MX_seq23_2_VE1000.json,307319,582424,21,Woman
59,849063,final-intermixed-textured,v2,jsons/MX_seq23_2_VE1000.json,http://54.235.29.9/FacialAge/BNav_EC2/DepthDuration/MX_fS_VE_MTurk/MX_fS_HTML.html#228,228,1366,768,1366,768,1-8-2024,16-45-42,60,VR_target_stimuli/s20_1x_4.99_398.png,1000,1x,4.99,13,4709,1000,meters,jsons/MX_seq23_2_VE1000.json,307319,582424,21,Woman
