,subjID,experimentName,versionName,sequenceName,url,selected_row,windowWidth,windowHeight,screenWidth,screenHeight,startDate,startTime,trial,stimulus,duration,scale,actual_depth,depth_estimate,trial_RT,log_sceneDuration,unitSelection,seq_filepath,experimentTime,totalTime,age,gender
0,850765,final-intermixed-textured,v2,jsons/MX_seq9_0_VE1000.json,http://54.235.29.9/FacialAge/BNav_EC2/DepthDuration/MX_fS_VE_MTurk/MX_fS_HTML.html#101,101,1366,768,1366,768,1-8-2024,15-0-37,1,VR_target_stimuli/s47_0.75x_3.45_366.png,1000,0.75x,3.45,5,8511,999,meters,jsons/MX_seq9_0_VE1000.json,398560,1286506,28,Man
1,850765,final-intermixed-textured,v2,jsons/MX_seq9_0_VE1000.json,http://54.235.29.9/FacialAge/BNav_EC2/DepthDuration/MX_fS_VE_MTurk/MX_fS_HTML.html#101,101,1366,768,1366,768,1-8-2024,15-0-37,2,VR_target_stimuli/s29_1x_1.3_250.png,1000,1x,1.3,5,6485,998,meters,jsons/MX_seq9_0_VE1000.json,398560,1286506,28,Man
2,850765,final-intermixed-textured,v2,jsons/MX_seq9_0_VE1000.json,http://54.235.29.9/FacialAge/BNav_EC2/DepthDuration/MX_fS_VE_MTurk/MX_fS_HTML.html#101,101,1366,768,1366,768,1-8-2024,15-0-37,3,VR_target_stimuli/s28_1.3x_3.2_365_BC.png,1000,1.3x,3.2,6,7032,999,meters,jsons/MX_seq9_0_VE1000.json,398560,1286506,28,Man
3,850765,final-intermixed-textured,v2,jsons/MX_seq9_0_VE1000.json,http://54.235.29.9/FacialAge/BNav_EC2/DepthDuration/MX_fS_VE_MTurk/MX_fS_HTML.html#101,101,1366,768,1366,768,1-8-2024,15-0-37,4,VR_target_stimuli/s48_1x_2.55_256_BC.png,1000,1x,2.55,6,6267,1007,meters,jsons/MX_seq9_0_VE1000.json,398560,1286506,28,Man
4,850765,final-intermixed-textured,v2,jsons/MX_seq9_0_VE1000.json,http://54.235.29.9/FacialAge/BNav_EC2/DepthDuration/MX_fS_VE_MTurk/MX_fS_HTML.html#101,101,1366,768,1366,768,1-8-2024,15-0-37,5,VR_target_stimuli/s19_0.75x_1.21_257_BC.png,1000,0.75x,1.21,4,5264,997,meters,jsons/MX_seq9_0_VE1000.json,398560,1286506,28,Man
5,850765,final-intermixed-textured,v2,jsons/MX_seq9_0_VE1000.json,http://54.235.29.9/FacialAge/BNav_EC2/DepthDuration/MX_fS_VE_MTurk/MX_fS_HTML.html#101,101,1366,768,1366,768,1-8-2024,15-0-37,6,VR_target_stimuli/s21_1.3x_4.22_384.png,1000,1.3x,4.22,10,5627,1007,meters,jsons/MX_seq9_0_VE1000.json,398560,1286506,28,Man
6,850765,final-intermixed-textured,v2,jsons/MX_seq9_0_VE1000.json,http://54.235.29.9/FacialAge/BNav_EC2/DepthDuration/MX_fS_VE_MTurk/MX_fS_HTML.html#101,101,1366,768,1366,768,1-8-2024,15-0-37,7,catch_stimuli/c0.png,1000,,,0,5534,1004,meters,jsons/MX_seq9_0_VE1000.json,398560,1286506,28,Man
7,850765,final-intermixed-textured,v2,jsons/MX_seq9_0_VE1000.json,http://54.235.29.9/FacialAge/BNav_EC2/DepthDuration/MX_fS_VE_MTurk/MX_fS_HTML.html#101,101,1366,768,1366,768,1-8-2024,15-0-37,8,VR_target_stimuli/s8_1.3x_3.1_345_BC.png,1000,1.3x,3.1,7,7756,997,meters,jsons/MX_seq9_0_VE1000.json,398560,1286506,28,Man
8,850765,final-intermixed-textured,v2,jsons/MX_seq9_0_VE1000.json,http://54.235.29.9/FacialAge/BNav_EC2/DepthDuration/MX_fS_VE_MTurk/MX_fS_HTML.html#101,101,1366,768,1366,768,1-8-2024,15-0-37,9,VR_target_stimuli/s27_1x_1.76_248_BC.png,1000,1x,1.76,5,6333,988,meters,jsons/MX_seq9_0_VE1000.json,398560,1286506,28,Man
9,850765,final-intermixed-textured,v2,jsons/MX_seq9_0_VE1000.json,http://54.235.29.9/FacialAge/BNav_EC2/DepthDuration/MX_fS_VE_MTurk/MX_fS_HTML.html#101,101,1366,768,1366,768,1-8-2024,15-0-37,10,VR_target_stimuli/s15_0.75x_4.2_388_BC.png,1000,0.75x,4.2,10,6055,1002,meters,jsons/MX_seq9_0_VE1000.json,398560,1286506,28,Man
10,850765,final-intermixed-textured,v2,jsons/MX_seq9_0_VE1000.json,http://54.235.29.9/FacialAge/BNav_EC2/DepthDuration/MX_fS_VE_MTurk/MX_fS_HTML.html#101,101,1366,768,1366,768,1-8-2024,15-0-37,11,VR_target_stimuli/s4_1x_1.4_313.png,1000,1x,1.4,6,6313,1010,meters,jsons/MX_seq9_0_VE1000.json,398560,1286506,28,Man
11,850765,final-intermixed-textured,v2,jsons/MX_seq9_0_VE1000.json,http://54.235.29.9/FacialAge/BNav_EC2/DepthDuration/MX_fS_VE_MTurk/MX_fS_HTML.html#101,101,1366,768,1366,768,1-8-2024,15-0-37,12,VR_target_stimuli/s35_1.3x_2_338.png,1000,1.3x,2.0,7,6158,1004,meters,jsons/MX_seq9_0_VE1000.json,398560,1286506,28,Man
12,850765,final-intermixed-textured,v2,jsons/MX_seq9_0_VE1000.json,http://54.235.29.9/FacialAge/BNav_EC2/DepthDuration/MX_fS_VE_MTurk/MX_fS_HTML.html#101,101,1366,768,1366,768,1-8-2024,15-0-37,13,VR_target_stimuli/s49_0.75x_4.67_328.png,1000,0.75x,4.67,8,5652,986,meters,jsons/MX_seq9_0_VE1000.json,398560,1286506,28,Man
13,850765,final-intermixed-textured,v2,jsons/MX_seq9_0_VE1000.json,http://54.235.29.9/FacialAge/BNav_EC2/DepthDuration/MX_fS_VE_MTurk/MX_fS_HTML.html#101,101,1366,768,1366,768,1-8-2024,15-0-37,14,VR_target_stimuli/s7_1.3x_1.5_256.png,1000,1.3x,1.5,5,5159,995,meters,jsons/MX_seq9_0_VE1000.json,398560,1286506,28,Man
14,850765,final-intermixed-textured,v2,jsons/MX_seq9_0_VE1000.json,http://54.235.29.9/FacialAge/BNav_EC2/DepthDuration/MX_fS_VE_MTurk/MX_fS_HTML.html#101,101,1366,768,1366,768,1-8-2024,15-0-37,15,VR_target_stimuli/s20_1x_4.99_398_BC.png,1000,1x,4.99,9,5541,995,meters,jsons/MX_seq9_0_VE1000.json,398560,1286506,28,Man
15,850765,final-intermixed-textured,v2,jsons/MX_seq9_0_VE1000.json,http://54.235.29.9/FacialAge/BNav_EC2/DepthDuration/MX_fS_VE_MTurk/MX_fS_HTML.html#101,101,1366,768,1366,768,1-8-2024,15-0-37,16,VR_target_stimuli/s31_0.75x_4.96_329_BC.png,1000,0.75x,4.96,7,5405,1000,meters,jsons/MX_seq9_0_VE1000.json,398560,1286506,28,Man
16,850765,final-intermixed-textured,v2,jsons/MX_seq9_0_VE1000.json,http://54.235.29.9/FacialAge/BNav_EC2/DepthDuration/MX_fS_VE_MTurk/MX_fS_HTML.html#101,101,1366,768,1366,768,1-8-2024,15-0-37,17,catch_stimuli/c1.png,1000,,,0,5482,1000,meters,jsons/MX_seq9_0_VE1000.json,398560,1286506,28,Man
17,850765,final-intermixed-textured,v2,jsons/MX_seq9_0_VE1000.json,http://54.235.29.9/FacialAge/BNav_EC2/DepthDuration/MX_fS_VE_MTurk/MX_fS_HTML.html#101,101,1366,768,1366,768,1-8-2024,15-0-37,18,VR_target_stimuli/s33_0.75x_3.1_361.png,1000,0.75x,3.1,8,5884,996,meters,jsons/MX_seq9_0_VE1000.json,398560,1286506,28,Man
18,850765,final-intermixed-textured,v2,jsons/MX_seq9_0_VE1000.json,http://54.235.29.9/FacialAge/BNav_EC2/DepthDuration/MX_fS_VE_MTurk/MX_fS_HTML.html#101,101,1366,768,1366,768,1-8-2024,15-0-37,19,VR_target_stimuli/s52_1.3x_3.2_280_BC.png,1000,1.3x,3.2,9,6053,992,meters,jsons/MX_seq9_0_VE1000.json,398560,1286506,28,Man
19,850765,final-intermixed-textured,v2,jsons/MX_seq9_0_VE1000.json,http://54.235.29.9/FacialAge/BNav_EC2/DepthDuration/MX_fS_VE_MTurk/MX_fS_HTML.html#101,101,1366,768,1366,768,1-8-2024,15-0-37,20,VR_target_stimuli/s32_1x_1.5_218.png,1000,1x,1.5,9,5505,999,meters,jsons/MX_seq9_0_VE1000.json,398560,1286506,28,Man
20,850765,final-intermixed-textured,v2,jsons/MX_seq9_0_VE1000.json,http://54.235.29.9/FacialAge/BNav_EC2/DepthDuration/MX_fS_VE_MTurk/MX_fS_HTML.html#101,101,1366,768,1366,768,1-8-2024,15-0-37,21,VR_target_stimuli/s18_1.3x_2.25_368.png,1000,1.3x,2.25,6,5842,1006,meters,jsons/MX_seq9_0_VE1000.json,398560,1286506,28,Man
21,850765,final-intermixed-textured,v2,jsons/MX_seq9_0_VE1000.json,http://54.235.29.9/FacialAge/BNav_EC2/DepthDuration/MX_fS_VE_MTurk/MX_fS_HTML.html#101,101,1366,768,1366,768,1-8-2024,15-0-37,22,VR_target_stimuli/s39_0.75x_1_205_BC.png,1000,0.75x,1.0,4,5716,1002,meters,jsons/MX_seq9_0_VE1000.json,398560,1286506,28,Man
22,850765,final-intermixed-textured,v2,jsons/MX_seq9_0_VE1000.json,http://54.235.29.9/FacialAge/BNav_EC2/DepthDuration/MX_fS_VE_MTurk/MX_fS_HTML.html#101,101,1366,768,1366,768,1-8-2024,15-0-37,23,VR_target_stimuli/s51_1x_3.64_461_BC.png,1000,1x,3.64,5,5656,1004,meters,jsons/MX_seq9_0_VE1000.json,398560,1286506,28,Man
23,850765,final-intermixed-textured,v2,jsons/MX_seq9_0_VE1000.json,http://54.235.29.9/FacialAge/BNav_EC2/DepthDuration/MX_fS_VE_MTurk/MX_fS_HTML.html#101,101,1366,768,1366,768,1-8-2024,15-0-37,24,VR_target_stimuli/s43_0.75x_2.2_348.png,1000,0.75x,2.2,7,6776,1012,meters,jsons/MX_seq9_0_VE1000.json,398560,1286506,28,Man
24,850765,final-intermixed-textured,v2,jsons/MX_seq9_0_VE1000.json,http://54.235.29.9/FacialAge/BNav_EC2/DepthDuration/MX_fS_VE_MTurk/MX_fS_HTML.html#101,101,1366,768,1366,768,1-8-2024,15-0-37,25,VR_target_stimuli/s24_1.3x_3.3_352_BC.png,1000,1.3x,3.3,6,5735,994,meters,jsons/MX_seq9_0_VE1000.json,398560,1286506,28,Man
25,850765,final-intermixed-textured,v2,jsons/MX_seq9_0_VE1000.json,http://54.235.29.9/FacialAge/BNav_EC2/DepthDuration/MX_fS_VE_MTurk/MX_fS_HTML.html#101,101,1366,768,1366,768,1-8-2024,15-0-37,26,catch_stimuli/c2.png,1000,,,0,5950,1005,meters,jsons/MX_seq9_0_VE1000.json,398560,1286506,28,Man
26,850765,final-intermixed-textured,v2,jsons/MX_seq9_0_VE1000.json,http://54.235.29.9/FacialAge/BNav_EC2/DepthDuration/MX_fS_VE_MTurk/MX_fS_HTML.html#101,101,1366,768,1366,768,1-8-2024,15-0-37,27,VR_target_stimuli/s10_1x_2.7_324.png,1000,1x,2.7,8,6067,1004,meters,jsons/MX_seq9_0_VE1000.json,398560,1286506,28,Man
27,850765,final-intermixed-textured,v2,jsons/MX_seq9_0_VE1000.json,http://54.235.29.9/FacialAge/BNav_EC2/DepthDuration/MX_fS_VE_MTurk/MX_fS_HTML.html#101,101,1366,768,1366,768,1-8-2024,15-0-37,28,VR_target_stimuli/s36_1x_4.1_423.png,1000,1x,4.1,8,5538,1000,meters,jsons/MX_seq9_0_VE1000.json,398560,1286506,28,Man
28,850765,final-intermixed-textured,v2,jsons/MX_seq9_0_VE1000.json,http://54.235.29.9/FacialAge/BNav_EC2/DepthDuration/MX_fS_VE_MTurk/MX_fS_HTML.html#101,101,1366,768,1366,768,1-8-2024,15-0-37,29,VR_target_stimuli/s40_0.75x_1.2_308_BC.png,1000,0.75x,1.2,4,5055,1004,meters,jsons/MX_seq9_0_VE1000.json,398560,1286506,28,Man
29,850765,final-intermixed-textured,v2,jsons/MX_seq9_0_VE1000.json,http://54.235.29.9/FacialAge/BNav_EC2/DepthDuration/MX_fS_VE_MTurk/MX_fS_HTML.html#101,101,1366,768,1366,768,1-8-2024,15-0-37,30,VR_target_stimuli/s41_1.3x_2.1_294.png,1000,1.3x,2.1,5,5445,997,meters,jsons/MX_seq9_0_VE1000.json,398560,1286506,28,Man
30,850765,final-intermixed-textured,v2,jsons/MX_seq9_0_VE1000.json,http://54.235.29.9/FacialAge/BNav_EC2/DepthDuration/MX_fS_VE_MTurk/MX_fS_HTML.html#101,101,1366,768,1366,768,1-8-2024,15-0-37,31,VR_target_stimuli/s45_1x_3.5_368_BC.png,1000,1x,3.5,6,6751,995,meters,jsons/MX_seq9_0_VE1000.json,398560,1286506,28,Man
31,850765,final-intermixed-textured,v2,jsons/MX_seq9_0_VE1000.json,http://54.235.29.9/FacialAge/BNav_EC2/DepthDuration/MX_fS_VE_MTurk/MX_fS_HTML.html#101,101,1366,768,1366,768,1-8-2024,15-0-37,32,VR_target_stimuli/s23_1.3x_3.65_354_BC.png,1000,1.3x,3.65,6,5685,1006,meters,jsons/MX_seq9_0_VE1000.json,398560,1286506,28,Man
32,850765,final-intermixed-textured,v2,jsons/MX_seq9_0_VE1000.json,http://54.235.29.9/FacialAge/BNav_EC2/DepthDuration/MX_fS_VE_MTurk/MX_fS_HTML.html#101,101,1366,768,1366,768,1-8-2024,15-0-37,33,VR_target_stimuli/s26_0.75x_4_430.png,1000,0.75x,4.0,7,5473,1006,meters,jsons/MX_seq9_0_VE1000.json,398560,1286506,28,Man
33,850765,final-intermixed-textured,v2,jsons/MX_seq9_0_VE1000.json,http://54.235.29.9/FacialAge/BNav_EC2/DepthDuration/MX_fS_VE_MTurk/MX_fS_HTML.html#101,101,1366,768,1366,768,1-8-2024,15-0-37,34,catch_stimuli/c3.png,1000,,,0,5106,996,meters,jsons/MX_seq9_0_VE1000.json,398560,1286506,28,Man
34,850765,final-intermixed-textured,v2,jsons/MX_seq9_0_VE1000.json,http://54.235.29.9/FacialAge/BNav_EC2/DepthDuration/MX_fS_VE_MTurk/MX_fS_HTML.html#101,101,1366,768,1366,768,1-8-2024,15-0-37,35,VR_target_stimuli/s12_1.3x_3.1_375_BC.png,1000,1.3x,3.1,5,6494,996,meters,jsons/MX_seq9_0_VE1000.json,398560,1286506,28,Man
35,850765,final-intermixed-textured,v2,jsons/MX_seq9_0_VE1000.json,http://54.235.29.9/FacialAge/BNav_EC2/DepthDuration/MX_fS_VE_MTurk/MX_fS_HTML.html#101,101,1366,768,1366,768,1-8-2024,15-0-37,36,VR_target_stimuli/s30_1x_2.3_334_BC.png,1000,1x,2.3,6,12311,1007,meters,jsons/MX_seq9_0_VE1000.json,398560,1286506,28,Man
36,850765,final-intermixed-textured,v2,jsons/MX_seq9_0_VE1000.json,http://54.235.29.9/FacialAge/BNav_EC2/DepthDuration/MX_fS_VE_MTurk/MX_fS_HTML.html#101,101,1366,768,1366,768,1-8-2024,15-0-37,37,VR_target_stimuli/s16_0.75x_1_217_BC.png,1000,0.75x,1.0,4,5541,1007,meters,jsons/MX_seq9_0_VE1000.json,398560,1286506,28,Man
37,850765,final-intermixed-textured,v2,jsons/MX_seq9_0_VE1000.json,http://54.235.29.9/FacialAge/BNav_EC2/DepthDuration/MX_fS_VE_MTurk/MX_fS_HTML.html#101,101,1366,768,1366,768,1-8-2024,15-0-37,38,VR_target_stimuli/s17_0.75x_1.8_285.png,1000,0.75x,1.8,6,6678,1004,meters,jsons/MX_seq9_0_VE1000.json,398560,1286506,28,Man
38,850765,final-intermixed-textured,v2,jsons/MX_seq9_0_VE1000.json,http://54.235.29.9/FacialAge/BNav_EC2/DepthDuration/MX_fS_VE_MTurk/MX_fS_HTML.html#101,101,1366,768,1366,768,1-8-2024,15-0-37,39,VR_target_stimuli/s5_1.3x_4_393.png,1000,1.3x,4.0,6,5753,1006,meters,jsons/MX_seq9_0_VE1000.json,398560,1286506,28,Man
39,850765,final-intermixed-textured,v2,jsons/MX_seq9_0_VE1000.json,http://54.235.29.9/FacialAge/BNav_EC2/DepthDuration/MX_fS_VE_MTurk/MX_fS_HTML.html#101,101,1366,768,1366,768,1-8-2024,15-0-37,40,VR_target_stimuli/s37_1x_3.3_563.png,1000,1x,3.3,7,5543,1003,meters,jsons/MX_seq9_0_VE1000.json,398560,1286506,28,Man
40,850765,final-intermixed-textured,v2,jsons/MX_seq9_0_VE1000.json,http://54.235.29.9/FacialAge/BNav_EC2/DepthDuration/MX_fS_VE_MTurk/MX_fS_HTML.html#101,101,1366,768,1366,768,1-8-2024,15-0-37,41,VR_target_stimuli/s46_1.3x_2.42_354_BC.png,1000,1.3x,2.42,8,6185,996,meters,jsons/MX_seq9_0_VE1000.json,398560,1286506,28,Man
41,850765,final-intermixed-textured,v2,jsons/MX_seq9_0_VE1000.json,http://54.235.29.9/FacialAge/BNav_EC2/DepthDuration/MX_fS_VE_MTurk/MX_fS_HTML.html#101,101,1366,768,1366,768,1-8-2024,15-0-37,42,VR_target_stimuli/s22_0.75x_4.29_348_BC.png,1000,0.75x,4.29,8,5878,1004,meters,jsons/MX_seq9_0_VE1000.json,398560,1286506,28,Man
42,850765,final-intermixed-textured,v2,jsons/MX_seq9_0_VE1000.json,http://54.235.29.9/FacialAge/BNav_EC2/DepthDuration/MX_fS_VE_MTurk/MX_fS_HTML.html#101,101,1366,768,1366,768,1-8-2024,15-0-37,43,VR_target_stimuli/s42_1x_3.2_303.png,1000,1x,3.2,8,5095,1002,meters,jsons/MX_seq9_0_VE1000.json,398560,1286506,28,Man
43,850765,final-intermixed-textured,v2,jsons/MX_seq9_0_VE1000.json,http://54.235.29.9/FacialAge/BNav_EC2/DepthDuration/MX_fS_VE_MTurk/MX_fS_HTML.html#101,101,1366,768,1366,768,1-8-2024,15-0-37,44,VR_target_stimuli/s25_0.75x_1.4_281.png,1000,0.75x,1.4,5,10943,1011,meters,jsons/MX_seq9_0_VE1000.json,398560,1286506,28,Man
44,850765,final-intermixed-textured,v2,jsons/MX_seq9_0_VE1000.json,http://54.235.29.9/FacialAge/BNav_EC2/DepthDuration/MX_fS_VE_MTurk/MX_fS_HTML.html#101,101,1366,768,1366,768,1-8-2024,15-0-37,45,catch_stimuli/c4.png,1000,,,0,5131,998,meters,jsons/MX_seq9_0_VE1000.json,398560,1286506,28,Man
45,850765,final-intermixed-textured,v2,jsons/MX_seq9_0_VE1000.json,http://54.235.29.9/FacialAge/BNav_EC2/DepthDuration/MX_fS_VE_MTurk/MX_fS_HTML.html#101,101,1366,768,1366,768,1-8-2024,15-0-37,46,VR_target_stimuli/s50_1.3x_4.53_518.png,1000,1.3x,4.53,7,7892,1004,meters,jsons/MX_seq9_0_VE1000.json,398560,1286506,28,Man
46,850765,final-intermixed-textured,v2,jsons/MX_seq9_0_VE1000.json,http://54.235.29.9/FacialAge/BNav_EC2/DepthDuration/MX_fS_VE_MTurk/MX_fS_HTML.html#101,101,1366,768,1366,768,1-8-2024,15-0-37,47,VR_target_stimuli/s53_1x_1.6_387_BC.png,1000,1x,1.6,5,7256,994,meters,jsons/MX_seq9_0_VE1000.json,398560,1286506,28,Man
47,850765,final-intermixed-textured,v2,jsons/MX_seq9_0_VE1000.json,http://54.235.29.9/FacialAge/BNav_EC2/DepthDuration/MX_fS_VE_MTurk/MX_fS_HTML.html#101,101,1366,768,1366,768,1-8-2024,15-0-37,48,VR_target_stimuli/s38_1x_3.55_353.png,1000,1x,3.55,6,5516,1010,meters,jsons/MX_seq9_0_VE1000.json,398560,1286506,28,Man
48,850765,final-intermixed-textured,v2,jsons/MX_seq9_0_VE1000.json,http://54.235.29.9/FacialAge/BNav_EC2/DepthDuration/MX_fS_VE_MTurk/MX_fS_HTML.html#101,101,1366,768,1366,768,1-8-2024,15-0-37,49,VR_target_stimuli/s9_0.75x_1.2_260.png,1000,0.75x,1.2,3,5871,994,meters,jsons/MX_seq9_0_VE1000.json,398560,1286506,28,Man
49,850765,final-intermixed-textured,v2,jsons/MX_seq9_0_VE1000.json,http://54.235.29.9/FacialAge/BNav_EC2/DepthDuration/MX_fS_VE_MTurk/MX_fS_HTML.html#101,101,1366,768,1366,768,1-8-2024,15-0-37,50,VR_target_stimuli/s44_1.3x_4.4_325.png,1000,1.3x,4.4,5,6010,1008,meters,jsons/MX_seq9_0_VE1000.json,398560,1286506,28,Man
50,850765,final-intermixed-textured,v2,jsons/MX_seq9_0_VE1000.json,http://54.235.29.9/FacialAge/BNav_EC2/DepthDuration/MX_fS_VE_MTurk/MX_fS_HTML.html#101,101,1366,768,1366,768,1-8-2024,15-0-37,51,VR_target_stimuli/s3_0.75x_5_381_BC.png,1000,0.75x,5.0,7,5114,990,meters,jsons/MX_seq9_0_VE1000.json,398560,1286506,28,Man
51,850765,final-intermixed-textured,v2,jsons/MX_seq9_0_VE1000.json,http://54.235.29.9/FacialAge/BNav_EC2/DepthDuration/MX_fS_VE_MTurk/MX_fS_HTML.html#101,101,1366,768,1366,768,1-8-2024,15-0-37,52,VR_target_stimuli/s1_1x_1.7_262_BC.png,1000,1x,1.7,4,5580,1002,meters,jsons/MX_seq9_0_VE1000.json,398560,1286506,28,Man
52,850765,final-intermixed-textured,v2,jsons/MX_seq9_0_VE1000.json,http://54.235.29.9/FacialAge/BNav_EC2/DepthDuration/MX_fS_VE_MTurk/MX_fS_HTML.html#101,101,1366,768,1366,768,1-8-2024,15-0-37,53,catch_stimuli/c5.png,1000,,,0,5693,990,meters,jsons/MX_seq9_0_VE1000.json,398560,1286506,28,Man
53,850765,final-intermixed-textured,v2,jsons/MX_seq9_0_VE1000.json,http://54.235.29.9/FacialAge/BNav_EC2/DepthDuration/MX_fS_VE_MTurk/MX_fS_HTML.html#101,101,1366,768,1366,768,1-8-2024,15-0-37,54,VR_target_stimuli/s11_1.3x_5_363_BC.png,1000,1.3x,5.0,8,5636,998,meters,jsons/MX_seq9_0_VE1000.json,398560,1286506,28,Man
54,850765,final-intermixed-textured,v2,jsons/MX_seq9_0_VE1000.json,http://54.235.29.9/FacialAge/BNav_EC2/DepthDuration/MX_fS_VE_MTurk/MX_fS_HTML.html#101,101,1366,768,1366,768,1-8-2024,15-0-37,55,VR_target_stimuli/s2_1x_2.7_390_BC.png,1000,1x,2.7,5,5687,1001,meters,jsons/MX_seq9_0_VE1000.json,398560,1286506,28,Man
55,850765,final-intermixed-textured,v2,jsons/MX_seq9_0_VE1000.json,http://54.235.29.9/FacialAge/BNav_EC2/DepthDuration/MX_fS_VE_MTurk/MX_fS_HTML.html#101,101,1366,768,1366,768,1-8-2024,15-0-37,56,VR_target_stimuli/s6_0.75x_2.1_290.png,1000,0.75x,2.1,5,5324,992,meters,jsons/MX_seq9_0_VE1000.json,398560,1286506,28,Man
56,850765,final-intermixed-textured,v2,jsons/MX_seq9_0_VE1000.json,http://54.235.29.9/FacialAge/BNav_EC2/DepthDuration/MX_fS_VE_MTurk/MX_fS_HTML.html#101,101,1366,768,1366,768,1-8-2024,15-0-37,57,VR_target_stimuli/s0_1.3x_2.6_356.png,1000,1.3x,2.6,5,6288,996,meters,jsons/MX_seq9_0_VE1000.json,398560,1286506,28,Man
57,850765,final-intermixed-textured,v2,jsons/MX_seq9_0_VE1000.json,http://54.235.29.9/FacialAge/BNav_EC2/DepthDuration/MX_fS_VE_MTurk/MX_fS_HTML.html#101,101,1366,768,1366,768,1-8-2024,15-0-37,58,VR_target_stimuli/s34_1.3x_2.8_294_BC.png,1000,1.3x,2.8,6,5160,990,meters,jsons/MX_seq9_0_VE1000.json,398560,1286506,28,Man
58,850765,final-intermixed-textured,v2,jsons/MX_seq9_0_VE1000.json,http://54.235.29.9/FacialAge/BNav_EC2/DepthDuration/MX_fS_VE_MTurk/MX_fS_HTML.html#101,101,1366,768,1366,768,1-8-2024,15-0-37,59,VR_target_stimuli/s13_1x_2.4_310.png,1000,1x,2.4,6,5945,990,meters,jsons/MX_seq9_0_VE1000.json,398560,1286506,28,Man
59,850765,final-intermixed-textured,v2,jsons/MX_seq9_0_VE1000.json,http://54.235.29.9/FacialAge/BNav_EC2/DepthDuration/MX_fS_VE_MTurk/MX_fS_HTML.html#101,101,1366,768,1366,768,1-8-2024,15-0-37,60,VR_target_stimuli/s14_0.75x_3.83_355_BC.png,1000,0.75x,3.83,6,6686,993,meters,jsons/MX_seq9_0_VE1000.json,398560,1286506,28,Man
