,subjID,experimentName,versionName,sequenceName,url,selected_row,windowWidth,windowHeight,screenWidth,screenHeight,startDate,startTime,trial,stimulus,duration,scale,actual_depth,depth_estimate,trial_RT,log_sceneDuration,unitSelection,seq_filepath,experimentTime,totalTime,age,gender
0,851443,final-intermixed-textured,v2,jsons/MX_seq7_2_VE1000.json,http://54.235.29.9/FacialAge/BNav_EC2/DepthDuration/MX_fS_VE_MTurk/MX_fS_HTML.html#291,291,1366,768,1366,768,1-8-2024,16-46-14,1,VR_target_stimuli/s13_1x_2.4_310_BC.png,1000,1x,2.4,4,5909,997,meters,jsons/MX_seq7_2_VE1000.json,349881,675042,25,Woman
1,851443,final-intermixed-textured,v2,jsons/MX_seq7_2_VE1000.json,http://54.235.29.9/FacialAge/BNav_EC2/DepthDuration/MX_fS_VE_MTurk/MX_fS_HTML.html#291,291,1366,768,1366,768,1-8-2024,16-46-14,2,VR_target_stimuli/s14_1.3x_3.83_359.png,1000,1.3x,3.83,5,4989,1004,meters,jsons/MX_seq7_2_VE1000.json,349881,675042,25,Woman
2,851443,final-intermixed-textured,v2,jsons/MX_seq7_2_VE1000.json,http://54.235.29.9/FacialAge/BNav_EC2/DepthDuration/MX_fS_VE_MTurk/MX_fS_HTML.html#291,291,1366,768,1366,768,1-8-2024,16-46-14,3,VR_target_stimuli/s47_0.75x_3.45_366_BC.png,1000,0.75x,3.45,6,6044,1003,meters,jsons/MX_seq7_2_VE1000.json,349881,675042,25,Woman
3,851443,final-intermixed-textured,v2,jsons/MX_seq7_2_VE1000.json,http://54.235.29.9/FacialAge/BNav_EC2/DepthDuration/MX_fS_VE_MTurk/MX_fS_HTML.html#291,291,1366,768,1366,768,1-8-2024,16-46-14,4,VR_target_stimuli/s29_1.3x_1.3_253_BC.png,1000,1.3x,1.3,3,5070,1005,meters,jsons/MX_seq7_2_VE1000.json,349881,675042,25,Woman
4,851443,final-intermixed-textured,v2,jsons/MX_seq7_2_VE1000.json,http://54.235.29.9/FacialAge/BNav_EC2/DepthDuration/MX_fS_VE_MTurk/MX_fS_HTML.html#291,291,1366,768,1366,768,1-8-2024,16-46-14,5,VR_target_stimuli/s28_1x_3.2_362.png,1000,1x,3.2,5,4972,1003,meters,jsons/MX_seq7_2_VE1000.json,349881,675042,25,Woman
5,851443,final-intermixed-textured,v2,jsons/MX_seq7_2_VE1000.json,http://54.235.29.9/FacialAge/BNav_EC2/DepthDuration/MX_fS_VE_MTurk/MX_fS_HTML.html#291,291,1366,768,1366,768,1-8-2024,16-46-14,6,VR_target_stimuli/s48_0.75x_2.55_243.png,1000,0.75x,2.55,7,7893,1001,meters,jsons/MX_seq7_2_VE1000.json,349881,675042,25,Woman
6,851443,final-intermixed-textured,v2,jsons/MX_seq7_2_VE1000.json,http://54.235.29.9/FacialAge/BNav_EC2/DepthDuration/MX_fS_VE_MTurk/MX_fS_HTML.html#291,291,1366,768,1366,768,1-8-2024,16-46-14,7,catch_stimuli/c0.png,1000,,,0,5721,999,meters,jsons/MX_seq7_2_VE1000.json,349881,675042,25,Woman
7,851443,final-intermixed-textured,v2,jsons/MX_seq7_2_VE1000.json,http://54.235.29.9/FacialAge/BNav_EC2/DepthDuration/MX_fS_VE_MTurk/MX_fS_HTML.html#291,291,1366,768,1366,768,1-8-2024,16-46-14,8,VR_target_stimuli/s19_0.75x_1.21_257_BC.png,1000,0.75x,1.21,5,5070,1008,meters,jsons/MX_seq7_2_VE1000.json,349881,675042,25,Woman
8,851443,final-intermixed-textured,v2,jsons/MX_seq7_2_VE1000.json,http://54.235.29.9/FacialAge/BNav_EC2/DepthDuration/MX_fS_VE_MTurk/MX_fS_HTML.html#291,291,1366,768,1366,768,1-8-2024,16-46-14,9,VR_target_stimuli/s21_1.3x_4.22_384_BC.png,1000,1.3x,4.22,15,8772,991,meters,jsons/MX_seq7_2_VE1000.json,349881,675042,25,Woman
9,851443,final-intermixed-textured,v2,jsons/MX_seq7_2_VE1000.json,http://54.235.29.9/FacialAge/BNav_EC2/DepthDuration/MX_fS_VE_MTurk/MX_fS_HTML.html#291,291,1366,768,1366,768,1-8-2024,16-46-14,10,VR_target_stimuli/s8_1x_3.1_332_BC.png,1000,1x,3.1,6,5713,983,meters,jsons/MX_seq7_2_VE1000.json,349881,675042,25,Woman
10,851443,final-intermixed-textured,v2,jsons/MX_seq7_2_VE1000.json,http://54.235.29.9/FacialAge/BNav_EC2/DepthDuration/MX_fS_VE_MTurk/MX_fS_HTML.html#291,291,1366,768,1366,768,1-8-2024,16-46-14,11,VR_target_stimuli/s27_1.3x_1.76_250.png,1000,1.3x,1.76,9,7340,1001,meters,jsons/MX_seq7_2_VE1000.json,349881,675042,25,Woman
11,851443,final-intermixed-textured,v2,jsons/MX_seq7_2_VE1000.json,http://54.235.29.9/FacialAge/BNav_EC2/DepthDuration/MX_fS_VE_MTurk/MX_fS_HTML.html#291,291,1366,768,1366,768,1-8-2024,16-46-14,12,VR_target_stimuli/s15_0.75x_4.2_388.png,1000,0.75x,4.2,12,5195,996,meters,jsons/MX_seq7_2_VE1000.json,349881,675042,25,Woman
12,851443,final-intermixed-textured,v2,jsons/MX_seq7_2_VE1000.json,http://54.235.29.9/FacialAge/BNav_EC2/DepthDuration/MX_fS_VE_MTurk/MX_fS_HTML.html#291,291,1366,768,1366,768,1-8-2024,16-46-14,13,VR_target_stimuli/s4_1x_1.4_313.png,1000,1x,1.4,7,4654,1006,meters,jsons/MX_seq7_2_VE1000.json,349881,675042,25,Woman
13,851443,final-intermixed-textured,v2,jsons/MX_seq7_2_VE1000.json,http://54.235.29.9/FacialAge/BNav_EC2/DepthDuration/MX_fS_VE_MTurk/MX_fS_HTML.html#291,291,1366,768,1366,768,1-8-2024,16-46-14,14,VR_target_stimuli/s35_0.75x_2_323.png,1000,0.75x,2.0,7,6426,995,meters,jsons/MX_seq7_2_VE1000.json,349881,675042,25,Woman
14,851443,final-intermixed-textured,v2,jsons/MX_seq7_2_VE1000.json,http://54.235.29.9/FacialAge/BNav_EC2/DepthDuration/MX_fS_VE_MTurk/MX_fS_HTML.html#291,291,1366,768,1366,768,1-8-2024,16-46-14,15,VR_target_stimuli/s49_1.3x_4.67_354.png,1000,1.3x,4.67,10,5933,1003,meters,jsons/MX_seq7_2_VE1000.json,349881,675042,25,Woman
15,851443,final-intermixed-textured,v2,jsons/MX_seq7_2_VE1000.json,http://54.235.29.9/FacialAge/BNav_EC2/DepthDuration/MX_fS_VE_MTurk/MX_fS_HTML.html#291,291,1366,768,1366,768,1-8-2024,16-46-14,16,VR_target_stimuli/s7_1x_1.5_255_BC.png,1000,1x,1.5,9,4950,990,meters,jsons/MX_seq7_2_VE1000.json,349881,675042,25,Woman
16,851443,final-intermixed-textured,v2,jsons/MX_seq7_2_VE1000.json,http://54.235.29.9/FacialAge/BNav_EC2/DepthDuration/MX_fS_VE_MTurk/MX_fS_HTML.html#291,291,1366,768,1366,768,1-8-2024,16-46-14,17,catch_stimuli/c1.png,1000,,,0,6678,1006,meters,jsons/MX_seq7_2_VE1000.json,349881,675042,25,Woman
17,851443,final-intermixed-textured,v2,jsons/MX_seq7_2_VE1000.json,http://54.235.29.9/FacialAge/BNav_EC2/DepthDuration/MX_fS_VE_MTurk/MX_fS_HTML.html#291,291,1366,768,1366,768,1-8-2024,16-46-14,18,VR_target_stimuli/s20_1x_4.99_398.png,1000,1x,4.99,15,6736,1004,meters,jsons/MX_seq7_2_VE1000.json,349881,675042,25,Woman
18,851443,final-intermixed-textured,v2,jsons/MX_seq7_2_VE1000.json,http://54.235.29.9/FacialAge/BNav_EC2/DepthDuration/MX_fS_VE_MTurk/MX_fS_HTML.html#291,291,1366,768,1366,768,1-8-2024,16-46-14,19,VR_target_stimuli/s31_0.75x_4.96_329_BC.png,1000,0.75x,4.96,9,5992,990,meters,jsons/MX_seq7_2_VE1000.json,349881,675042,25,Woman
19,851443,final-intermixed-textured,v2,jsons/MX_seq7_2_VE1000.json,http://54.235.29.9/FacialAge/BNav_EC2/DepthDuration/MX_fS_VE_MTurk/MX_fS_HTML.html#291,291,1366,768,1366,768,1-8-2024,16-46-14,20,VR_target_stimuli/s33_1.3x_3.1_378_BC.png,1000,1.3x,3.1,6,4822,1004,meters,jsons/MX_seq7_2_VE1000.json,349881,675042,25,Woman
20,851443,final-intermixed-textured,v2,jsons/MX_seq7_2_VE1000.json,http://54.235.29.9/FacialAge/BNav_EC2/DepthDuration/MX_fS_VE_MTurk/MX_fS_HTML.html#291,291,1366,768,1366,768,1-8-2024,16-46-14,21,VR_target_stimuli/s52_0.75x_3.2_270_BC.png,1000,0.75x,3.2,11,4675,1005,meters,jsons/MX_seq7_2_VE1000.json,349881,675042,25,Woman
21,851443,final-intermixed-textured,v2,jsons/MX_seq7_2_VE1000.json,http://54.235.29.9/FacialAge/BNav_EC2/DepthDuration/MX_fS_VE_MTurk/MX_fS_HTML.html#291,291,1366,768,1366,768,1-8-2024,16-46-14,22,VR_target_stimuli/s32_1x_1.5_218_BC.png,1000,1x,1.5,7,5758,991,meters,jsons/MX_seq7_2_VE1000.json,349881,675042,25,Woman
22,851443,final-intermixed-textured,v2,jsons/MX_seq7_2_VE1000.json,http://54.235.29.9/FacialAge/BNav_EC2/DepthDuration/MX_fS_VE_MTurk/MX_fS_HTML.html#291,291,1366,768,1366,768,1-8-2024,16-46-14,23,VR_target_stimuli/s18_1.3x_2.25_368.png,1000,1.3x,2.25,8,4928,994,meters,jsons/MX_seq7_2_VE1000.json,349881,675042,25,Woman
23,851443,final-intermixed-textured,v2,jsons/MX_seq7_2_VE1000.json,http://54.235.29.9/FacialAge/BNav_EC2/DepthDuration/MX_fS_VE_MTurk/MX_fS_HTML.html#291,291,1366,768,1366,768,1-8-2024,16-46-14,24,VR_target_stimuli/s39_1x_1_207.png,1000,1x,1.0,5,10093,996,meters,jsons/MX_seq7_2_VE1000.json,349881,675042,25,Woman
24,851443,final-intermixed-textured,v2,jsons/MX_seq7_2_VE1000.json,http://54.235.29.9/FacialAge/BNav_EC2/DepthDuration/MX_fS_VE_MTurk/MX_fS_HTML.html#291,291,1366,768,1366,768,1-8-2024,16-46-14,25,VR_target_stimuli/s51_0.75x_3.64_460.png,1000,0.75x,3.64,9,4333,996,meters,jsons/MX_seq7_2_VE1000.json,349881,675042,25,Woman
25,851443,final-intermixed-textured,v2,jsons/MX_seq7_2_VE1000.json,http://54.235.29.9/FacialAge/BNav_EC2/DepthDuration/MX_fS_VE_MTurk/MX_fS_HTML.html#291,291,1366,768,1366,768,1-8-2024,16-46-14,26,catch_stimuli/c2.png,1000,,,0,3930,1010,meters,jsons/MX_seq7_2_VE1000.json,349881,675042,25,Woman
26,851443,final-intermixed-textured,v2,jsons/MX_seq7_2_VE1000.json,http://54.235.29.9/FacialAge/BNav_EC2/DepthDuration/MX_fS_VE_MTurk/MX_fS_HTML.html#291,291,1366,768,1366,768,1-8-2024,16-46-14,27,VR_target_stimuli/s43_1.3x_2.2_363_BC.png,1000,1.3x,2.2,5,3886,994,meters,jsons/MX_seq7_2_VE1000.json,349881,675042,25,Woman
27,851443,final-intermixed-textured,v2,jsons/MX_seq7_2_VE1000.json,http://54.235.29.9/FacialAge/BNav_EC2/DepthDuration/MX_fS_VE_MTurk/MX_fS_HTML.html#291,291,1366,768,1366,768,1-8-2024,16-46-14,28,VR_target_stimuli/s24_1.3x_3.3_352_BC.png,1000,1.3x,3.3,5,3715,996,meters,jsons/MX_seq7_2_VE1000.json,349881,675042,25,Woman
28,851443,final-intermixed-textured,v2,jsons/MX_seq7_2_VE1000.json,http://54.235.29.9/FacialAge/BNav_EC2/DepthDuration/MX_fS_VE_MTurk/MX_fS_HTML.html#291,291,1366,768,1366,768,1-8-2024,16-46-14,29,VR_target_stimuli/s10_1x_2.7_324_BC.png,1000,1x,2.7,9,4216,995,meters,jsons/MX_seq7_2_VE1000.json,349881,675042,25,Woman
29,851443,final-intermixed-textured,v2,jsons/MX_seq7_2_VE1000.json,http://54.235.29.9/FacialAge/BNav_EC2/DepthDuration/MX_fS_VE_MTurk/MX_fS_HTML.html#291,291,1366,768,1366,768,1-8-2024,16-46-14,30,VR_target_stimuli/s36_0.75x_4.1_407_BC.png,1000,0.75x,4.1,14,5508,1003,meters,jsons/MX_seq7_2_VE1000.json,349881,675042,25,Woman
30,851443,final-intermixed-textured,v2,jsons/MX_seq7_2_VE1000.json,http://54.235.29.9/FacialAge/BNav_EC2/DepthDuration/MX_fS_VE_MTurk/MX_fS_HTML.html#291,291,1366,768,1366,768,1-8-2024,16-46-14,31,VR_target_stimuli/s40_1.3x_1.2_332.png,1000,1.3x,1.2,7,4414,990,meters,jsons/MX_seq7_2_VE1000.json,349881,675042,25,Woman
31,851443,final-intermixed-textured,v2,jsons/MX_seq7_2_VE1000.json,http://54.235.29.9/FacialAge/BNav_EC2/DepthDuration/MX_fS_VE_MTurk/MX_fS_HTML.html#291,291,1366,768,1366,768,1-8-2024,16-46-14,32,VR_target_stimuli/s41_0.75x_2.1_281.png,1000,0.75x,2.1,9,4239,999,meters,jsons/MX_seq7_2_VE1000.json,349881,675042,25,Woman
32,851443,final-intermixed-textured,v2,jsons/MX_seq7_2_VE1000.json,http://54.235.29.9/FacialAge/BNav_EC2/DepthDuration/MX_fS_VE_MTurk/MX_fS_HTML.html#291,291,1366,768,1366,768,1-8-2024,16-46-14,33,VR_target_stimuli/s45_1x_3.5_368.png,1000,1x,3.5,10,4730,1006,meters,jsons/MX_seq7_2_VE1000.json,349881,675042,25,Woman
33,851443,final-intermixed-textured,v2,jsons/MX_seq7_2_VE1000.json,http://54.235.29.9/FacialAge/BNav_EC2/DepthDuration/MX_fS_VE_MTurk/MX_fS_HTML.html#291,291,1366,768,1366,768,1-8-2024,16-46-14,34,catch_stimuli/c3.png,1000,,,0,4419,997,meters,jsons/MX_seq7_2_VE1000.json,349881,675042,25,Woman
34,851443,final-intermixed-textured,v2,jsons/MX_seq7_2_VE1000.json,http://54.235.29.9/FacialAge/BNav_EC2/DepthDuration/MX_fS_VE_MTurk/MX_fS_HTML.html#291,291,1366,768,1366,768,1-8-2024,16-46-14,35,VR_target_stimuli/s23_0.75x_3.65_351_BC.png,1000,0.75x,3.65,10,6405,1000,meters,jsons/MX_seq7_2_VE1000.json,349881,675042,25,Woman
35,851443,final-intermixed-textured,v2,jsons/MX_seq7_2_VE1000.json,http://54.235.29.9/FacialAge/BNav_EC2/DepthDuration/MX_fS_VE_MTurk/MX_fS_HTML.html#291,291,1366,768,1366,768,1-8-2024,16-46-14,36,VR_target_stimuli/s26_1.3x_4_441.png,1000,1.3x,4.0,14,6365,1001,meters,jsons/MX_seq7_2_VE1000.json,349881,675042,25,Woman
36,851443,final-intermixed-textured,v2,jsons/MX_seq7_2_VE1000.json,http://54.235.29.9/FacialAge/BNav_EC2/DepthDuration/MX_fS_VE_MTurk/MX_fS_HTML.html#291,291,1366,768,1366,768,1-8-2024,16-46-14,37,VR_target_stimuli/s12_1x_3.1_372.png,1000,1x,3.1,16,4728,1016,meters,jsons/MX_seq7_2_VE1000.json,349881,675042,25,Woman
37,851443,final-intermixed-textured,v2,jsons/MX_seq7_2_VE1000.json,http://54.235.29.9/FacialAge/BNav_EC2/DepthDuration/MX_fS_VE_MTurk/MX_fS_HTML.html#291,291,1366,768,1366,768,1-8-2024,16-46-14,38,VR_target_stimuli/s30_1x_2.3_334_BC.png,1000,1x,2.3,10,3861,1007,meters,jsons/MX_seq7_2_VE1000.json,349881,675042,25,Woman
38,851443,final-intermixed-textured,v2,jsons/MX_seq7_2_VE1000.json,http://54.235.29.9/FacialAge/BNav_EC2/DepthDuration/MX_fS_VE_MTurk/MX_fS_HTML.html#291,291,1366,768,1366,768,1-8-2024,16-46-14,39,VR_target_stimuli/s16_0.75x_1_217.png,1000,0.75x,1.0,9,3742,1001,meters,jsons/MX_seq7_2_VE1000.json,349881,675042,25,Woman
39,851443,final-intermixed-textured,v2,jsons/MX_seq7_2_VE1000.json,http://54.235.29.9/FacialAge/BNav_EC2/DepthDuration/MX_fS_VE_MTurk/MX_fS_HTML.html#291,291,1366,768,1366,768,1-8-2024,16-46-14,40,VR_target_stimuli/s17_1.3x_1.8_300_BC.png,1000,1.3x,1.8,8,3629,992,meters,jsons/MX_seq7_2_VE1000.json,349881,675042,25,Woman
40,851443,final-intermixed-textured,v2,jsons/MX_seq7_2_VE1000.json,http://54.235.29.9/FacialAge/BNav_EC2/DepthDuration/MX_fS_VE_MTurk/MX_fS_HTML.html#291,291,1366,768,1366,768,1-8-2024,16-46-14,41,VR_target_stimuli/s5_0.75x_4_375.png,1000,0.75x,4.0,11,6422,1010,meters,jsons/MX_seq7_2_VE1000.json,349881,675042,25,Woman
41,851443,final-intermixed-textured,v2,jsons/MX_seq7_2_VE1000.json,http://54.235.29.9/FacialAge/BNav_EC2/DepthDuration/MX_fS_VE_MTurk/MX_fS_HTML.html#291,291,1366,768,1366,768,1-8-2024,16-46-14,42,VR_target_stimuli/s37_1x_3.3_563.png,1000,1x,3.3,17,5119,1008,meters,jsons/MX_seq7_2_VE1000.json,349881,675042,25,Woman
42,851443,final-intermixed-textured,v2,jsons/MX_seq7_2_VE1000.json,http://54.235.29.9/FacialAge/BNav_EC2/DepthDuration/MX_fS_VE_MTurk/MX_fS_HTML.html#291,291,1366,768,1366,768,1-8-2024,16-46-14,43,VR_target_stimuli/s46_1.3x_2.42_354.png,1000,1.3x,2.42,11,13733,1010,meters,jsons/MX_seq7_2_VE1000.json,349881,675042,25,Woman
43,851443,final-intermixed-textured,v2,jsons/MX_seq7_2_VE1000.json,http://54.235.29.9/FacialAge/BNav_EC2/DepthDuration/MX_fS_VE_MTurk/MX_fS_HTML.html#291,291,1366,768,1366,768,1-8-2024,16-46-14,44,VR_target_stimuli/s22_1x_4.29_354_BC.png,1000,1x,4.29,6,3987,1001,meters,jsons/MX_seq7_2_VE1000.json,349881,675042,25,Woman
44,851443,final-intermixed-textured,v2,jsons/MX_seq7_2_VE1000.json,http://54.235.29.9/FacialAge/BNav_EC2/DepthDuration/MX_fS_VE_MTurk/MX_fS_HTML.html#291,291,1366,768,1366,768,1-8-2024,16-46-14,45,catch_stimuli/c4.png,1000,,,0,3591,1006,meters,jsons/MX_seq7_2_VE1000.json,349881,675042,25,Woman
45,851443,final-intermixed-textured,v2,jsons/MX_seq7_2_VE1000.json,http://54.235.29.9/FacialAge/BNav_EC2/DepthDuration/MX_fS_VE_MTurk/MX_fS_HTML.html#291,291,1366,768,1366,768,1-8-2024,16-46-14,46,VR_target_stimuli/s42_0.75x_3.2_301_BC.png,1000,0.75x,3.2,12,3777,981,meters,jsons/MX_seq7_2_VE1000.json,349881,675042,25,Woman
46,851443,final-intermixed-textured,v2,jsons/MX_seq7_2_VE1000.json,http://54.235.29.9/FacialAge/BNav_EC2/DepthDuration/MX_fS_VE_MTurk/MX_fS_HTML.html#291,291,1366,768,1366,768,1-8-2024,16-46-14,47,VR_target_stimuli/s25_1.3x_1.4_299_BC.png,1000,1.3x,1.4,9,3743,1004,meters,jsons/MX_seq7_2_VE1000.json,349881,675042,25,Woman
47,851443,final-intermixed-textured,v2,jsons/MX_seq7_2_VE1000.json,http://54.235.29.9/FacialAge/BNav_EC2/DepthDuration/MX_fS_VE_MTurk/MX_fS_HTML.html#291,291,1366,768,1366,768,1-8-2024,16-46-14,48,VR_target_stimuli/s50_1.3x_4.53_518.png,1000,1.3x,4.53,6,4329,1005,meters,jsons/MX_seq7_2_VE1000.json,349881,675042,25,Woman
48,851443,final-intermixed-textured,v2,jsons/MX_seq7_2_VE1000.json,http://54.235.29.9/FacialAge/BNav_EC2/DepthDuration/MX_fS_VE_MTurk/MX_fS_HTML.html#291,291,1366,768,1366,768,1-8-2024,16-46-14,49,VR_target_stimuli/s53_1x_1.6_387_BC.png,1000,1x,1.6,9,3659,988,meters,jsons/MX_seq7_2_VE1000.json,349881,675042,25,Woman
49,851443,final-intermixed-textured,v2,jsons/MX_seq7_2_VE1000.json,http://54.235.29.9/FacialAge/BNav_EC2/DepthDuration/MX_fS_VE_MTurk/MX_fS_HTML.html#291,291,1366,768,1366,768,1-8-2024,16-46-14,50,VR_target_stimuli/s38_0.75x_3.55_346_BC.png,1000,0.75x,3.55,10,4721,990,meters,jsons/MX_seq7_2_VE1000.json,349881,675042,25,Woman
50,851443,final-intermixed-textured,v2,jsons/MX_seq7_2_VE1000.json,http://54.235.29.9/FacialAge/BNav_EC2/DepthDuration/MX_fS_VE_MTurk/MX_fS_HTML.html#291,291,1366,768,1366,768,1-8-2024,16-46-14,51,VR_target_stimuli/s9_1x_1.2_263.png,1000,1x,1.2,8,4337,990,meters,jsons/MX_seq7_2_VE1000.json,349881,675042,25,Woman
51,851443,final-intermixed-textured,v2,jsons/MX_seq7_2_VE1000.json,http://54.235.29.9/FacialAge/BNav_EC2/DepthDuration/MX_fS_VE_MTurk/MX_fS_HTML.html#291,291,1366,768,1366,768,1-8-2024,16-46-14,52,VR_target_stimuli/s44_1.3x_4.4_325_BC.png,1000,1.3x,4.4,9,3829,989,meters,jsons/MX_seq7_2_VE1000.json,349881,675042,25,Woman
52,851443,final-intermixed-textured,v2,jsons/MX_seq7_2_VE1000.json,http://54.235.29.9/FacialAge/BNav_EC2/DepthDuration/MX_fS_VE_MTurk/MX_fS_HTML.html#291,291,1366,768,1366,768,1-8-2024,16-46-14,53,catch_stimuli/c5.png,1000,,,0,4801,995,meters,jsons/MX_seq7_2_VE1000.json,349881,675042,25,Woman
53,851443,final-intermixed-textured,v2,jsons/MX_seq7_2_VE1000.json,http://54.235.29.9/FacialAge/BNav_EC2/DepthDuration/MX_fS_VE_MTurk/MX_fS_HTML.html#291,291,1366,768,1366,768,1-8-2024,16-46-14,54,VR_target_stimuli/s3_0.75x_5_381.png,1000,0.75x,5.0,16,4328,1004,meters,jsons/MX_seq7_2_VE1000.json,349881,675042,25,Woman
54,851443,final-intermixed-textured,v2,jsons/MX_seq7_2_VE1000.json,http://54.235.29.9/FacialAge/BNav_EC2/DepthDuration/MX_fS_VE_MTurk/MX_fS_HTML.html#291,291,1366,768,1366,768,1-8-2024,16-46-14,55,VR_target_stimuli/s1_1.3x_1.7_261.png,1000,1.3x,1.7,6,5899,1001,meters,jsons/MX_seq7_2_VE1000.json,349881,675042,25,Woman
55,851443,final-intermixed-textured,v2,jsons/MX_seq7_2_VE1000.json,http://54.235.29.9/FacialAge/BNav_EC2/DepthDuration/MX_fS_VE_MTurk/MX_fS_HTML.html#291,291,1366,768,1366,768,1-8-2024,16-46-14,56,VR_target_stimuli/s11_1x_5_361_BC.png,1000,1x,5.0,14,5094,995,meters,jsons/MX_seq7_2_VE1000.json,349881,675042,25,Woman
56,851443,final-intermixed-textured,v2,jsons/MX_seq7_2_VE1000.json,http://54.235.29.9/FacialAge/BNav_EC2/DepthDuration/MX_fS_VE_MTurk/MX_fS_HTML.html#291,291,1366,768,1366,768,1-8-2024,16-46-14,57,VR_target_stimuli/s2_0.75x_2.7_384.png,1000,0.75x,2.7,10,10304,996,meters,jsons/MX_seq7_2_VE1000.json,349881,675042,25,Woman
57,851443,final-intermixed-textured,v2,jsons/MX_seq7_2_VE1000.json,http://54.235.29.9/FacialAge/BNav_EC2/DepthDuration/MX_fS_VE_MTurk/MX_fS_HTML.html#291,291,1366,768,1366,768,1-8-2024,16-46-14,58,VR_target_stimuli/s6_0.75x_2.1_290_BC.png,1000,0.75x,2.1,10,3822,995,meters,jsons/MX_seq7_2_VE1000.json,349881,675042,25,Woman
58,851443,final-intermixed-textured,v2,jsons/MX_seq7_2_VE1000.json,http://54.235.29.9/FacialAge/BNav_EC2/DepthDuration/MX_fS_VE_MTurk/MX_fS_HTML.html#291,291,1366,768,1366,768,1-8-2024,16-46-14,59,VR_target_stimuli/s0_1.3x_2.6_356_BC.png,1000,1.3x,2.6,10,3661,993,meters,jsons/MX_seq7_2_VE1000.json,349881,675042,25,Woman
59,851443,final-intermixed-textured,v2,jsons/MX_seq7_2_VE1000.json,http://54.235.29.9/FacialAge/BNav_EC2/DepthDuration/MX_fS_VE_MTurk/MX_fS_HTML.html#291,291,1366,768,1366,768,1-8-2024,16-46-14,60,VR_target_stimuli/s34_1x_2.8_283.png,1000,1x,2.8,11,3743,998,meters,jsons/MX_seq7_2_VE1000.json,349881,675042,25,Woman
