,subjID,experimentName,versionName,sequenceName,url,selected_row,windowWidth,windowHeight,screenWidth,screenHeight,startDate,startTime,trial,stimulus,duration,scale,actual_depth,depth_estimate,trial_RT,log_sceneDuration,unitSelection,seq_filepath,experimentTime,totalTime,age,gender
0,862003,final-intermixed-textured,v2,jsons/MX_seq48_0_VE1000.json,http://54.235.29.9/FacialAge/BNav_EC2/DepthDuration/MX_fS_VE_MTurk/MX_fS_HTML.html#256,256,1366,641,1366,768,1-8-2024,11-46-14,1,VR_target_stimuli/s25_0.75x_1.4_281.png,1000,0.75x,1.4,2,6721,999,meters,jsons/MX_seq48_0_VE1000.json,349388,811196,24,Woman
1,862003,final-intermixed-textured,v2,jsons/MX_seq48_0_VE1000.json,http://54.235.29.9/FacialAge/BNav_EC2/DepthDuration/MX_fS_VE_MTurk/MX_fS_HTML.html#256,256,1366,641,1366,768,1-8-2024,11-46-14,2,VR_target_stimuli/s50_1x_4.53_518_BC.png,1000,1x,4.53,2,9315,999,meters,jsons/MX_seq48_0_VE1000.json,349388,811196,24,Woman
2,862003,final-intermixed-textured,v2,jsons/MX_seq48_0_VE1000.json,http://54.235.29.9/FacialAge/BNav_EC2/DepthDuration/MX_fS_VE_MTurk/MX_fS_HTML.html#256,256,1366,641,1366,768,1-8-2024,11-46-14,3,VR_target_stimuli/s53_1.3x_1.6_355_BC.png,1000,1.3x,1.6,1,6442,1004,meters,jsons/MX_seq48_0_VE1000.json,349388,811196,24,Woman
3,862003,final-intermixed-textured,v2,jsons/MX_seq48_0_VE1000.json,http://54.235.29.9/FacialAge/BNav_EC2/DepthDuration/MX_fS_VE_MTurk/MX_fS_HTML.html#256,256,1366,641,1366,768,1-8-2024,11-46-14,4,VR_target_stimuli/s38_1x_3.55_353.png,1000,1x,3.55,3,5699,989,meters,jsons/MX_seq48_0_VE1000.json,349388,811196,24,Woman
4,862003,final-intermixed-textured,v2,jsons/MX_seq48_0_VE1000.json,http://54.235.29.9/FacialAge/BNav_EC2/DepthDuration/MX_fS_VE_MTurk/MX_fS_HTML.html#256,256,1366,641,1366,768,1-8-2024,11-46-14,5,VR_target_stimuli/s9_0.75x_1.2_260_BC.png,1000,0.75x,1.2,1,4504,997,meters,jsons/MX_seq48_0_VE1000.json,349388,811196,24,Woman
5,862003,final-intermixed-textured,v2,jsons/MX_seq48_0_VE1000.json,http://54.235.29.9/FacialAge/BNav_EC2/DepthDuration/MX_fS_VE_MTurk/MX_fS_HTML.html#256,256,1366,641,1366,768,1-8-2024,11-46-14,6,VR_target_stimuli/s44_1.3x_4.4_325.png,1000,1.3x,4.4,4,3737,987,meters,jsons/MX_seq48_0_VE1000.json,349388,811196,24,Woman
6,862003,final-intermixed-textured,v2,jsons/MX_seq48_0_VE1000.json,http://54.235.29.9/FacialAge/BNav_EC2/DepthDuration/MX_fS_VE_MTurk/MX_fS_HTML.html#256,256,1366,641,1366,768,1-8-2024,11-46-14,7,catch_stimuli/c0.png,1000,,,0,3949,1009,meters,jsons/MX_seq48_0_VE1000.json,349388,811196,24,Woman
7,862003,final-intermixed-textured,v2,jsons/MX_seq48_0_VE1000.json,http://54.235.29.9/FacialAge/BNav_EC2/DepthDuration/MX_fS_VE_MTurk/MX_fS_HTML.html#256,256,1366,641,1366,768,1-8-2024,11-46-14,8,VR_target_stimuli/s3_1.3x_5_390_BC.png,1000,1.3x,5.0,4,4511,1009,meters,jsons/MX_seq48_0_VE1000.json,349388,811196,24,Woman
8,862003,final-intermixed-textured,v2,jsons/MX_seq48_0_VE1000.json,http://54.235.29.9/FacialAge/BNav_EC2/DepthDuration/MX_fS_VE_MTurk/MX_fS_HTML.html#256,256,1366,641,1366,768,1-8-2024,11-46-14,9,VR_target_stimuli/s1_1x_1.7_262.png,1000,1x,1.7,2,4028,999,meters,jsons/MX_seq48_0_VE1000.json,349388,811196,24,Woman
9,862003,final-intermixed-textured,v2,jsons/MX_seq48_0_VE1000.json,http://54.235.29.9/FacialAge/BNav_EC2/DepthDuration/MX_fS_VE_MTurk/MX_fS_HTML.html#256,256,1366,641,1366,768,1-8-2024,11-46-14,10,VR_target_stimuli/s11_0.75x_5_359_BC.png,1000,0.75x,5.0,5,4073,1009,meters,jsons/MX_seq48_0_VE1000.json,349388,811196,24,Woman
10,862003,final-intermixed-textured,v2,jsons/MX_seq48_0_VE1000.json,http://54.235.29.9/FacialAge/BNav_EC2/DepthDuration/MX_fS_VE_MTurk/MX_fS_HTML.html#256,256,1366,641,1366,768,1-8-2024,11-46-14,11,VR_target_stimuli/s2_1x_2.7_390_BC.png,1000,1x,2.7,2,7450,999,meters,jsons/MX_seq48_0_VE1000.json,349388,811196,24,Woman
11,862003,final-intermixed-textured,v2,jsons/MX_seq48_0_VE1000.json,http://54.235.29.9/FacialAge/BNav_EC2/DepthDuration/MX_fS_VE_MTurk/MX_fS_HTML.html#256,256,1366,641,1366,768,1-8-2024,11-46-14,12,VR_target_stimuli/s6_1.3x_2.1_298.png,1000,1.3x,2.1,3,3759,999,meters,jsons/MX_seq48_0_VE1000.json,349388,811196,24,Woman
12,862003,final-intermixed-textured,v2,jsons/MX_seq48_0_VE1000.json,http://54.235.29.9/FacialAge/BNav_EC2/DepthDuration/MX_fS_VE_MTurk/MX_fS_HTML.html#256,256,1366,641,1366,768,1-8-2024,11-46-14,13,VR_target_stimuli/s0_0.75x_2.6_345.png,1000,0.75x,2.6,3,6608,1000,meters,jsons/MX_seq48_0_VE1000.json,349388,811196,24,Woman
13,862003,final-intermixed-textured,v2,jsons/MX_seq48_0_VE1000.json,http://54.235.29.9/FacialAge/BNav_EC2/DepthDuration/MX_fS_VE_MTurk/MX_fS_HTML.html#256,256,1366,641,1366,768,1-8-2024,11-46-14,14,VR_target_stimuli/s34_1.3x_2.8_294_BC.png,1000,1.3x,2.8,4,4817,999,meters,jsons/MX_seq48_0_VE1000.json,349388,811196,24,Woman
14,862003,final-intermixed-textured,v2,jsons/MX_seq48_0_VE1000.json,http://54.235.29.9/FacialAge/BNav_EC2/DepthDuration/MX_fS_VE_MTurk/MX_fS_HTML.html#256,256,1366,641,1366,768,1-8-2024,11-46-14,15,VR_target_stimuli/s13_1x_2.4_310.png,1000,1x,2.4,3,3784,998,meters,jsons/MX_seq48_0_VE1000.json,349388,811196,24,Woman
15,862003,final-intermixed-textured,v2,jsons/MX_seq48_0_VE1000.json,http://54.235.29.9/FacialAge/BNav_EC2/DepthDuration/MX_fS_VE_MTurk/MX_fS_HTML.html#256,256,1366,641,1366,768,1-8-2024,11-46-14,16,VR_target_stimuli/s14_0.75x_3.83_355_BC.png,1000,0.75x,3.83,4,3331,1002,meters,jsons/MX_seq48_0_VE1000.json,349388,811196,24,Woman
16,862003,final-intermixed-textured,v2,jsons/MX_seq48_0_VE1000.json,http://54.235.29.9/FacialAge/BNav_EC2/DepthDuration/MX_fS_VE_MTurk/MX_fS_HTML.html#256,256,1366,641,1366,768,1-8-2024,11-46-14,17,catch_stimuli/c1.png,1000,,,0,3789,1006,meters,jsons/MX_seq48_0_VE1000.json,349388,811196,24,Woman
17,862003,final-intermixed-textured,v2,jsons/MX_seq48_0_VE1000.json,http://54.235.29.9/FacialAge/BNav_EC2/DepthDuration/MX_fS_VE_MTurk/MX_fS_HTML.html#256,256,1366,641,1366,768,1-8-2024,11-46-14,18,VR_target_stimuli/s47_0.75x_3.45_366.png,1000,0.75x,3.45,3,4805,1008,meters,jsons/MX_seq48_0_VE1000.json,349388,811196,24,Woman
18,862003,final-intermixed-textured,v2,jsons/MX_seq48_0_VE1000.json,http://54.235.29.9/FacialAge/BNav_EC2/DepthDuration/MX_fS_VE_MTurk/MX_fS_HTML.html#256,256,1366,641,1366,768,1-8-2024,11-46-14,19,VR_target_stimuli/s29_1.3x_1.3_253.png,1000,1.3x,1.3,2,3555,1006,meters,jsons/MX_seq48_0_VE1000.json,349388,811196,24,Woman
19,862003,final-intermixed-textured,v2,jsons/MX_seq48_0_VE1000.json,http://54.235.29.9/FacialAge/BNav_EC2/DepthDuration/MX_fS_VE_MTurk/MX_fS_HTML.html#256,256,1366,641,1366,768,1-8-2024,11-46-14,20,VR_target_stimuli/s28_1x_3.2_362_BC.png,1000,1x,3.2,4,15435,995,meters,jsons/MX_seq48_0_VE1000.json,349388,811196,24,Woman
20,862003,final-intermixed-textured,v2,jsons/MX_seq48_0_VE1000.json,http://54.235.29.9/FacialAge/BNav_EC2/DepthDuration/MX_fS_VE_MTurk/MX_fS_HTML.html#256,256,1366,641,1366,768,1-8-2024,11-46-14,21,VR_target_stimuli/s48_1.3x_2.55_255_BC.png,1000,1.3x,2.55,3,4095,999,meters,jsons/MX_seq48_0_VE1000.json,349388,811196,24,Woman
21,862003,final-intermixed-textured,v2,jsons/MX_seq48_0_VE1000.json,http://54.235.29.9/FacialAge/BNav_EC2/DepthDuration/MX_fS_VE_MTurk/MX_fS_HTML.html#256,256,1366,641,1366,768,1-8-2024,11-46-14,22,VR_target_stimuli/s19_0.75x_1.21_257_BC.png,1000,0.75x,1.21,1,4215,999,meters,jsons/MX_seq48_0_VE1000.json,349388,811196,24,Woman
22,862003,final-intermixed-textured,v2,jsons/MX_seq48_0_VE1000.json,http://54.235.29.9/FacialAge/BNav_EC2/DepthDuration/MX_fS_VE_MTurk/MX_fS_HTML.html#256,256,1366,641,1366,768,1-8-2024,11-46-14,23,VR_target_stimuli/s21_1x_4.22_379.png,1000,1x,4.22,6,5797,985,meters,jsons/MX_seq48_0_VE1000.json,349388,811196,24,Woman
23,862003,final-intermixed-textured,v2,jsons/MX_seq48_0_VE1000.json,http://54.235.29.9/FacialAge/BNav_EC2/DepthDuration/MX_fS_VE_MTurk/MX_fS_HTML.html#256,256,1366,641,1366,768,1-8-2024,11-46-14,24,VR_target_stimuli/s8_0.75x_3.1_325.png,1000,0.75x,3.1,4,6347,1009,meters,jsons/MX_seq48_0_VE1000.json,349388,811196,24,Woman
24,862003,final-intermixed-textured,v2,jsons/MX_seq48_0_VE1000.json,http://54.235.29.9/FacialAge/BNav_EC2/DepthDuration/MX_fS_VE_MTurk/MX_fS_HTML.html#256,256,1366,641,1366,768,1-8-2024,11-46-14,25,VR_target_stimuli/s27_1.3x_1.76_250.png,1000,1.3x,1.76,2,5142,1008,meters,jsons/MX_seq48_0_VE1000.json,349388,811196,24,Woman
25,862003,final-intermixed-textured,v2,jsons/MX_seq48_0_VE1000.json,http://54.235.29.9/FacialAge/BNav_EC2/DepthDuration/MX_fS_VE_MTurk/MX_fS_HTML.html#256,256,1366,641,1366,768,1-8-2024,11-46-14,26,catch_stimuli/c2.png,1000,,,0,3759,999,meters,jsons/MX_seq48_0_VE1000.json,349388,811196,24,Woman
26,862003,final-intermixed-textured,v2,jsons/MX_seq48_0_VE1000.json,http://54.235.29.9/FacialAge/BNav_EC2/DepthDuration/MX_fS_VE_MTurk/MX_fS_HTML.html#256,256,1366,641,1366,768,1-8-2024,11-46-14,27,VR_target_stimuli/s15_1x_4.2_390_BC.png,1000,1x,4.2,5,3774,997,meters,jsons/MX_seq48_0_VE1000.json,349388,811196,24,Woman
27,862003,final-intermixed-textured,v2,jsons/MX_seq48_0_VE1000.json,http://54.235.29.9/FacialAge/BNav_EC2/DepthDuration/MX_fS_VE_MTurk/MX_fS_HTML.html#256,256,1366,641,1366,768,1-8-2024,11-46-14,28,VR_target_stimuli/s4_1x_1.4_313.png,1000,1x,1.4,2,5913,989,meters,jsons/MX_seq48_0_VE1000.json,349388,811196,24,Woman
28,862003,final-intermixed-textured,v2,jsons/MX_seq48_0_VE1000.json,http://54.235.29.9/FacialAge/BNav_EC2/DepthDuration/MX_fS_VE_MTurk/MX_fS_HTML.html#256,256,1366,641,1366,768,1-8-2024,11-46-14,29,VR_target_stimuli/s35_0.75x_2_323.png,1000,0.75x,2.0,3,7428,987,meters,jsons/MX_seq48_0_VE1000.json,349388,811196,24,Woman
29,862003,final-intermixed-textured,v2,jsons/MX_seq48_0_VE1000.json,http://54.235.29.9/FacialAge/BNav_EC2/DepthDuration/MX_fS_VE_MTurk/MX_fS_HTML.html#256,256,1366,641,1366,768,1-8-2024,11-46-14,30,VR_target_stimuli/s49_1.3x_4.67_354.png,1000,1.3x,4.67,4,6009,1005,meters,jsons/MX_seq48_0_VE1000.json,349388,811196,24,Woman
30,862003,final-intermixed-textured,v2,jsons/MX_seq48_0_VE1000.json,http://54.235.29.9/FacialAge/BNav_EC2/DepthDuration/MX_fS_VE_MTurk/MX_fS_HTML.html#256,256,1366,641,1366,768,1-8-2024,11-46-14,31,VR_target_stimuli/s7_1x_1.5_255_BC.png,1000,1x,1.5,2,3825,987,meters,jsons/MX_seq48_0_VE1000.json,349388,811196,24,Woman
31,862003,final-intermixed-textured,v2,jsons/MX_seq48_0_VE1000.json,http://54.235.29.9/FacialAge/BNav_EC2/DepthDuration/MX_fS_VE_MTurk/MX_fS_HTML.html#256,256,1366,641,1366,768,1-8-2024,11-46-14,32,VR_target_stimuli/s20_1.3x_4.99_412_BC.png,1000,1.3x,4.99,5,7263,999,meters,jsons/MX_seq48_0_VE1000.json,349388,811196,24,Woman
32,862003,final-intermixed-textured,v2,jsons/MX_seq48_0_VE1000.json,http://54.235.29.9/FacialAge/BNav_EC2/DepthDuration/MX_fS_VE_MTurk/MX_fS_HTML.html#256,256,1366,641,1366,768,1-8-2024,11-46-14,33,VR_target_stimuli/s31_0.75x_4.96_329_BC.png,1000,0.75x,4.96,5,5919,1000,meters,jsons/MX_seq48_0_VE1000.json,349388,811196,24,Woman
33,862003,final-intermixed-textured,v2,jsons/MX_seq48_0_VE1000.json,http://54.235.29.9/FacialAge/BNav_EC2/DepthDuration/MX_fS_VE_MTurk/MX_fS_HTML.html#256,256,1366,641,1366,768,1-8-2024,11-46-14,34,catch_stimuli/c3.png,1000,,,0,3299,1007,meters,jsons/MX_seq48_0_VE1000.json,349388,811196,24,Woman
34,862003,final-intermixed-textured,v2,jsons/MX_seq48_0_VE1000.json,http://54.235.29.9/FacialAge/BNav_EC2/DepthDuration/MX_fS_VE_MTurk/MX_fS_HTML.html#256,256,1366,641,1366,768,1-8-2024,11-46-14,35,VR_target_stimuli/s33_1.3x_3.1_378.png,1000,1.3x,3.1,3,5217,999,meters,jsons/MX_seq48_0_VE1000.json,349388,811196,24,Woman
35,862003,final-intermixed-textured,v2,jsons/MX_seq48_0_VE1000.json,http://54.235.29.9/FacialAge/BNav_EC2/DepthDuration/MX_fS_VE_MTurk/MX_fS_HTML.html#256,256,1366,641,1366,768,1-8-2024,11-46-14,36,VR_target_stimuli/s52_1x_3.2_275_BC.png,1000,1x,3.2,5,5431,1007,meters,jsons/MX_seq48_0_VE1000.json,349388,811196,24,Woman
36,862003,final-intermixed-textured,v2,jsons/MX_seq48_0_VE1000.json,http://54.235.29.9/FacialAge/BNav_EC2/DepthDuration/MX_fS_VE_MTurk/MX_fS_HTML.html#256,256,1366,641,1366,768,1-8-2024,11-46-14,37,VR_target_stimuli/s32_0.75x_1.5_213_BC.png,1000,0.75x,1.5,2,4373,999,meters,jsons/MX_seq48_0_VE1000.json,349388,811196,24,Woman
37,862003,final-intermixed-textured,v2,jsons/MX_seq48_0_VE1000.json,http://54.235.29.9/FacialAge/BNav_EC2/DepthDuration/MX_fS_VE_MTurk/MX_fS_HTML.html#256,256,1366,641,1366,768,1-8-2024,11-46-14,38,VR_target_stimuli/s18_0.75x_2.25_341.png,1000,0.75x,2.25,3,3406,993,meters,jsons/MX_seq48_0_VE1000.json,349388,811196,24,Woman
38,862003,final-intermixed-textured,v2,jsons/MX_seq48_0_VE1000.json,http://54.235.29.9/FacialAge/BNav_EC2/DepthDuration/MX_fS_VE_MTurk/MX_fS_HTML.html#256,256,1366,641,1366,768,1-8-2024,11-46-14,39,VR_target_stimuli/s39_1.3x_1_208_BC.png,1000,1.3x,1.0,2,6101,998,meters,jsons/MX_seq48_0_VE1000.json,349388,811196,24,Woman
39,862003,final-intermixed-textured,v2,jsons/MX_seq48_0_VE1000.json,http://54.235.29.9/FacialAge/BNav_EC2/DepthDuration/MX_fS_VE_MTurk/MX_fS_HTML.html#256,256,1366,641,1366,768,1-8-2024,11-46-14,40,VR_target_stimuli/s51_1x_3.64_461.png,1000,1x,3.64,4,3203,998,meters,jsons/MX_seq48_0_VE1000.json,349388,811196,24,Woman
40,862003,final-intermixed-textured,v2,jsons/MX_seq48_0_VE1000.json,http://54.235.29.9/FacialAge/BNav_EC2/DepthDuration/MX_fS_VE_MTurk/MX_fS_HTML.html#256,256,1366,641,1366,768,1-8-2024,11-46-14,41,VR_target_stimuli/s43_1.3x_2.2_363_BC.png,1000,1.3x,2.2,3,5997,998,meters,jsons/MX_seq48_0_VE1000.json,349388,811196,24,Woman
41,862003,final-intermixed-textured,v2,jsons/MX_seq48_0_VE1000.json,http://54.235.29.9/FacialAge/BNav_EC2/DepthDuration/MX_fS_VE_MTurk/MX_fS_HTML.html#256,256,1366,641,1366,768,1-8-2024,11-46-14,42,VR_target_stimuli/s24_0.75x_3.3_344_BC.png,1000,0.75x,3.3,4,3552,998,meters,jsons/MX_seq48_0_VE1000.json,349388,811196,24,Woman
42,862003,final-intermixed-textured,v2,jsons/MX_seq48_0_VE1000.json,http://54.235.29.9/FacialAge/BNav_EC2/DepthDuration/MX_fS_VE_MTurk/MX_fS_HTML.html#256,256,1366,641,1366,768,1-8-2024,11-46-14,43,VR_target_stimuli/s10_1x_2.7_324_BC.png,1000,1x,2.7,4,3279,1011,meters,jsons/MX_seq48_0_VE1000.json,349388,811196,24,Woman
43,862003,final-intermixed-textured,v2,jsons/MX_seq48_0_VE1000.json,http://54.235.29.9/FacialAge/BNav_EC2/DepthDuration/MX_fS_VE_MTurk/MX_fS_HTML.html#256,256,1366,641,1366,768,1-8-2024,11-46-14,44,VR_target_stimuli/s36_0.75x_4.1_407.png,1000,0.75x,4.1,6,3577,1000,meters,jsons/MX_seq48_0_VE1000.json,349388,811196,24,Woman
44,862003,final-intermixed-textured,v2,jsons/MX_seq48_0_VE1000.json,http://54.235.29.9/FacialAge/BNav_EC2/DepthDuration/MX_fS_VE_MTurk/MX_fS_HTML.html#256,256,1366,641,1366,768,1-8-2024,11-46-14,45,catch_stimuli/c4.png,1000,,,0,3736,997,meters,jsons/MX_seq48_0_VE1000.json,349388,811196,24,Woman
45,862003,final-intermixed-textured,v2,jsons/MX_seq48_0_VE1000.json,http://54.235.29.9/FacialAge/BNav_EC2/DepthDuration/MX_fS_VE_MTurk/MX_fS_HTML.html#256,256,1366,641,1366,768,1-8-2024,11-46-14,46,VR_target_stimuli/s40_1.3x_1.2_332.png,1000,1.3x,1.2,1,3168,992,meters,jsons/MX_seq48_0_VE1000.json,349388,811196,24,Woman
46,862003,final-intermixed-textured,v2,jsons/MX_seq48_0_VE1000.json,http://54.235.29.9/FacialAge/BNav_EC2/DepthDuration/MX_fS_VE_MTurk/MX_fS_HTML.html#256,256,1366,641,1366,768,1-8-2024,11-46-14,47,VR_target_stimuli/s41_1x_2.1_286.png,1000,1x,2.1,3,3853,1007,meters,jsons/MX_seq48_0_VE1000.json,349388,811196,24,Woman
47,862003,final-intermixed-textured,v2,jsons/MX_seq48_0_VE1000.json,http://54.235.29.9/FacialAge/BNav_EC2/DepthDuration/MX_fS_VE_MTurk/MX_fS_HTML.html#256,256,1366,641,1366,768,1-8-2024,11-46-14,48,VR_target_stimuli/s45_1x_3.5_368_BC.png,1000,1x,3.5,3,13605,993,meters,jsons/MX_seq48_0_VE1000.json,349388,811196,24,Woman
48,862003,final-intermixed-textured,v2,jsons/MX_seq48_0_VE1000.json,http://54.235.29.9/FacialAge/BNav_EC2/DepthDuration/MX_fS_VE_MTurk/MX_fS_HTML.html#256,256,1366,641,1366,768,1-8-2024,11-46-14,49,VR_target_stimuli/s23_0.75x_3.65_351.png,1000,0.75x,3.65,5,6598,1009,meters,jsons/MX_seq48_0_VE1000.json,349388,811196,24,Woman
49,862003,final-intermixed-textured,v2,jsons/MX_seq48_0_VE1000.json,http://54.235.29.9/FacialAge/BNav_EC2/DepthDuration/MX_fS_VE_MTurk/MX_fS_HTML.html#256,256,1366,641,1366,768,1-8-2024,11-46-14,50,VR_target_stimuli/s26_1.3x_4_441.png,1000,1.3x,4.0,3,7648,996,meters,jsons/MX_seq48_0_VE1000.json,349388,811196,24,Woman
50,862003,final-intermixed-textured,v2,jsons/MX_seq48_0_VE1000.json,http://54.235.29.9/FacialAge/BNav_EC2/DepthDuration/MX_fS_VE_MTurk/MX_fS_HTML.html#256,256,1366,641,1366,768,1-8-2024,11-46-14,51,VR_target_stimuli/s12_0.75x_3.1_364_BC.png,1000,0.75x,3.1,4,3900,1008,meters,jsons/MX_seq48_0_VE1000.json,349388,811196,24,Woman
51,862003,final-intermixed-textured,v2,jsons/MX_seq48_0_VE1000.json,http://54.235.29.9/FacialAge/BNav_EC2/DepthDuration/MX_fS_VE_MTurk/MX_fS_HTML.html#256,256,1366,641,1366,768,1-8-2024,11-46-14,52,VR_target_stimuli/s30_1x_2.3_334.png,1000,1x,2.3,3,4371,999,meters,jsons/MX_seq48_0_VE1000.json,349388,811196,24,Woman
52,862003,final-intermixed-textured,v2,jsons/MX_seq48_0_VE1000.json,http://54.235.29.9/FacialAge/BNav_EC2/DepthDuration/MX_fS_VE_MTurk/MX_fS_HTML.html#256,256,1366,641,1366,768,1-8-2024,11-46-14,53,catch_stimuli/c5.png,1000,,,0,5439,999,meters,jsons/MX_seq48_0_VE1000.json,349388,811196,24,Woman
53,862003,final-intermixed-textured,v2,jsons/MX_seq48_0_VE1000.json,http://54.235.29.9/FacialAge/BNav_EC2/DepthDuration/MX_fS_VE_MTurk/MX_fS_HTML.html#256,256,1366,641,1366,768,1-8-2024,11-46-14,54,VR_target_stimuli/s16_1.3x_1_223_BC.png,1000,1.3x,1.0,1,3749,994,meters,jsons/MX_seq48_0_VE1000.json,349388,811196,24,Woman
54,862003,final-intermixed-textured,v2,jsons/MX_seq48_0_VE1000.json,http://54.235.29.9/FacialAge/BNav_EC2/DepthDuration/MX_fS_VE_MTurk/MX_fS_HTML.html#256,256,1366,641,1366,768,1-8-2024,11-46-14,55,VR_target_stimuli/s17_1x_1.8_291_BC.png,1000,1x,1.8,3,3985,998,meters,jsons/MX_seq48_0_VE1000.json,349388,811196,24,Woman
55,862003,final-intermixed-textured,v2,jsons/MX_seq48_0_VE1000.json,http://54.235.29.9/FacialAge/BNav_EC2/DepthDuration/MX_fS_VE_MTurk/MX_fS_HTML.html#256,256,1366,641,1366,768,1-8-2024,11-46-14,56,VR_target_stimuli/s5_0.75x_4_375.png,1000,0.75x,4.0,4,3960,999,meters,jsons/MX_seq48_0_VE1000.json,349388,811196,24,Woman
56,862003,final-intermixed-textured,v2,jsons/MX_seq48_0_VE1000.json,http://54.235.29.9/FacialAge/BNav_EC2/DepthDuration/MX_fS_VE_MTurk/MX_fS_HTML.html#256,256,1366,641,1366,768,1-8-2024,11-46-14,57,VR_target_stimuli/s37_1.3x_3.3_555.png,1000,1.3x,3.3,2,4521,989,meters,jsons/MX_seq48_0_VE1000.json,349388,811196,24,Woman
57,862003,final-intermixed-textured,v2,jsons/MX_seq48_0_VE1000.json,http://54.235.29.9/FacialAge/BNav_EC2/DepthDuration/MX_fS_VE_MTurk/MX_fS_HTML.html#256,256,1366,641,1366,768,1-8-2024,11-46-14,58,VR_target_stimuli/s46_1.3x_2.42_354_BC.png,1000,1.3x,2.42,4,4907,993,meters,jsons/MX_seq48_0_VE1000.json,349388,811196,24,Woman
58,862003,final-intermixed-textured,v2,jsons/MX_seq48_0_VE1000.json,http://54.235.29.9/FacialAge/BNav_EC2/DepthDuration/MX_fS_VE_MTurk/MX_fS_HTML.html#256,256,1366,641,1366,768,1-8-2024,11-46-14,59,VR_target_stimuli/s22_1x_4.29_354.png,1000,1x,4.29,5,14047,989,meters,jsons/MX_seq48_0_VE1000.json,349388,811196,24,Woman
59,862003,final-intermixed-textured,v2,jsons/MX_seq48_0_VE1000.json,http://54.235.29.9/FacialAge/BNav_EC2/DepthDuration/MX_fS_VE_MTurk/MX_fS_HTML.html#256,256,1366,641,1366,768,1-8-2024,11-46-14,60,VR_target_stimuli/s42_0.75x_3.2_301_BC.png,1000,0.75x,3.2,5,4258,1000,meters,jsons/MX_seq48_0_VE1000.json,349388,811196,24,Woman
