,subjID,experimentName,versionName,sequenceName,url,selected_row,windowWidth,windowHeight,screenWidth,screenHeight,startDate,startTime,trial,stimulus,duration,scale,actual_depth,depth_estimate,trial_RT,log_sceneDuration,unitSelection,seq_filepath,experimentTime,totalTime,age,gender
0,865302,final-intermixed-textured,v2,jsons/MX_seq29_1_VE1000_flipped.json,http://54.235.29.9/FacialAge/BNav_EC2/DepthDuration/MX_fS_VE_MTurk/MX_fS_HTML.html#278,278,1920,957,1920,1080,1-8-2024,16-53-37,1,VR_target_stimuli/s51_1.3x_3.64_479_BC.png,1000,1.3x,3.64,0.0,6895,991,meters,jsons/MX_seq29_1_VE1000_flipped.json,331914,622041,53,Man
1,865302,final-intermixed-textured,v2,jsons/MX_seq29_1_VE1000_flipped.json,http://54.235.29.9/FacialAge/BNav_EC2/DepthDuration/MX_fS_VE_MTurk/MX_fS_HTML.html#278,278,1920,957,1920,1080,1-8-2024,16-53-37,2,VR_target_stimuli/s43_0.75x_2.2_348.png,1000,0.75x,2.2,4.8,13838,1008,meters,jsons/MX_seq29_1_VE1000_flipped.json,331914,622041,53,Man
2,865302,final-intermixed-textured,v2,jsons/MX_seq29_1_VE1000_flipped.json,http://54.235.29.9/FacialAge/BNav_EC2/DepthDuration/MX_fS_VE_MTurk/MX_fS_HTML.html#278,278,1920,957,1920,1080,1-8-2024,16-53-37,3,VR_target_stimuli/s24_1x_3.3_349_BC.png,1000,1x,3.3,6.0,4506,992,meters,jsons/MX_seq29_1_VE1000_flipped.json,331914,622041,53,Man
3,865302,final-intermixed-textured,v2,jsons/MX_seq29_1_VE1000_flipped.json,http://54.235.29.9/FacialAge/BNav_EC2/DepthDuration/MX_fS_VE_MTurk/MX_fS_HTML.html#278,278,1920,957,1920,1080,1-8-2024,16-53-37,4,VR_target_stimuli/s10_0.75x_2.7_321_BC.png,1000,0.75x,2.7,3.3,6069,997,meters,jsons/MX_seq29_1_VE1000_flipped.json,331914,622041,53,Man
4,865302,final-intermixed-textured,v2,jsons/MX_seq29_1_VE1000_flipped.json,http://54.235.29.9/FacialAge/BNav_EC2/DepthDuration/MX_fS_VE_MTurk/MX_fS_HTML.html#278,278,1920,957,1920,1080,1-8-2024,16-53-37,5,VR_target_stimuli/s36_1.3x_4.1_442.png,1000,1.3x,4.1,0.0,3702,998,meters,jsons/MX_seq29_1_VE1000_flipped.json,331914,622041,53,Man
5,865302,final-intermixed-textured,v2,jsons/MX_seq29_1_VE1000_flipped.json,http://54.235.29.9/FacialAge/BNav_EC2/DepthDuration/MX_fS_VE_MTurk/MX_fS_HTML.html#278,278,1920,957,1920,1080,1-8-2024,16-53-37,6,VR_target_stimuli/s40_1x_1.2_319.png,1000,1x,1.2,2.2,6979,999,meters,jsons/MX_seq29_1_VE1000_flipped.json,331914,622041,53,Man
6,865302,final-intermixed-textured,v2,jsons/MX_seq29_1_VE1000_flipped.json,http://54.235.29.9/FacialAge/BNav_EC2/DepthDuration/MX_fS_VE_MTurk/MX_fS_HTML.html#278,278,1920,957,1920,1080,1-8-2024,16-53-37,7,catch_stimuli/c0_BC.png,1000,,,0.0,3915,1000,meters,jsons/MX_seq29_1_VE1000_flipped.json,331914,622041,53,Man
7,865302,final-intermixed-textured,v2,jsons/MX_seq29_1_VE1000_flipped.json,http://54.235.29.9/FacialAge/BNav_EC2/DepthDuration/MX_fS_VE_MTurk/MX_fS_HTML.html#278,278,1920,957,1920,1080,1-8-2024,16-53-37,8,VR_target_stimuli/s41_1x_2.1_286_BC.png,1000,1x,2.1,4.0,4482,1007,meters,jsons/MX_seq29_1_VE1000_flipped.json,331914,622041,53,Man
8,865302,final-intermixed-textured,v2,jsons/MX_seq29_1_VE1000_flipped.json,http://54.235.29.9/FacialAge/BNav_EC2/DepthDuration/MX_fS_VE_MTurk/MX_fS_HTML.html#278,278,1920,957,1920,1080,1-8-2024,16-53-37,9,VR_target_stimuli/s45_0.75x_3.5_362.png,1000,0.75x,3.5,4.6,4475,998,meters,jsons/MX_seq29_1_VE1000_flipped.json,331914,622041,53,Man
9,865302,final-intermixed-textured,v2,jsons/MX_seq29_1_VE1000_flipped.json,http://54.235.29.9/FacialAge/BNav_EC2/DepthDuration/MX_fS_VE_MTurk/MX_fS_HTML.html#278,278,1920,957,1920,1080,1-8-2024,16-53-37,10,VR_target_stimuli/s23_1.3x_3.65_354.png,1000,1.3x,3.65,6.0,6698,999,meters,jsons/MX_seq29_1_VE1000_flipped.json,331914,622041,53,Man
10,865302,final-intermixed-textured,v2,jsons/MX_seq29_1_VE1000_flipped.json,http://54.235.29.9/FacialAge/BNav_EC2/DepthDuration/MX_fS_VE_MTurk/MX_fS_HTML.html#278,278,1920,957,1920,1080,1-8-2024,16-53-37,11,VR_target_stimuli/s26_0.75x_4_430_BC.png,1000,0.75x,4.0,0.0,3517,997,meters,jsons/MX_seq29_1_VE1000_flipped.json,331914,622041,53,Man
11,865302,final-intermixed-textured,v2,jsons/MX_seq29_1_VE1000_flipped.json,http://54.235.29.9/FacialAge/BNav_EC2/DepthDuration/MX_fS_VE_MTurk/MX_fS_HTML.html#278,278,1920,957,1920,1080,1-8-2024,16-53-37,12,VR_target_stimuli/s12_1x_3.1_372.png,1000,1x,3.1,0.0,3916,1010,meters,jsons/MX_seq29_1_VE1000_flipped.json,331914,622041,53,Man
12,865302,final-intermixed-textured,v2,jsons/MX_seq29_1_VE1000_flipped.json,http://54.235.29.9/FacialAge/BNav_EC2/DepthDuration/MX_fS_VE_MTurk/MX_fS_HTML.html#278,278,1920,957,1920,1080,1-8-2024,16-53-37,13,VR_target_stimuli/s30_1.3x_2.3_337_BC.png,1000,1.3x,2.3,0.0,4040,993,meters,jsons/MX_seq29_1_VE1000_flipped.json,331914,622041,53,Man
13,865302,final-intermixed-textured,v2,jsons/MX_seq29_1_VE1000_flipped.json,http://54.235.29.9/FacialAge/BNav_EC2/DepthDuration/MX_fS_VE_MTurk/MX_fS_HTML.html#278,278,1920,957,1920,1080,1-8-2024,16-53-37,14,VR_target_stimuli/s16_1x_1_219_BC.png,1000,1x,1.0,0.0,14914,1011,meters,jsons/MX_seq29_1_VE1000_flipped.json,331914,622041,53,Man
14,865302,final-intermixed-textured,v2,jsons/MX_seq29_1_VE1000_flipped.json,http://54.235.29.9/FacialAge/BNav_EC2/DepthDuration/MX_fS_VE_MTurk/MX_fS_HTML.html#278,278,1920,957,1920,1080,1-8-2024,16-53-37,15,VR_target_stimuli/s17_0.75x_1.8_285.png,1000,0.75x,1.8,0.0,4233,1000,meters,jsons/MX_seq29_1_VE1000_flipped.json,331914,622041,53,Man
15,865302,final-intermixed-textured,v2,jsons/MX_seq29_1_VE1000_flipped.json,http://54.235.29.9/FacialAge/BNav_EC2/DepthDuration/MX_fS_VE_MTurk/MX_fS_HTML.html#278,278,1920,957,1920,1080,1-8-2024,16-53-37,16,VR_target_stimuli/s5_1.3x_4_393.png,1000,1.3x,4.0,0.0,3420,1000,meters,jsons/MX_seq29_1_VE1000_flipped.json,331914,622041,53,Man
16,865302,final-intermixed-textured,v2,jsons/MX_seq29_1_VE1000_flipped.json,http://54.235.29.9/FacialAge/BNav_EC2/DepthDuration/MX_fS_VE_MTurk/MX_fS_HTML.html#278,278,1920,957,1920,1080,1-8-2024,16-53-37,17,catch_stimuli/c1_BC.png,1000,,,0.0,2863,997,meters,jsons/MX_seq29_1_VE1000_flipped.json,331914,622041,53,Man
17,865302,final-intermixed-textured,v2,jsons/MX_seq29_1_VE1000_flipped.json,http://54.235.29.9/FacialAge/BNav_EC2/DepthDuration/MX_fS_VE_MTurk/MX_fS_HTML.html#278,278,1920,957,1920,1080,1-8-2024,16-53-37,18,VR_target_stimuli/s37_1.3x_3.3_555_BC.png,1000,1.3x,3.3,3.0,3509,1004,meters,jsons/MX_seq29_1_VE1000_flipped.json,331914,622041,53,Man
18,865302,final-intermixed-textured,v2,jsons/MX_seq29_1_VE1000_flipped.json,http://54.235.29.9/FacialAge/BNav_EC2/DepthDuration/MX_fS_VE_MTurk/MX_fS_HTML.html#278,278,1920,957,1920,1080,1-8-2024,16-53-37,19,VR_target_stimuli/s46_1x_2.42_348.png,1000,1x,2.42,0.0,3221,995,meters,jsons/MX_seq29_1_VE1000_flipped.json,331914,622041,53,Man
19,865302,final-intermixed-textured,v2,jsons/MX_seq29_1_VE1000_flipped.json,http://54.235.29.9/FacialAge/BNav_EC2/DepthDuration/MX_fS_VE_MTurk/MX_fS_HTML.html#278,278,1920,957,1920,1080,1-8-2024,16-53-37,20,VR_target_stimuli/s22_0.75x_4.29_348_BC.png,1000,0.75x,4.29,6.0,4091,1011,meters,jsons/MX_seq29_1_VE1000_flipped.json,331914,622041,53,Man
20,865302,final-intermixed-textured,v2,jsons/MX_seq29_1_VE1000_flipped.json,http://54.235.29.9/FacialAge/BNav_EC2/DepthDuration/MX_fS_VE_MTurk/MX_fS_HTML.html#278,278,1920,957,1920,1080,1-8-2024,16-53-37,21,VR_target_stimuli/s42_1x_3.2_303_BC.png,1000,1x,3.2,0.0,3163,999,meters,jsons/MX_seq29_1_VE1000_flipped.json,331914,622041,53,Man
21,865302,final-intermixed-textured,v2,jsons/MX_seq29_1_VE1000_flipped.json,http://54.235.29.9/FacialAge/BNav_EC2/DepthDuration/MX_fS_VE_MTurk/MX_fS_HTML.html#278,278,1920,957,1920,1080,1-8-2024,16-53-37,22,VR_target_stimuli/s25_1.3x_1.4_299_BC.png,1000,1.3x,1.4,3.5,10340,997,meters,jsons/MX_seq29_1_VE1000_flipped.json,331914,622041,53,Man
22,865302,final-intermixed-textured,v2,jsons/MX_seq29_1_VE1000_flipped.json,http://54.235.29.9/FacialAge/BNav_EC2/DepthDuration/MX_fS_VE_MTurk/MX_fS_HTML.html#278,278,1920,957,1920,1080,1-8-2024,16-53-37,23,VR_target_stimuli/s50_0.75x_4.53_517.png,1000,0.75x,4.53,4.0,6425,997,meters,jsons/MX_seq29_1_VE1000_flipped.json,331914,622041,53,Man
23,865302,final-intermixed-textured,v2,jsons/MX_seq29_1_VE1000_flipped.json,http://54.235.29.9/FacialAge/BNav_EC2/DepthDuration/MX_fS_VE_MTurk/MX_fS_HTML.html#278,278,1920,957,1920,1080,1-8-2024,16-53-37,24,VR_target_stimuli/s53_1.3x_1.6_355.png,1000,1.3x,1.6,1.5,8465,1007,meters,jsons/MX_seq29_1_VE1000_flipped.json,331914,622041,53,Man
24,865302,final-intermixed-textured,v2,jsons/MX_seq29_1_VE1000_flipped.json,http://54.235.29.9/FacialAge/BNav_EC2/DepthDuration/MX_fS_VE_MTurk/MX_fS_HTML.html#278,278,1920,957,1920,1080,1-8-2024,16-53-37,25,VR_target_stimuli/s38_1x_3.55_353.png,1000,1x,3.55,5.5,5507,999,meters,jsons/MX_seq29_1_VE1000_flipped.json,331914,622041,53,Man
25,865302,final-intermixed-textured,v2,jsons/MX_seq29_1_VE1000_flipped.json,http://54.235.29.9/FacialAge/BNav_EC2/DepthDuration/MX_fS_VE_MTurk/MX_fS_HTML.html#278,278,1920,957,1920,1080,1-8-2024,16-53-37,26,catch_stimuli/c2_BC.png,1000,,,0.0,3843,1009,meters,jsons/MX_seq29_1_VE1000_flipped.json,331914,622041,53,Man
26,865302,final-intermixed-textured,v2,jsons/MX_seq29_1_VE1000_flipped.json,http://54.235.29.9/FacialAge/BNav_EC2/DepthDuration/MX_fS_VE_MTurk/MX_fS_HTML.html#278,278,1920,957,1920,1080,1-8-2024,16-53-37,27,VR_target_stimuli/s9_0.75x_1.2_260_BC.png,1000,0.75x,1.2,0.0,12769,1000,meters,jsons/MX_seq29_1_VE1000_flipped.json,331914,622041,53,Man
27,865302,final-intermixed-textured,v2,jsons/MX_seq29_1_VE1000_flipped.json,http://54.235.29.9/FacialAge/BNav_EC2/DepthDuration/MX_fS_VE_MTurk/MX_fS_HTML.html#278,278,1920,957,1920,1080,1-8-2024,16-53-37,28,VR_target_stimuli/s44_0.75x_4.4_314_BC.png,1000,0.75x,4.4,6.0,8407,996,meters,jsons/MX_seq29_1_VE1000_flipped.json,331914,622041,53,Man
28,865302,final-intermixed-textured,v2,jsons/MX_seq29_1_VE1000_flipped.json,http://54.235.29.9/FacialAge/BNav_EC2/DepthDuration/MX_fS_VE_MTurk/MX_fS_HTML.html#278,278,1920,957,1920,1080,1-8-2024,16-53-37,29,VR_target_stimuli/s3_1.3x_5_390.png,1000,1.3x,5.0,0.0,3786,990,meters,jsons/MX_seq29_1_VE1000_flipped.json,331914,622041,53,Man
29,865302,final-intermixed-textured,v2,jsons/MX_seq29_1_VE1000_flipped.json,http://54.235.29.9/FacialAge/BNav_EC2/DepthDuration/MX_fS_VE_MTurk/MX_fS_HTML.html#278,278,1920,957,1920,1080,1-8-2024,16-53-37,30,VR_target_stimuli/s1_1x_1.7_262_BC.png,1000,1x,1.7,3.4,5464,1000,meters,jsons/MX_seq29_1_VE1000_flipped.json,331914,622041,53,Man
30,865302,final-intermixed-textured,v2,jsons/MX_seq29_1_VE1000_flipped.json,http://54.235.29.9/FacialAge/BNav_EC2/DepthDuration/MX_fS_VE_MTurk/MX_fS_HTML.html#278,278,1920,957,1920,1080,1-8-2024,16-53-37,31,VR_target_stimuli/s11_0.75x_5_359.png,1000,0.75x,5.0,0.0,3496,999,meters,jsons/MX_seq29_1_VE1000_flipped.json,331914,622041,53,Man
31,865302,final-intermixed-textured,v2,jsons/MX_seq29_1_VE1000_flipped.json,http://54.235.29.9/FacialAge/BNav_EC2/DepthDuration/MX_fS_VE_MTurk/MX_fS_HTML.html#278,278,1920,957,1920,1080,1-8-2024,16-53-37,32,VR_target_stimuli/s2_1x_2.7_390.png,1000,1x,2.7,0.0,2888,1001,meters,jsons/MX_seq29_1_VE1000_flipped.json,331914,622041,53,Man
32,865302,final-intermixed-textured,v2,jsons/MX_seq29_1_VE1000_flipped.json,http://54.235.29.9/FacialAge/BNav_EC2/DepthDuration/MX_fS_VE_MTurk/MX_fS_HTML.html#278,278,1920,957,1920,1080,1-8-2024,16-53-37,33,VR_target_stimuli/s6_1.3x_2.1_298_BC.png,1000,1.3x,2.1,4.0,4171,1012,meters,jsons/MX_seq29_1_VE1000_flipped.json,331914,622041,53,Man
33,865302,final-intermixed-textured,v2,jsons/MX_seq29_1_VE1000_flipped.json,http://54.235.29.9/FacialAge/BNav_EC2/DepthDuration/MX_fS_VE_MTurk/MX_fS_HTML.html#278,278,1920,957,1920,1080,1-8-2024,16-53-37,34,catch_stimuli/c3_BC.png,1000,,,0.0,3384,1001,meters,jsons/MX_seq29_1_VE1000_flipped.json,331914,622041,53,Man
34,865302,final-intermixed-textured,v2,jsons/MX_seq29_1_VE1000_flipped.json,http://54.235.29.9/FacialAge/BNav_EC2/DepthDuration/MX_fS_VE_MTurk/MX_fS_HTML.html#278,278,1920,957,1920,1080,1-8-2024,16-53-37,35,VR_target_stimuli/s0_1x_2.6_351.png,1000,1x,2.6,3.5,5674,998,meters,jsons/MX_seq29_1_VE1000_flipped.json,331914,622041,53,Man
35,865302,final-intermixed-textured,v2,jsons/MX_seq29_1_VE1000_flipped.json,http://54.235.29.9/FacialAge/BNav_EC2/DepthDuration/MX_fS_VE_MTurk/MX_fS_HTML.html#278,278,1920,957,1920,1080,1-8-2024,16-53-37,36,VR_target_stimuli/s34_0.75x_2.8_269_BC.png,1000,0.75x,2.8,0.0,3145,999,meters,jsons/MX_seq29_1_VE1000_flipped.json,331914,622041,53,Man
36,865302,final-intermixed-textured,v2,jsons/MX_seq29_1_VE1000_flipped.json,http://54.235.29.9/FacialAge/BNav_EC2/DepthDuration/MX_fS_VE_MTurk/MX_fS_HTML.html#278,278,1920,957,1920,1080,1-8-2024,16-53-37,37,VR_target_stimuli/s13_1.3x_2.4_313_BC.png,1000,1.3x,2.4,5.0,3432,994,meters,jsons/MX_seq29_1_VE1000_flipped.json,331914,622041,53,Man
37,865302,final-intermixed-textured,v2,jsons/MX_seq29_1_VE1000_flipped.json,http://54.235.29.9/FacialAge/BNav_EC2/DepthDuration/MX_fS_VE_MTurk/MX_fS_HTML.html#278,278,1920,957,1920,1080,1-8-2024,16-53-37,38,VR_target_stimuli/s14_1.3x_3.83_359.png,1000,1.3x,3.83,5.8,4785,996,meters,jsons/MX_seq29_1_VE1000_flipped.json,331914,622041,53,Man
38,865302,final-intermixed-textured,v2,jsons/MX_seq29_1_VE1000_flipped.json,http://54.235.29.9/FacialAge/BNav_EC2/DepthDuration/MX_fS_VE_MTurk/MX_fS_HTML.html#278,278,1920,957,1920,1080,1-8-2024,16-53-37,39,VR_target_stimuli/s47_1x_3.45_370_BC.png,1000,1x,3.45,0.0,3192,989,meters,jsons/MX_seq29_1_VE1000_flipped.json,331914,622041,53,Man
39,865302,final-intermixed-textured,v2,jsons/MX_seq29_1_VE1000_flipped.json,http://54.235.29.9/FacialAge/BNav_EC2/DepthDuration/MX_fS_VE_MTurk/MX_fS_HTML.html#278,278,1920,957,1920,1080,1-8-2024,16-53-37,40,VR_target_stimuli/s29_0.75x_1.3_246.png,1000,0.75x,1.3,0.0,4722,1012,meters,jsons/MX_seq29_1_VE1000_flipped.json,331914,622041,53,Man
40,865302,final-intermixed-textured,v2,jsons/MX_seq29_1_VE1000_flipped.json,http://54.235.29.9/FacialAge/BNav_EC2/DepthDuration/MX_fS_VE_MTurk/MX_fS_HTML.html#278,278,1920,957,1920,1080,1-8-2024,16-53-37,41,VR_target_stimuli/s28_1x_3.2_362_BC.png,1000,1x,3.2,0.0,2774,997,meters,jsons/MX_seq29_1_VE1000_flipped.json,331914,622041,53,Man
41,865302,final-intermixed-textured,v2,jsons/MX_seq29_1_VE1000_flipped.json,http://54.235.29.9/FacialAge/BNav_EC2/DepthDuration/MX_fS_VE_MTurk/MX_fS_HTML.html#278,278,1920,957,1920,1080,1-8-2024,16-53-37,42,VR_target_stimuli/s48_1.3x_2.55_255_BC.png,1000,1.3x,2.55,3.7,4762,1008,meters,jsons/MX_seq29_1_VE1000_flipped.json,331914,622041,53,Man
42,865302,final-intermixed-textured,v2,jsons/MX_seq29_1_VE1000_flipped.json,http://54.235.29.9/FacialAge/BNav_EC2/DepthDuration/MX_fS_VE_MTurk/MX_fS_HTML.html#278,278,1920,957,1920,1080,1-8-2024,16-53-37,43,VR_target_stimuli/s19_0.75x_1.21_257.png,1000,0.75x,1.21,0.0,3004,1001,meters,jsons/MX_seq29_1_VE1000_flipped.json,331914,622041,53,Man
43,865302,final-intermixed-textured,v2,jsons/MX_seq29_1_VE1000_flipped.json,http://54.235.29.9/FacialAge/BNav_EC2/DepthDuration/MX_fS_VE_MTurk/MX_fS_HTML.html#278,278,1920,957,1920,1080,1-8-2024,16-53-37,44,VR_target_stimuli/s21_1.3x_4.22_384.png,1000,1.3x,4.22,6.0,4990,995,meters,jsons/MX_seq29_1_VE1000_flipped.json,331914,622041,53,Man
44,865302,final-intermixed-textured,v2,jsons/MX_seq29_1_VE1000_flipped.json,http://54.235.29.9/FacialAge/BNav_EC2/DepthDuration/MX_fS_VE_MTurk/MX_fS_HTML.html#278,278,1920,957,1920,1080,1-8-2024,16-53-37,45,catch_stimuli/c4_BC.png,1000,,,0.0,3850,1011,meters,jsons/MX_seq29_1_VE1000_flipped.json,331914,622041,53,Man
45,865302,final-intermixed-textured,v2,jsons/MX_seq29_1_VE1000_flipped.json,http://54.235.29.9/FacialAge/BNav_EC2/DepthDuration/MX_fS_VE_MTurk/MX_fS_HTML.html#278,278,1920,957,1920,1080,1-8-2024,16-53-37,46,VR_target_stimuli/s8_1x_3.1_332.png,1000,1x,3.1,4.5,7263,1002,meters,jsons/MX_seq29_1_VE1000_flipped.json,331914,622041,53,Man
46,865302,final-intermixed-textured,v2,jsons/MX_seq29_1_VE1000_flipped.json,http://54.235.29.9/FacialAge/BNav_EC2/DepthDuration/MX_fS_VE_MTurk/MX_fS_HTML.html#278,278,1920,957,1920,1080,1-8-2024,16-53-37,47,VR_target_stimuli/s27_0.75x_1.76_243_BC.png,1000,0.75x,1.76,0.0,3179,999,meters,jsons/MX_seq29_1_VE1000_flipped.json,331914,622041,53,Man
47,865302,final-intermixed-textured,v2,jsons/MX_seq29_1_VE1000_flipped.json,http://54.235.29.9/FacialAge/BNav_EC2/DepthDuration/MX_fS_VE_MTurk/MX_fS_HTML.html#278,278,1920,957,1920,1080,1-8-2024,16-53-37,48,VR_target_stimuli/s15_0.75x_4.2_388_BC.png,1000,0.75x,4.2,7.0,4383,998,meters,jsons/MX_seq29_1_VE1000_flipped.json,331914,622041,53,Man
48,865302,final-intermixed-textured,v2,jsons/MX_seq29_1_VE1000_flipped.json,http://54.235.29.9/FacialAge/BNav_EC2/DepthDuration/MX_fS_VE_MTurk/MX_fS_HTML.html#278,278,1920,957,1920,1080,1-8-2024,16-53-37,49,VR_target_stimuli/s4_1.3x_1.4_328.png,1000,1.3x,1.4,2.7,6955,1008,meters,jsons/MX_seq29_1_VE1000_flipped.json,331914,622041,53,Man
49,865302,final-intermixed-textured,v2,jsons/MX_seq29_1_VE1000_flipped.json,http://54.235.29.9/FacialAge/BNav_EC2/DepthDuration/MX_fS_VE_MTurk/MX_fS_HTML.html#278,278,1920,957,1920,1080,1-8-2024,16-53-37,50,VR_target_stimuli/s35_1x_2_331.png,1000,1x,2.0,0.0,3181,997,meters,jsons/MX_seq29_1_VE1000_flipped.json,331914,622041,53,Man
50,865302,final-intermixed-textured,v2,jsons/MX_seq29_1_VE1000_flipped.json,http://54.235.29.9/FacialAge/BNav_EC2/DepthDuration/MX_fS_VE_MTurk/MX_fS_HTML.html#278,278,1920,957,1920,1080,1-8-2024,16-53-37,51,VR_target_stimuli/s49_1.3x_4.67_354_BC.png,1000,1.3x,4.67,0.0,2697,991,meters,jsons/MX_seq29_1_VE1000_flipped.json,331914,622041,53,Man
51,865302,final-intermixed-textured,v2,jsons/MX_seq29_1_VE1000_flipped.json,http://54.235.29.9/FacialAge/BNav_EC2/DepthDuration/MX_fS_VE_MTurk/MX_fS_HTML.html#278,278,1920,957,1920,1080,1-8-2024,16-53-37,52,VR_target_stimuli/s7_0.75x_1.5_253.png,1000,0.75x,1.5,2.8,5003,1016,meters,jsons/MX_seq29_1_VE1000_flipped.json,331914,622041,53,Man
52,865302,final-intermixed-textured,v2,jsons/MX_seq29_1_VE1000_flipped.json,http://54.235.29.9/FacialAge/BNav_EC2/DepthDuration/MX_fS_VE_MTurk/MX_fS_HTML.html#278,278,1920,957,1920,1080,1-8-2024,16-53-37,53,catch_stimuli/c5_BC.png,1000,,,0.0,3196,1000,meters,jsons/MX_seq29_1_VE1000_flipped.json,331914,622041,53,Man
53,865302,final-intermixed-textured,v2,jsons/MX_seq29_1_VE1000_flipped.json,http://54.235.29.9/FacialAge/BNav_EC2/DepthDuration/MX_fS_VE_MTurk/MX_fS_HTML.html#278,278,1920,957,1920,1080,1-8-2024,16-53-37,54,VR_target_stimuli/s20_1x_4.99_398_BC.png,1000,1x,4.99,4.5,7287,998,meters,jsons/MX_seq29_1_VE1000_flipped.json,331914,622041,53,Man
54,865302,final-intermixed-textured,v2,jsons/MX_seq29_1_VE1000_flipped.json,http://54.235.29.9/FacialAge/BNav_EC2/DepthDuration/MX_fS_VE_MTurk/MX_fS_HTML.html#278,278,1920,957,1920,1080,1-8-2024,16-53-37,55,VR_target_stimuli/s31_0.75x_4.96_329.png,1000,0.75x,4.96,0.0,3075,1001,meters,jsons/MX_seq29_1_VE1000_flipped.json,331914,622041,53,Man
55,865302,final-intermixed-textured,v2,jsons/MX_seq29_1_VE1000_flipped.json,http://54.235.29.9/FacialAge/BNav_EC2/DepthDuration/MX_fS_VE_MTurk/MX_fS_HTML.html#278,278,1920,957,1920,1080,1-8-2024,16-53-37,56,VR_target_stimuli/s33_1.3x_3.1_378_BC.png,1000,1.3x,3.1,4.0,3477,1008,meters,jsons/MX_seq29_1_VE1000_flipped.json,331914,622041,53,Man
56,865302,final-intermixed-textured,v2,jsons/MX_seq29_1_VE1000_flipped.json,http://54.235.29.9/FacialAge/BNav_EC2/DepthDuration/MX_fS_VE_MTurk/MX_fS_HTML.html#278,278,1920,957,1920,1080,1-8-2024,16-53-37,57,VR_target_stimuli/s52_1x_3.2_275.png,1000,1x,3.2,5.0,4299,1013,meters,jsons/MX_seq29_1_VE1000_flipped.json,331914,622041,53,Man
57,865302,final-intermixed-textured,v2,jsons/MX_seq29_1_VE1000_flipped.json,http://54.235.29.9/FacialAge/BNav_EC2/DepthDuration/MX_fS_VE_MTurk/MX_fS_HTML.html#278,278,1920,957,1920,1080,1-8-2024,16-53-37,58,VR_target_stimuli/s32_1x_1.5_218_BC.png,1000,1x,1.5,3.0,3680,1000,meters,jsons/MX_seq29_1_VE1000_flipped.json,331914,622041,53,Man
58,865302,final-intermixed-textured,v2,jsons/MX_seq29_1_VE1000_flipped.json,http://54.235.29.9/FacialAge/BNav_EC2/DepthDuration/MX_fS_VE_MTurk/MX_fS_HTML.html#278,278,1920,957,1920,1080,1-8-2024,16-53-37,59,VR_target_stimuli/s18_0.75x_2.25_341_BC.png,1000,0.75x,2.25,2.7,5153,1010,meters,jsons/MX_seq29_1_VE1000_flipped.json,331914,622041,53,Man
59,865302,final-intermixed-textured,v2,jsons/MX_seq29_1_VE1000_flipped.json,http://54.235.29.9/FacialAge/BNav_EC2/DepthDuration/MX_fS_VE_MTurk/MX_fS_HTML.html#278,278,1920,957,1920,1080,1-8-2024,16-53-37,60,VR_target_stimuli/s39_1.3x_1_208.png,1000,1.3x,1.0,0.0,3019,986,meters,jsons/MX_seq29_1_VE1000_flipped.json,331914,622041,53,Man
