,subjID,experimentName,versionName,sequenceName,url,selected_row,windowWidth,windowHeight,screenWidth,screenHeight,startDate,startTime,trial,stimulus,duration,scale,actual_depth,depth_estimate,trial_RT,log_sceneDuration,unitSelection,seq_filepath,experimentTime,totalTime,age,gender
0,883707,final-intermixed-textured,v2,jsons/MX_seq38_2_VE1000.json,http://54.235.29.9/FacialAge/BNav_EC2/DepthDuration/MX_fS_VE_MTurk/MX_fS_HTML.html#38,38,1366,679,1366,768,1-8-2024,13-32-29,1,VR_target_stimuli/s26_1x_4_433_BC.png,1000,1x,4.0,4.0,7936,1000,meters,jsons/MX_seq38_2_VE1000.json,434725,964956,34,Man
1,883707,final-intermixed-textured,v2,jsons/MX_seq38_2_VE1000.json,http://54.235.29.9/FacialAge/BNav_EC2/DepthDuration/MX_fS_VE_MTurk/MX_fS_HTML.html#38,38,1366,679,1366,768,1-8-2024,13-32-29,2,VR_target_stimuli/s12_1.3x_3.1_375_BC.png,1000,1.3x,3.1,2.0,6801,1008,meters,jsons/MX_seq38_2_VE1000.json,434725,964956,34,Man
2,883707,final-intermixed-textured,v2,jsons/MX_seq38_2_VE1000.json,http://54.235.29.9/FacialAge/BNav_EC2/DepthDuration/MX_fS_VE_MTurk/MX_fS_HTML.html#38,38,1366,679,1366,768,1-8-2024,13-32-29,3,VR_target_stimuli/s30_0.75x_2.3_332.png,1000,0.75x,2.3,2.0,7176,990,meters,jsons/MX_seq38_2_VE1000.json,434725,964956,34,Man
3,883707,final-intermixed-textured,v2,jsons/MX_seq38_2_VE1000.json,http://54.235.29.9/FacialAge/BNav_EC2/DepthDuration/MX_fS_VE_MTurk/MX_fS_HTML.html#38,38,1366,679,1366,768,1-8-2024,13-32-29,4,VR_target_stimuli/s16_1.3x_1_223.png,1000,1.3x,1.0,1.0,6149,986,meters,jsons/MX_seq38_2_VE1000.json,434725,964956,34,Man
4,883707,final-intermixed-textured,v2,jsons/MX_seq38_2_VE1000.json,http://54.235.29.9/FacialAge/BNav_EC2/DepthDuration/MX_fS_VE_MTurk/MX_fS_HTML.html#38,38,1366,679,1366,768,1-8-2024,13-32-29,5,VR_target_stimuli/s17_1x_1.8_291.png,1000,1x,1.8,1.5,9539,1004,meters,jsons/MX_seq38_2_VE1000.json,434725,964956,34,Man
5,883707,final-intermixed-textured,v2,jsons/MX_seq38_2_VE1000.json,http://54.235.29.9/FacialAge/BNav_EC2/DepthDuration/MX_fS_VE_MTurk/MX_fS_HTML.html#38,38,1366,679,1366,768,1-8-2024,13-32-29,6,VR_target_stimuli/s5_0.75x_4_375_BC.png,1000,0.75x,4.0,5.0,10626,1000,meters,jsons/MX_seq38_2_VE1000.json,434725,964956,34,Man
6,883707,final-intermixed-textured,v2,jsons/MX_seq38_2_VE1000.json,http://54.235.29.9/FacialAge/BNav_EC2/DepthDuration/MX_fS_VE_MTurk/MX_fS_HTML.html#38,38,1366,679,1366,768,1-8-2024,13-32-29,7,catch_stimuli/c0.png,1000,,,0.0,6952,999,meters,jsons/MX_seq38_2_VE1000.json,434725,964956,34,Man
7,883707,final-intermixed-textured,v2,jsons/MX_seq38_2_VE1000.json,http://54.235.29.9/FacialAge/BNav_EC2/DepthDuration/MX_fS_VE_MTurk/MX_fS_HTML.html#38,38,1366,679,1366,768,1-8-2024,13-32-29,8,VR_target_stimuli/s37_0.75x_3.3_567.png,1000,0.75x,3.3,2.0,6301,1004,meters,jsons/MX_seq38_2_VE1000.json,434725,964956,34,Man
8,883707,final-intermixed-textured,v2,jsons/MX_seq38_2_VE1000.json,http://54.235.29.9/FacialAge/BNav_EC2/DepthDuration/MX_fS_VE_MTurk/MX_fS_HTML.html#38,38,1366,679,1366,768,1-8-2024,13-32-29,9,VR_target_stimuli/s46_1.3x_2.42_354.png,1000,1.3x,2.42,2.5,8029,1002,meters,jsons/MX_seq38_2_VE1000.json,434725,964956,34,Man
9,883707,final-intermixed-textured,v2,jsons/MX_seq38_2_VE1000.json,http://54.235.29.9/FacialAge/BNav_EC2/DepthDuration/MX_fS_VE_MTurk/MX_fS_HTML.html#38,38,1366,679,1366,768,1-8-2024,13-32-29,10,VR_target_stimuli/s22_1x_4.29_354_BC.png,1000,1x,4.29,3.0,7677,990,meters,jsons/MX_seq38_2_VE1000.json,434725,964956,34,Man
10,883707,final-intermixed-textured,v2,jsons/MX_seq38_2_VE1000.json,http://54.235.29.9/FacialAge/BNav_EC2/DepthDuration/MX_fS_VE_MTurk/MX_fS_HTML.html#38,38,1366,679,1366,768,1-8-2024,13-32-29,11,VR_target_stimuli/s42_1.3x_3.2_305_BC.png,1000,1.3x,3.2,2.0,7404,1006,meters,jsons/MX_seq38_2_VE1000.json,434725,964956,34,Man
11,883707,final-intermixed-textured,v2,jsons/MX_seq38_2_VE1000.json,http://54.235.29.9/FacialAge/BNav_EC2/DepthDuration/MX_fS_VE_MTurk/MX_fS_HTML.html#38,38,1366,679,1366,768,1-8-2024,13-32-29,12,VR_target_stimuli/s25_0.75x_1.4_281_BC.png,1000,0.75x,1.4,3.0,6207,1000,meters,jsons/MX_seq38_2_VE1000.json,434725,964956,34,Man
12,883707,final-intermixed-textured,v2,jsons/MX_seq38_2_VE1000.json,http://54.235.29.9/FacialAge/BNav_EC2/DepthDuration/MX_fS_VE_MTurk/MX_fS_HTML.html#38,38,1366,679,1366,768,1-8-2024,13-32-29,13,VR_target_stimuli/s50_1x_4.53_518.png,1000,1x,4.53,4.0,7137,1002,meters,jsons/MX_seq38_2_VE1000.json,434725,964956,34,Man
13,883707,final-intermixed-textured,v2,jsons/MX_seq38_2_VE1000.json,http://54.235.29.9/FacialAge/BNav_EC2/DepthDuration/MX_fS_VE_MTurk/MX_fS_HTML.html#38,38,1366,679,1366,768,1-8-2024,13-32-29,14,VR_target_stimuli/s53_0.75x_1.6_403_BC.png,1000,0.75x,1.6,1.0,6172,998,meters,jsons/MX_seq38_2_VE1000.json,434725,964956,34,Man
14,883707,final-intermixed-textured,v2,jsons/MX_seq38_2_VE1000.json,http://54.235.29.9/FacialAge/BNav_EC2/DepthDuration/MX_fS_VE_MTurk/MX_fS_HTML.html#38,38,1366,679,1366,768,1-8-2024,13-32-29,15,VR_target_stimuli/s38_1.3x_3.55_358.png,1000,1.3x,3.55,3.0,5206,1000,meters,jsons/MX_seq38_2_VE1000.json,434725,964956,34,Man
15,883707,final-intermixed-textured,v2,jsons/MX_seq38_2_VE1000.json,http://54.235.29.9/FacialAge/BNav_EC2/DepthDuration/MX_fS_VE_MTurk/MX_fS_HTML.html#38,38,1366,679,1366,768,1-8-2024,13-32-29,16,VR_target_stimuli/s9_1x_1.2_263.png,1000,1x,1.2,1.0,5185,987,meters,jsons/MX_seq38_2_VE1000.json,434725,964956,34,Man
16,883707,final-intermixed-textured,v2,jsons/MX_seq38_2_VE1000.json,http://54.235.29.9/FacialAge/BNav_EC2/DepthDuration/MX_fS_VE_MTurk/MX_fS_HTML.html#38,38,1366,679,1366,768,1-8-2024,13-32-29,17,catch_stimuli/c1.png,1000,,,0.0,5439,1002,meters,jsons/MX_seq38_2_VE1000.json,434725,964956,34,Man
17,883707,final-intermixed-textured,v2,jsons/MX_seq38_2_VE1000.json,http://54.235.29.9/FacialAge/BNav_EC2/DepthDuration/MX_fS_VE_MTurk/MX_fS_HTML.html#38,38,1366,679,1366,768,1-8-2024,13-32-29,18,VR_target_stimuli/s44_1x_4.4_317_BC.png,1000,1x,4.4,4.0,6549,1000,meters,jsons/MX_seq38_2_VE1000.json,434725,964956,34,Man
18,883707,final-intermixed-textured,v2,jsons/MX_seq38_2_VE1000.json,http://54.235.29.9/FacialAge/BNav_EC2/DepthDuration/MX_fS_VE_MTurk/MX_fS_HTML.html#38,38,1366,679,1366,768,1-8-2024,13-32-29,19,VR_target_stimuli/s3_0.75x_5_381.png,1000,0.75x,5.0,5.0,5215,998,meters,jsons/MX_seq38_2_VE1000.json,434725,964956,34,Man
19,883707,final-intermixed-textured,v2,jsons/MX_seq38_2_VE1000.json,http://54.235.29.9/FacialAge/BNav_EC2/DepthDuration/MX_fS_VE_MTurk/MX_fS_HTML.html#38,38,1366,679,1366,768,1-8-2024,13-32-29,20,VR_target_stimuli/s1_1.3x_1.7_261_BC.png,1000,1.3x,1.7,2.0,5467,1003,meters,jsons/MX_seq38_2_VE1000.json,434725,964956,34,Man
20,883707,final-intermixed-textured,v2,jsons/MX_seq38_2_VE1000.json,http://54.235.29.9/FacialAge/BNav_EC2/DepthDuration/MX_fS_VE_MTurk/MX_fS_HTML.html#38,38,1366,679,1366,768,1-8-2024,13-32-29,21,VR_target_stimuli/s11_0.75x_5_359_BC.png,1000,0.75x,5.0,6.0,5330,999,meters,jsons/MX_seq38_2_VE1000.json,434725,964956,34,Man
21,883707,final-intermixed-textured,v2,jsons/MX_seq38_2_VE1000.json,http://54.235.29.9/FacialAge/BNav_EC2/DepthDuration/MX_fS_VE_MTurk/MX_fS_HTML.html#38,38,1366,679,1366,768,1-8-2024,13-32-29,22,VR_target_stimuli/s2_1x_2.7_390_BC.png,1000,1x,2.7,2.0,4934,1004,meters,jsons/MX_seq38_2_VE1000.json,434725,964956,34,Man
22,883707,final-intermixed-textured,v2,jsons/MX_seq38_2_VE1000.json,http://54.235.29.9/FacialAge/BNav_EC2/DepthDuration/MX_fS_VE_MTurk/MX_fS_HTML.html#38,38,1366,679,1366,768,1-8-2024,13-32-29,23,VR_target_stimuli/s6_1.3x_2.1_298_BC.png,1000,1.3x,2.1,1.5,6700,1000,meters,jsons/MX_seq38_2_VE1000.json,434725,964956,34,Man
23,883707,final-intermixed-textured,v2,jsons/MX_seq38_2_VE1000.json,http://54.235.29.9/FacialAge/BNav_EC2/DepthDuration/MX_fS_VE_MTurk/MX_fS_HTML.html#38,38,1366,679,1366,768,1-8-2024,13-32-29,24,VR_target_stimuli/s0_1x_2.6_351.png,1000,1x,2.6,2.0,4753,1005,meters,jsons/MX_seq38_2_VE1000.json,434725,964956,34,Man
24,883707,final-intermixed-textured,v2,jsons/MX_seq38_2_VE1000.json,http://54.235.29.9/FacialAge/BNav_EC2/DepthDuration/MX_fS_VE_MTurk/MX_fS_HTML.html#38,38,1366,679,1366,768,1-8-2024,13-32-29,25,VR_target_stimuli/s34_0.75x_2.8_269.png,1000,0.75x,2.8,3.0,5074,1004,meters,jsons/MX_seq38_2_VE1000.json,434725,964956,34,Man
25,883707,final-intermixed-textured,v2,jsons/MX_seq38_2_VE1000.json,http://54.235.29.9/FacialAge/BNav_EC2/DepthDuration/MX_fS_VE_MTurk/MX_fS_HTML.html#38,38,1366,679,1366,768,1-8-2024,13-32-29,26,catch_stimuli/c2.png,1000,,,0.0,4756,1001,meters,jsons/MX_seq38_2_VE1000.json,434725,964956,34,Man
26,883707,final-intermixed-textured,v2,jsons/MX_seq38_2_VE1000.json,http://54.235.29.9/FacialAge/BNav_EC2/DepthDuration/MX_fS_VE_MTurk/MX_fS_HTML.html#38,38,1366,679,1366,768,1-8-2024,13-32-29,27,VR_target_stimuli/s13_1.3x_2.4_313.png,1000,1.3x,2.4,2.0,5746,1001,meters,jsons/MX_seq38_2_VE1000.json,434725,964956,34,Man
27,883707,final-intermixed-textured,v2,jsons/MX_seq38_2_VE1000.json,http://54.235.29.9/FacialAge/BNav_EC2/DepthDuration/MX_fS_VE_MTurk/MX_fS_HTML.html#38,38,1366,679,1366,768,1-8-2024,13-32-29,28,VR_target_stimuli/s14_1.3x_3.83_359_BC.png,1000,1.3x,3.83,4.0,6828,1012,meters,jsons/MX_seq38_2_VE1000.json,434725,964956,34,Man
28,883707,final-intermixed-textured,v2,jsons/MX_seq38_2_VE1000.json,http://54.235.29.9/FacialAge/BNav_EC2/DepthDuration/MX_fS_VE_MTurk/MX_fS_HTML.html#38,38,1366,679,1366,768,1-8-2024,13-32-29,29,VR_target_stimuli/s47_1x_3.45_370_BC.png,1000,1x,3.45,3.0,7419,993,meters,jsons/MX_seq38_2_VE1000.json,434725,964956,34,Man
29,883707,final-intermixed-textured,v2,jsons/MX_seq38_2_VE1000.json,http://54.235.29.9/FacialAge/BNav_EC2/DepthDuration/MX_fS_VE_MTurk/MX_fS_HTML.html#38,38,1366,679,1366,768,1-8-2024,13-32-29,30,VR_target_stimuli/s29_0.75x_1.3_246.png,1000,0.75x,1.3,1.0,6101,991,meters,jsons/MX_seq38_2_VE1000.json,434725,964956,34,Man
30,883707,final-intermixed-textured,v2,jsons/MX_seq38_2_VE1000.json,http://54.235.29.9/FacialAge/BNav_EC2/DepthDuration/MX_fS_VE_MTurk/MX_fS_HTML.html#38,38,1366,679,1366,768,1-8-2024,13-32-29,31,VR_target_stimuli/s28_1.3x_3.2_365.png,1000,1.3x,3.2,2.0,6688,1008,meters,jsons/MX_seq38_2_VE1000.json,434725,964956,34,Man
31,883707,final-intermixed-textured,v2,jsons/MX_seq38_2_VE1000.json,http://54.235.29.9/FacialAge/BNav_EC2/DepthDuration/MX_fS_VE_MTurk/MX_fS_HTML.html#38,38,1366,679,1366,768,1-8-2024,13-32-29,32,VR_target_stimuli/s48_0.75x_2.55_243_BC.png,1000,0.75x,2.55,1.0,5294,992,meters,jsons/MX_seq38_2_VE1000.json,434725,964956,34,Man
32,883707,final-intermixed-textured,v2,jsons/MX_seq38_2_VE1000.json,http://54.235.29.9/FacialAge/BNav_EC2/DepthDuration/MX_fS_VE_MTurk/MX_fS_HTML.html#38,38,1366,679,1366,768,1-8-2024,13-32-29,33,VR_target_stimuli/s19_1x_1.21_263.png,1000,1x,1.21,1.0,5015,991,meters,jsons/MX_seq38_2_VE1000.json,434725,964956,34,Man
33,883707,final-intermixed-textured,v2,jsons/MX_seq38_2_VE1000.json,http://54.235.29.9/FacialAge/BNav_EC2/DepthDuration/MX_fS_VE_MTurk/MX_fS_HTML.html#38,38,1366,679,1366,768,1-8-2024,13-32-29,34,catch_stimuli/c3.png,1000,,,0.0,4719,1000,meters,jsons/MX_seq38_2_VE1000.json,434725,964956,34,Man
34,883707,final-intermixed-textured,v2,jsons/MX_seq38_2_VE1000.json,http://54.235.29.9/FacialAge/BNav_EC2/DepthDuration/MX_fS_VE_MTurk/MX_fS_HTML.html#38,38,1366,679,1366,768,1-8-2024,13-32-29,35,VR_target_stimuli/s21_0.75x_4.22_374.png,1000,0.75x,4.22,4.0,5112,994,meters,jsons/MX_seq38_2_VE1000.json,434725,964956,34,Man
35,883707,final-intermixed-textured,v2,jsons/MX_seq38_2_VE1000.json,http://54.235.29.9/FacialAge/BNav_EC2/DepthDuration/MX_fS_VE_MTurk/MX_fS_HTML.html#38,38,1366,679,1366,768,1-8-2024,13-32-29,36,VR_target_stimuli/s8_1.3x_3.1_345.png,1000,1.3x,3.1,4.0,5923,997,meters,jsons/MX_seq38_2_VE1000.json,434725,964956,34,Man
36,883707,final-intermixed-textured,v2,jsons/MX_seq38_2_VE1000.json,http://54.235.29.9/FacialAge/BNav_EC2/DepthDuration/MX_fS_VE_MTurk/MX_fS_HTML.html#38,38,1366,679,1366,768,1-8-2024,13-32-29,37,VR_target_stimuli/s27_1x_1.76_248.png,1000,1x,1.76,3.0,8159,1002,meters,jsons/MX_seq38_2_VE1000.json,434725,964956,34,Man
37,883707,final-intermixed-textured,v2,jsons/MX_seq38_2_VE1000.json,http://54.235.29.9/FacialAge/BNav_EC2/DepthDuration/MX_fS_VE_MTurk/MX_fS_HTML.html#38,38,1366,679,1366,768,1-8-2024,13-32-29,38,VR_target_stimuli/s15_1x_4.2_390_BC.png,1000,1x,4.2,4.0,6682,1003,meters,jsons/MX_seq38_2_VE1000.json,434725,964956,34,Man
38,883707,final-intermixed-textured,v2,jsons/MX_seq38_2_VE1000.json,http://54.235.29.9/FacialAge/BNav_EC2/DepthDuration/MX_fS_VE_MTurk/MX_fS_HTML.html#38,38,1366,679,1366,768,1-8-2024,13-32-29,39,VR_target_stimuli/s4_0.75x_1.4_301_BC.png,1000,0.75x,1.4,1.5,6836,1000,meters,jsons/MX_seq38_2_VE1000.json,434725,964956,34,Man
39,883707,final-intermixed-textured,v2,jsons/MX_seq38_2_VE1000.json,http://54.235.29.9/FacialAge/BNav_EC2/DepthDuration/MX_fS_VE_MTurk/MX_fS_HTML.html#38,38,1366,679,1366,768,1-8-2024,13-32-29,40,VR_target_stimuli/s35_1.3x_2_338_BC.png,1000,1.3x,2.0,2.0,5072,996,meters,jsons/MX_seq38_2_VE1000.json,434725,964956,34,Man
40,883707,final-intermixed-textured,v2,jsons/MX_seq38_2_VE1000.json,http://54.235.29.9/FacialAge/BNav_EC2/DepthDuration/MX_fS_VE_MTurk/MX_fS_HTML.html#38,38,1366,679,1366,768,1-8-2024,13-32-29,41,VR_target_stimuli/s49_0.75x_4.67_328_BC.png,1000,0.75x,4.67,4.0,7144,995,meters,jsons/MX_seq38_2_VE1000.json,434725,964956,34,Man
41,883707,final-intermixed-textured,v2,jsons/MX_seq38_2_VE1000.json,http://54.235.29.9/FacialAge/BNav_EC2/DepthDuration/MX_fS_VE_MTurk/MX_fS_HTML.html#38,38,1366,679,1366,768,1-8-2024,13-32-29,42,VR_target_stimuli/s7_1x_1.5_255_BC.png,1000,1x,1.5,1.0,5701,998,meters,jsons/MX_seq38_2_VE1000.json,434725,964956,34,Man
42,883707,final-intermixed-textured,v2,jsons/MX_seq38_2_VE1000.json,http://54.235.29.9/FacialAge/BNav_EC2/DepthDuration/MX_fS_VE_MTurk/MX_fS_HTML.html#38,38,1366,679,1366,768,1-8-2024,13-32-29,43,VR_target_stimuli/s20_1.3x_4.99_412.png,1000,1.3x,4.99,4.5,9041,1001,meters,jsons/MX_seq38_2_VE1000.json,434725,964956,34,Man
43,883707,final-intermixed-textured,v2,jsons/MX_seq38_2_VE1000.json,http://54.235.29.9/FacialAge/BNav_EC2/DepthDuration/MX_fS_VE_MTurk/MX_fS_HTML.html#38,38,1366,679,1366,768,1-8-2024,13-32-29,44,VR_target_stimuli/s31_1x_4.96_333.png,1000,1x,4.96,4.0,9382,997,meters,jsons/MX_seq38_2_VE1000.json,434725,964956,34,Man
44,883707,final-intermixed-textured,v2,jsons/MX_seq38_2_VE1000.json,http://54.235.29.9/FacialAge/BNav_EC2/DepthDuration/MX_fS_VE_MTurk/MX_fS_HTML.html#38,38,1366,679,1366,768,1-8-2024,13-32-29,45,catch_stimuli/c4.png,1000,,,0.0,4950,989,meters,jsons/MX_seq38_2_VE1000.json,434725,964956,34,Man
45,883707,final-intermixed-textured,v2,jsons/MX_seq38_2_VE1000.json,http://54.235.29.9/FacialAge/BNav_EC2/DepthDuration/MX_fS_VE_MTurk/MX_fS_HTML.html#38,38,1366,679,1366,768,1-8-2024,13-32-29,46,VR_target_stimuli/s33_0.75x_3.1_361.png,1000,0.75x,3.1,2.0,6406,1006,meters,jsons/MX_seq38_2_VE1000.json,434725,964956,34,Man
46,883707,final-intermixed-textured,v2,jsons/MX_seq38_2_VE1000.json,http://54.235.29.9/FacialAge/BNav_EC2/DepthDuration/MX_fS_VE_MTurk/MX_fS_HTML.html#38,38,1366,679,1366,768,1-8-2024,13-32-29,47,VR_target_stimuli/s52_1.3x_3.2_280_BC.png,1000,1.3x,3.2,1.5,9922,1001,meters,jsons/MX_seq38_2_VE1000.json,434725,964956,34,Man
47,883707,final-intermixed-textured,v2,jsons/MX_seq38_2_VE1000.json,http://54.235.29.9/FacialAge/BNav_EC2/DepthDuration/MX_fS_VE_MTurk/MX_fS_HTML.html#38,38,1366,679,1366,768,1-8-2024,13-32-29,48,VR_target_stimuli/s32_1.3x_1.5_224_BC.png,1000,1.3x,1.5,1.5,9996,1002,meters,jsons/MX_seq38_2_VE1000.json,434725,964956,34,Man
48,883707,final-intermixed-textured,v2,jsons/MX_seq38_2_VE1000.json,http://54.235.29.9/FacialAge/BNav_EC2/DepthDuration/MX_fS_VE_MTurk/MX_fS_HTML.html#38,38,1366,679,1366,768,1-8-2024,13-32-29,49,VR_target_stimuli/s18_1x_2.25_353_BC.png,1000,1x,2.25,2.0,9086,1003,meters,jsons/MX_seq38_2_VE1000.json,434725,964956,34,Man
49,883707,final-intermixed-textured,v2,jsons/MX_seq38_2_VE1000.json,http://54.235.29.9/FacialAge/BNav_EC2/DepthDuration/MX_fS_VE_MTurk/MX_fS_HTML.html#38,38,1366,679,1366,768,1-8-2024,13-32-29,50,VR_target_stimuli/s39_0.75x_1_205_BC.png,1000,0.75x,1.0,1.0,6719,1003,meters,jsons/MX_seq38_2_VE1000.json,434725,964956,34,Man
50,883707,final-intermixed-textured,v2,jsons/MX_seq38_2_VE1000.json,http://54.235.29.9/FacialAge/BNav_EC2/DepthDuration/MX_fS_VE_MTurk/MX_fS_HTML.html#38,38,1366,679,1366,768,1-8-2024,13-32-29,51,VR_target_stimuli/s51_1x_3.64_461.png,1000,1x,3.64,2.0,5925,1005,meters,jsons/MX_seq38_2_VE1000.json,434725,964956,34,Man
51,883707,final-intermixed-textured,v2,jsons/MX_seq38_2_VE1000.json,http://54.235.29.9/FacialAge/BNav_EC2/DepthDuration/MX_fS_VE_MTurk/MX_fS_HTML.html#38,38,1366,679,1366,768,1-8-2024,13-32-29,52,VR_target_stimuli/s43_1.3x_2.2_363.png,1000,1.3x,2.2,2.0,6362,988,meters,jsons/MX_seq38_2_VE1000.json,434725,964956,34,Man
52,883707,final-intermixed-textured,v2,jsons/MX_seq38_2_VE1000.json,http://54.235.29.9/FacialAge/BNav_EC2/DepthDuration/MX_fS_VE_MTurk/MX_fS_HTML.html#38,38,1366,679,1366,768,1-8-2024,13-32-29,53,catch_stimuli/c5.png,1000,,,0.0,6861,1006,meters,jsons/MX_seq38_2_VE1000.json,434725,964956,34,Man
53,883707,final-intermixed-textured,v2,jsons/MX_seq38_2_VE1000.json,http://54.235.29.9/FacialAge/BNav_EC2/DepthDuration/MX_fS_VE_MTurk/MX_fS_HTML.html#38,38,1366,679,1366,768,1-8-2024,13-32-29,54,VR_target_stimuli/s24_0.75x_3.3_344.png,1000,0.75x,3.3,4.0,4952,1002,meters,jsons/MX_seq38_2_VE1000.json,434725,964956,34,Man
54,883707,final-intermixed-textured,v2,jsons/MX_seq38_2_VE1000.json,http://54.235.29.9/FacialAge/BNav_EC2/DepthDuration/MX_fS_VE_MTurk/MX_fS_HTML.html#38,38,1366,679,1366,768,1-8-2024,13-32-29,55,VR_target_stimuli/s10_1.3x_2.7_325.png,1000,1.3x,2.7,2.0,11071,995,meters,jsons/MX_seq38_2_VE1000.json,434725,964956,34,Man
55,883707,final-intermixed-textured,v2,jsons/MX_seq38_2_VE1000.json,http://54.235.29.9/FacialAge/BNav_EC2/DepthDuration/MX_fS_VE_MTurk/MX_fS_HTML.html#38,38,1366,679,1366,768,1-8-2024,13-32-29,56,VR_target_stimuli/s36_1x_4.1_423_BC.png,1000,1x,4.1,3.5,7822,1002,meters,jsons/MX_seq38_2_VE1000.json,434725,964956,34,Man
56,883707,final-intermixed-textured,v2,jsons/MX_seq38_2_VE1000.json,http://54.235.29.9/FacialAge/BNav_EC2/DepthDuration/MX_fS_VE_MTurk/MX_fS_HTML.html#38,38,1366,679,1366,768,1-8-2024,13-32-29,57,VR_target_stimuli/s40_0.75x_1.2_308_BC.png,1000,0.75x,1.2,1.0,6281,989,meters,jsons/MX_seq38_2_VE1000.json,434725,964956,34,Man
57,883707,final-intermixed-textured,v2,jsons/MX_seq38_2_VE1000.json,http://54.235.29.9/FacialAge/BNav_EC2/DepthDuration/MX_fS_VE_MTurk/MX_fS_HTML.html#38,38,1366,679,1366,768,1-8-2024,13-32-29,58,VR_target_stimuli/s41_0.75x_2.1_281.png,1000,0.75x,2.1,1.5,6647,993,meters,jsons/MX_seq38_2_VE1000.json,434725,964956,34,Man
58,883707,final-intermixed-textured,v2,jsons/MX_seq38_2_VE1000.json,http://54.235.29.9/FacialAge/BNav_EC2/DepthDuration/MX_fS_VE_MTurk/MX_fS_HTML.html#38,38,1366,679,1366,768,1-8-2024,13-32-29,59,VR_target_stimuli/s45_1.3x_3.5_377_BC.png,1000,1.3x,3.5,2.0,8320,991,meters,jsons/MX_seq38_2_VE1000.json,434725,964956,34,Man
59,883707,final-intermixed-textured,v2,jsons/MX_seq38_2_VE1000.json,http://54.235.29.9/FacialAge/BNav_EC2/DepthDuration/MX_fS_VE_MTurk/MX_fS_HTML.html#38,38,1366,679,1366,768,1-8-2024,13-32-29,60,VR_target_stimuli/s23_1x_3.65_353.png,1000,1x,3.65,2.0,7258,1003,meters,jsons/MX_seq38_2_VE1000.json,434725,964956,34,Man
