,subjID,experimentName,versionName,sequenceName,url,selected_row,windowWidth,windowHeight,screenWidth,screenHeight,startDate,startTime,trial,stimulus,duration,scale,actual_depth,depth_estimate,trial_RT,log_sceneDuration,unitSelection,seq_filepath,experimentTime,totalTime,age,gender
0,884818,final-intermixed-textured,v2,jsons/MX_seq13_0_VE1000.json,http://54.235.29.9/FacialAge/BNav_EC2/DepthDuration/MX_fS_VE_MTurk/MX_fS_HTML.html#75,75,2240,1173,2240,1260,1-8-2024,21-25-55,1,VR_target_stimuli/s19_0.75x_1.21_257_BC.png,1000,0.75x,1.21,4,4182,1000,meters,jsons/MX_seq13_0_VE1000.json,278633,487252,28,Man
1,884818,final-intermixed-textured,v2,jsons/MX_seq13_0_VE1000.json,http://54.235.29.9/FacialAge/BNav_EC2/DepthDuration/MX_fS_VE_MTurk/MX_fS_HTML.html#75,75,2240,1173,2240,1260,1-8-2024,21-25-55,2,VR_target_stimuli/s21_1x_4.22_379_BC.png,1000,1x,4.22,10,5783,1001,meters,jsons/MX_seq13_0_VE1000.json,278633,487252,28,Man
2,884818,final-intermixed-textured,v2,jsons/MX_seq13_0_VE1000.json,http://54.235.29.9/FacialAge/BNav_EC2/DepthDuration/MX_fS_VE_MTurk/MX_fS_HTML.html#75,75,2240,1173,2240,1260,1-8-2024,21-25-55,3,VR_target_stimuli/s8_1.3x_3.1_345.png,1000,1.3x,3.1,6,4098,1000,meters,jsons/MX_seq13_0_VE1000.json,278633,487252,28,Man
3,884818,final-intermixed-textured,v2,jsons/MX_seq13_0_VE1000.json,http://54.235.29.9/FacialAge/BNav_EC2/DepthDuration/MX_fS_VE_MTurk/MX_fS_HTML.html#75,75,2240,1173,2240,1260,1-8-2024,21-25-55,4,VR_target_stimuli/s27_1x_1.76_248.png,1000,1x,1.76,7,4297,1002,meters,jsons/MX_seq13_0_VE1000.json,278633,487252,28,Man
4,884818,final-intermixed-textured,v2,jsons/MX_seq13_0_VE1000.json,http://54.235.29.9/FacialAge/BNav_EC2/DepthDuration/MX_fS_VE_MTurk/MX_fS_HTML.html#75,75,2240,1173,2240,1260,1-8-2024,21-25-55,5,VR_target_stimuli/s15_0.75x_4.2_388.png,1000,0.75x,4.2,9,3051,1000,meters,jsons/MX_seq13_0_VE1000.json,278633,487252,28,Man
5,884818,final-intermixed-textured,v2,jsons/MX_seq13_0_VE1000.json,http://54.235.29.9/FacialAge/BNav_EC2/DepthDuration/MX_fS_VE_MTurk/MX_fS_HTML.html#75,75,2240,1173,2240,1260,1-8-2024,21-25-55,6,VR_target_stimuli/s4_1.3x_1.4_328_BC.png,1000,1.3x,1.4,2,3831,1001,meters,jsons/MX_seq13_0_VE1000.json,278633,487252,28,Man
6,884818,final-intermixed-textured,v2,jsons/MX_seq13_0_VE1000.json,http://54.235.29.9/FacialAge/BNav_EC2/DepthDuration/MX_fS_VE_MTurk/MX_fS_HTML.html#75,75,2240,1173,2240,1260,1-8-2024,21-25-55,7,catch_stimuli/c0.png,1000,,,0,3782,1000,meters,jsons/MX_seq13_0_VE1000.json,278633,487252,28,Man
7,884818,final-intermixed-textured,v2,jsons/MX_seq13_0_VE1000.json,http://54.235.29.9/FacialAge/BNav_EC2/DepthDuration/MX_fS_VE_MTurk/MX_fS_HTML.html#75,75,2240,1173,2240,1260,1-8-2024,21-25-55,8,VR_target_stimuli/s35_1.3x_2_338_BC.png,1000,1.3x,2.0,4,5349,1001,meters,jsons/MX_seq13_0_VE1000.json,278633,487252,28,Man
8,884818,final-intermixed-textured,v2,jsons/MX_seq13_0_VE1000.json,http://54.235.29.9/FacialAge/BNav_EC2/DepthDuration/MX_fS_VE_MTurk/MX_fS_HTML.html#75,75,2240,1173,2240,1260,1-8-2024,21-25-55,9,VR_target_stimuli/s49_1x_4.67_341.png,1000,1x,4.67,8,3450,1001,meters,jsons/MX_seq13_0_VE1000.json,278633,487252,28,Man
9,884818,final-intermixed-textured,v2,jsons/MX_seq13_0_VE1000.json,http://54.235.29.9/FacialAge/BNav_EC2/DepthDuration/MX_fS_VE_MTurk/MX_fS_HTML.html#75,75,2240,1173,2240,1260,1-8-2024,21-25-55,10,VR_target_stimuli/s7_0.75x_1.5_253.png,1000,0.75x,1.5,7,4464,1000,meters,jsons/MX_seq13_0_VE1000.json,278633,487252,28,Man
10,884818,final-intermixed-textured,v2,jsons/MX_seq13_0_VE1000.json,http://54.235.29.9/FacialAge/BNav_EC2/DepthDuration/MX_fS_VE_MTurk/MX_fS_HTML.html#75,75,2240,1173,2240,1260,1-8-2024,21-25-55,11,VR_target_stimuli/s20_1x_4.99_398_BC.png,1000,1x,4.99,10,5382,1000,meters,jsons/MX_seq13_0_VE1000.json,278633,487252,28,Man
11,884818,final-intermixed-textured,v2,jsons/MX_seq13_0_VE1000.json,http://54.235.29.9/FacialAge/BNav_EC2/DepthDuration/MX_fS_VE_MTurk/MX_fS_HTML.html#75,75,2240,1173,2240,1260,1-8-2024,21-25-55,12,VR_target_stimuli/s31_1.3x_4.96_342.png,1000,1.3x,4.96,7,3465,1001,meters,jsons/MX_seq13_0_VE1000.json,278633,487252,28,Man
12,884818,final-intermixed-textured,v2,jsons/MX_seq13_0_VE1000.json,http://54.235.29.9/FacialAge/BNav_EC2/DepthDuration/MX_fS_VE_MTurk/MX_fS_HTML.html#75,75,2240,1173,2240,1260,1-8-2024,21-25-55,13,VR_target_stimuli/s33_0.75x_3.1_361_BC.png,1000,0.75x,3.1,8,4533,1000,meters,jsons/MX_seq13_0_VE1000.json,278633,487252,28,Man
13,884818,final-intermixed-textured,v2,jsons/MX_seq13_0_VE1000.json,http://54.235.29.9/FacialAge/BNav_EC2/DepthDuration/MX_fS_VE_MTurk/MX_fS_HTML.html#75,75,2240,1173,2240,1260,1-8-2024,21-25-55,14,VR_target_stimuli/s52_1.3x_3.2_280_BC.png,1000,1.3x,3.2,8,3466,1001,meters,jsons/MX_seq13_0_VE1000.json,278633,487252,28,Man
14,884818,final-intermixed-textured,v2,jsons/MX_seq13_0_VE1000.json,http://54.235.29.9/FacialAge/BNav_EC2/DepthDuration/MX_fS_VE_MTurk/MX_fS_HTML.html#75,75,2240,1173,2240,1260,1-8-2024,21-25-55,15,VR_target_stimuli/s32_1x_1.5_218_BC.png,1000,1x,1.5,5,3598,1000,meters,jsons/MX_seq13_0_VE1000.json,278633,487252,28,Man
15,884818,final-intermixed-textured,v2,jsons/MX_seq13_0_VE1000.json,http://54.235.29.9/FacialAge/BNav_EC2/DepthDuration/MX_fS_VE_MTurk/MX_fS_HTML.html#75,75,2240,1173,2240,1260,1-8-2024,21-25-55,16,VR_target_stimuli/s18_0.75x_2.25_341_BC.png,1000,0.75x,2.25,5,2798,1000,meters,jsons/MX_seq13_0_VE1000.json,278633,487252,28,Man
16,884818,final-intermixed-textured,v2,jsons/MX_seq13_0_VE1000.json,http://54.235.29.9/FacialAge/BNav_EC2/DepthDuration/MX_fS_VE_MTurk/MX_fS_HTML.html#75,75,2240,1173,2240,1260,1-8-2024,21-25-55,17,catch_stimuli/c1.png,1000,,,0,3683,999,meters,jsons/MX_seq13_0_VE1000.json,278633,487252,28,Man
17,884818,final-intermixed-textured,v2,jsons/MX_seq13_0_VE1000.json,http://54.235.29.9/FacialAge/BNav_EC2/DepthDuration/MX_fS_VE_MTurk/MX_fS_HTML.html#75,75,2240,1173,2240,1260,1-8-2024,21-25-55,18,VR_target_stimuli/s39_0.75x_1_205.png,1000,0.75x,1.0,3,2998,999,meters,jsons/MX_seq13_0_VE1000.json,278633,487252,28,Man
18,884818,final-intermixed-textured,v2,jsons/MX_seq13_0_VE1000.json,http://54.235.29.9/FacialAge/BNav_EC2/DepthDuration/MX_fS_VE_MTurk/MX_fS_HTML.html#75,75,2240,1173,2240,1260,1-8-2024,21-25-55,19,VR_target_stimuli/s51_1.3x_3.64_479.png,1000,1.3x,3.64,4,2999,1001,meters,jsons/MX_seq13_0_VE1000.json,278633,487252,28,Man
19,884818,final-intermixed-textured,v2,jsons/MX_seq13_0_VE1000.json,http://54.235.29.9/FacialAge/BNav_EC2/DepthDuration/MX_fS_VE_MTurk/MX_fS_HTML.html#75,75,2240,1173,2240,1260,1-8-2024,21-25-55,20,VR_target_stimuli/s43_1x_2.2_354.png,1000,1x,2.2,7,4465,1001,meters,jsons/MX_seq13_0_VE1000.json,278633,487252,28,Man
20,884818,final-intermixed-textured,v2,jsons/MX_seq13_0_VE1000.json,http://54.235.29.9/FacialAge/BNav_EC2/DepthDuration/MX_fS_VE_MTurk/MX_fS_HTML.html#75,75,2240,1173,2240,1260,1-8-2024,21-25-55,21,VR_target_stimuli/s24_1.3x_3.3_352_BC.png,1000,1.3x,3.3,88,3365,1000,meters,jsons/MX_seq13_0_VE1000.json,278633,487252,28,Man
21,884818,final-intermixed-textured,v2,jsons/MX_seq13_0_VE1000.json,http://54.235.29.9/FacialAge/BNav_EC2/DepthDuration/MX_fS_VE_MTurk/MX_fS_HTML.html#75,75,2240,1173,2240,1260,1-8-2024,21-25-55,22,VR_target_stimuli/s10_0.75x_2.7_321_BC.png,1000,0.75x,2.7,7,4416,999,meters,jsons/MX_seq13_0_VE1000.json,278633,487252,28,Man
22,884818,final-intermixed-textured,v2,jsons/MX_seq13_0_VE1000.json,http://54.235.29.9/FacialAge/BNav_EC2/DepthDuration/MX_fS_VE_MTurk/MX_fS_HTML.html#75,75,2240,1173,2240,1260,1-8-2024,21-25-55,23,VR_target_stimuli/s36_1x_4.1_423_BC.png,1000,1x,4.1,8,6831,1000,meters,jsons/MX_seq13_0_VE1000.json,278633,487252,28,Man
23,884818,final-intermixed-textured,v2,jsons/MX_seq13_0_VE1000.json,http://54.235.29.9/FacialAge/BNav_EC2/DepthDuration/MX_fS_VE_MTurk/MX_fS_HTML.html#75,75,2240,1173,2240,1260,1-8-2024,21-25-55,24,VR_target_stimuli/s40_0.75x_1.2_308.png,1000,0.75x,1.2,7,5132,1000,meters,jsons/MX_seq13_0_VE1000.json,278633,487252,28,Man
24,884818,final-intermixed-textured,v2,jsons/MX_seq13_0_VE1000.json,http://54.235.29.9/FacialAge/BNav_EC2/DepthDuration/MX_fS_VE_MTurk/MX_fS_HTML.html#75,75,2240,1173,2240,1260,1-8-2024,21-25-55,25,VR_target_stimuli/s41_1.3x_2.1_294.png,1000,1.3x,2.1,7,3899,1000,meters,jsons/MX_seq13_0_VE1000.json,278633,487252,28,Man
25,884818,final-intermixed-textured,v2,jsons/MX_seq13_0_VE1000.json,http://54.235.29.9/FacialAge/BNav_EC2/DepthDuration/MX_fS_VE_MTurk/MX_fS_HTML.html#75,75,2240,1173,2240,1260,1-8-2024,21-25-55,26,catch_stimuli/c2.png,1000,,,0,7631,1001,meters,jsons/MX_seq13_0_VE1000.json,278633,487252,28,Man
26,884818,final-intermixed-textured,v2,jsons/MX_seq13_0_VE1000.json,http://54.235.29.9/FacialAge/BNav_EC2/DepthDuration/MX_fS_VE_MTurk/MX_fS_HTML.html#75,75,2240,1173,2240,1260,1-8-2024,21-25-55,27,VR_target_stimuli/s45_1x_3.5_368.png,1000,1x,3.5,7,3432,1000,meters,jsons/MX_seq13_0_VE1000.json,278633,487252,28,Man
27,884818,final-intermixed-textured,v2,jsons/MX_seq13_0_VE1000.json,http://54.235.29.9/FacialAge/BNav_EC2/DepthDuration/MX_fS_VE_MTurk/MX_fS_HTML.html#75,75,2240,1173,2240,1260,1-8-2024,21-25-55,28,VR_target_stimuli/s23_1x_3.65_353_BC.png,1000,1x,3.65,7,3014,1001,meters,jsons/MX_seq13_0_VE1000.json,278633,487252,28,Man
28,884818,final-intermixed-textured,v2,jsons/MX_seq13_0_VE1000.json,http://54.235.29.9/FacialAge/BNav_EC2/DepthDuration/MX_fS_VE_MTurk/MX_fS_HTML.html#75,75,2240,1173,2240,1260,1-8-2024,21-25-55,29,VR_target_stimuli/s26_0.75x_4_430_BC.png,1000,0.75x,4.0,7,2666,1000,meters,jsons/MX_seq13_0_VE1000.json,278633,487252,28,Man
29,884818,final-intermixed-textured,v2,jsons/MX_seq13_0_VE1000.json,http://54.235.29.9/FacialAge/BNav_EC2/DepthDuration/MX_fS_VE_MTurk/MX_fS_HTML.html#75,75,2240,1173,2240,1260,1-8-2024,21-25-55,30,VR_target_stimuli/s12_1.3x_3.1_375.png,1000,1.3x,3.1,4,3415,1001,meters,jsons/MX_seq13_0_VE1000.json,278633,487252,28,Man
30,884818,final-intermixed-textured,v2,jsons/MX_seq13_0_VE1000.json,http://54.235.29.9/FacialAge/BNav_EC2/DepthDuration/MX_fS_VE_MTurk/MX_fS_HTML.html#75,75,2240,1173,2240,1260,1-8-2024,21-25-55,31,VR_target_stimuli/s30_1x_2.3_334.png,1000,1x,2.3,6,2898,1001,meters,jsons/MX_seq13_0_VE1000.json,278633,487252,28,Man
31,884818,final-intermixed-textured,v2,jsons/MX_seq13_0_VE1000.json,http://54.235.29.9/FacialAge/BNav_EC2/DepthDuration/MX_fS_VE_MTurk/MX_fS_HTML.html#75,75,2240,1173,2240,1260,1-8-2024,21-25-55,32,VR_target_stimuli/s16_1.3x_1_223_BC.png,1000,1.3x,1.0,2,3749,999,meters,jsons/MX_seq13_0_VE1000.json,278633,487252,28,Man
32,884818,final-intermixed-textured,v2,jsons/MX_seq13_0_VE1000.json,http://54.235.29.9/FacialAge/BNav_EC2/DepthDuration/MX_fS_VE_MTurk/MX_fS_HTML.html#75,75,2240,1173,2240,1260,1-8-2024,21-25-55,33,VR_target_stimuli/s17_0.75x_1.8_285.png,1000,0.75x,1.8,7,2714,1000,meters,jsons/MX_seq13_0_VE1000.json,278633,487252,28,Man
33,884818,final-intermixed-textured,v2,jsons/MX_seq13_0_VE1000.json,http://54.235.29.9/FacialAge/BNav_EC2/DepthDuration/MX_fS_VE_MTurk/MX_fS_HTML.html#75,75,2240,1173,2240,1260,1-8-2024,21-25-55,34,catch_stimuli/c3.png,1000,,,0,3516,1000,meters,jsons/MX_seq13_0_VE1000.json,278633,487252,28,Man
34,884818,final-intermixed-textured,v2,jsons/MX_seq13_0_VE1000.json,http://54.235.29.9/FacialAge/BNav_EC2/DepthDuration/MX_fS_VE_MTurk/MX_fS_HTML.html#75,75,2240,1173,2240,1260,1-8-2024,21-25-55,35,VR_target_stimuli/s5_1.3x_4_393.png,1000,1.3x,4.0,8,3199,1000,meters,jsons/MX_seq13_0_VE1000.json,278633,487252,28,Man
35,884818,final-intermixed-textured,v2,jsons/MX_seq13_0_VE1000.json,http://54.235.29.9/FacialAge/BNav_EC2/DepthDuration/MX_fS_VE_MTurk/MX_fS_HTML.html#75,75,2240,1173,2240,1260,1-8-2024,21-25-55,36,VR_target_stimuli/s37_1x_3.3_563.png,1000,1x,3.3,7,3250,1000,meters,jsons/MX_seq13_0_VE1000.json,278633,487252,28,Man
36,884818,final-intermixed-textured,v2,jsons/MX_seq13_0_VE1000.json,http://54.235.29.9/FacialAge/BNav_EC2/DepthDuration/MX_fS_VE_MTurk/MX_fS_HTML.html#75,75,2240,1173,2240,1260,1-8-2024,21-25-55,37,VR_target_stimuli/s46_0.75x_2.42_343.png,1000,0.75x,2.42,10,5097,1001,meters,jsons/MX_seq13_0_VE1000.json,278633,487252,28,Man
37,884818,final-intermixed-textured,v2,jsons/MX_seq13_0_VE1000.json,http://54.235.29.9/FacialAge/BNav_EC2/DepthDuration/MX_fS_VE_MTurk/MX_fS_HTML.html#75,75,2240,1173,2240,1260,1-8-2024,21-25-55,38,VR_target_stimuli/s22_0.75x_4.29_348_BC.png,1000,0.75x,4.29,9,10617,999,meters,jsons/MX_seq13_0_VE1000.json,278633,487252,28,Man
38,884818,final-intermixed-textured,v2,jsons/MX_seq13_0_VE1000.json,http://54.235.29.9/FacialAge/BNav_EC2/DepthDuration/MX_fS_VE_MTurk/MX_fS_HTML.html#75,75,2240,1173,2240,1260,1-8-2024,21-25-55,39,VR_target_stimuli/s42_1.3x_3.2_305_BC.png,1000,1.3x,3.2,6,3197,1000,meters,jsons/MX_seq13_0_VE1000.json,278633,487252,28,Man
39,884818,final-intermixed-textured,v2,jsons/MX_seq13_0_VE1000.json,http://54.235.29.9/FacialAge/BNav_EC2/DepthDuration/MX_fS_VE_MTurk/MX_fS_HTML.html#75,75,2240,1173,2240,1260,1-8-2024,21-25-55,40,VR_target_stimuli/s25_1x_1.4_290_BC.png,1000,1x,1.4,3,3365,1000,meters,jsons/MX_seq13_0_VE1000.json,278633,487252,28,Man
40,884818,final-intermixed-textured,v2,jsons/MX_seq13_0_VE1000.json,http://54.235.29.9/FacialAge/BNav_EC2/DepthDuration/MX_fS_VE_MTurk/MX_fS_HTML.html#75,75,2240,1173,2240,1260,1-8-2024,21-25-55,41,VR_target_stimuli/s50_1.3x_4.53_518_BC.png,1000,1.3x,4.53,7,2731,1000,meters,jsons/MX_seq13_0_VE1000.json,278633,487252,28,Man
41,884818,final-intermixed-textured,v2,jsons/MX_seq13_0_VE1000.json,http://54.235.29.9/FacialAge/BNav_EC2/DepthDuration/MX_fS_VE_MTurk/MX_fS_HTML.html#75,75,2240,1173,2240,1260,1-8-2024,21-25-55,42,VR_target_stimuli/s53_0.75x_1.6_403_BC.png,1000,0.75x,1.6,3,2967,1000,meters,jsons/MX_seq13_0_VE1000.json,278633,487252,28,Man
42,884818,final-intermixed-textured,v2,jsons/MX_seq13_0_VE1000.json,http://54.235.29.9/FacialAge/BNav_EC2/DepthDuration/MX_fS_VE_MTurk/MX_fS_HTML.html#75,75,2240,1173,2240,1260,1-8-2024,21-25-55,43,VR_target_stimuli/s38_1x_3.55_353.png,1000,1x,3.55,8,4482,1001,meters,jsons/MX_seq13_0_VE1000.json,278633,487252,28,Man
43,884818,final-intermixed-textured,v2,jsons/MX_seq13_0_VE1000.json,http://54.235.29.9/FacialAge/BNav_EC2/DepthDuration/MX_fS_VE_MTurk/MX_fS_HTML.html#75,75,2240,1173,2240,1260,1-8-2024,21-25-55,44,VR_target_stimuli/s9_0.75x_1.2_260.png,1000,0.75x,1.2,3,3382,999,meters,jsons/MX_seq13_0_VE1000.json,278633,487252,28,Man
44,884818,final-intermixed-textured,v2,jsons/MX_seq13_0_VE1000.json,http://54.235.29.9/FacialAge/BNav_EC2/DepthDuration/MX_fS_VE_MTurk/MX_fS_HTML.html#75,75,2240,1173,2240,1260,1-8-2024,21-25-55,45,catch_stimuli/c4.png,1000,,,0,3466,1001,meters,jsons/MX_seq13_0_VE1000.json,278633,487252,28,Man
45,884818,final-intermixed-textured,v2,jsons/MX_seq13_0_VE1000.json,http://54.235.29.9/FacialAge/BNav_EC2/DepthDuration/MX_fS_VE_MTurk/MX_fS_HTML.html#75,75,2240,1173,2240,1260,1-8-2024,21-25-55,46,VR_target_stimuli/s44_1.3x_4.4_325.png,1000,1.3x,4.4,8,20614,999,meters,jsons/MX_seq13_0_VE1000.json,278633,487252,28,Man
46,884818,final-intermixed-textured,v2,jsons/MX_seq13_0_VE1000.json,http://54.235.29.9/FacialAge/BNav_EC2/DepthDuration/MX_fS_VE_MTurk/MX_fS_HTML.html#75,75,2240,1173,2240,1260,1-8-2024,21-25-55,47,VR_target_stimuli/s3_1x_5_385_BC.png,1000,1x,5.0,8,4416,1000,meters,jsons/MX_seq13_0_VE1000.json,278633,487252,28,Man
47,884818,final-intermixed-textured,v2,jsons/MX_seq13_0_VE1000.json,http://54.235.29.9/FacialAge/BNav_EC2/DepthDuration/MX_fS_VE_MTurk/MX_fS_HTML.html#75,75,2240,1173,2240,1260,1-8-2024,21-25-55,48,VR_target_stimuli/s1_1x_1.7_262_BC.png,1000,1x,1.7,4,2831,1000,meters,jsons/MX_seq13_0_VE1000.json,278633,487252,28,Man
48,884818,final-intermixed-textured,v2,jsons/MX_seq13_0_VE1000.json,http://54.235.29.9/FacialAge/BNav_EC2/DepthDuration/MX_fS_VE_MTurk/MX_fS_HTML.html#75,75,2240,1173,2240,1260,1-8-2024,21-25-55,49,VR_target_stimuli/s11_0.75x_5_359.png,1000,0.75x,5.0,10,4068,1001,meters,jsons/MX_seq13_0_VE1000.json,278633,487252,28,Man
49,884818,final-intermixed-textured,v2,jsons/MX_seq13_0_VE1000.json,http://54.235.29.9/FacialAge/BNav_EC2/DepthDuration/MX_fS_VE_MTurk/MX_fS_HTML.html#75,75,2240,1173,2240,1260,1-8-2024,21-25-55,50,VR_target_stimuli/s2_1.3x_2.7_397.png,1000,1.3x,2.7,6,3397,999,meters,jsons/MX_seq13_0_VE1000.json,278633,487252,28,Man
50,884818,final-intermixed-textured,v2,jsons/MX_seq13_0_VE1000.json,http://54.235.29.9/FacialAge/BNav_EC2/DepthDuration/MX_fS_VE_MTurk/MX_fS_HTML.html#75,75,2240,1173,2240,1260,1-8-2024,21-25-55,51,VR_target_stimuli/s6_0.75x_2.1_290_BC.png,1000,0.75x,2.1,5,3232,998,meters,jsons/MX_seq13_0_VE1000.json,278633,487252,28,Man
51,884818,final-intermixed-textured,v2,jsons/MX_seq13_0_VE1000.json,http://54.235.29.9/FacialAge/BNav_EC2/DepthDuration/MX_fS_VE_MTurk/MX_fS_HTML.html#75,75,2240,1173,2240,1260,1-8-2024,21-25-55,52,VR_target_stimuli/s0_1x_2.6_351.png,1000,1x,2.6,5,2766,1001,meters,jsons/MX_seq13_0_VE1000.json,278633,487252,28,Man
52,884818,final-intermixed-textured,v2,jsons/MX_seq13_0_VE1000.json,http://54.235.29.9/FacialAge/BNav_EC2/DepthDuration/MX_fS_VE_MTurk/MX_fS_HTML.html#75,75,2240,1173,2240,1260,1-8-2024,21-25-55,53,catch_stimuli/c5.png,1000,,,0,3548,999,meters,jsons/MX_seq13_0_VE1000.json,278633,487252,28,Man
53,884818,final-intermixed-textured,v2,jsons/MX_seq13_0_VE1000.json,http://54.235.29.9/FacialAge/BNav_EC2/DepthDuration/MX_fS_VE_MTurk/MX_fS_HTML.html#75,75,2240,1173,2240,1260,1-8-2024,21-25-55,54,VR_target_stimuli/s34_1.3x_2.8_294_BC.png,1000,1.3x,2.8,6,3065,1000,meters,jsons/MX_seq13_0_VE1000.json,278633,487252,28,Man
54,884818,final-intermixed-textured,v2,jsons/MX_seq13_0_VE1000.json,http://54.235.29.9/FacialAge/BNav_EC2/DepthDuration/MX_fS_VE_MTurk/MX_fS_HTML.html#75,75,2240,1173,2240,1260,1-8-2024,21-25-55,55,VR_target_stimuli/s13_1x_2.4_310.png,1000,1x,2.4,6,2732,1000,meters,jsons/MX_seq13_0_VE1000.json,278633,487252,28,Man
55,884818,final-intermixed-textured,v2,jsons/MX_seq13_0_VE1000.json,http://54.235.29.9/FacialAge/BNav_EC2/DepthDuration/MX_fS_VE_MTurk/MX_fS_HTML.html#75,75,2240,1173,2240,1260,1-8-2024,21-25-55,56,VR_target_stimuli/s14_0.75x_3.83_355_BC.png,1000,0.75x,3.83,9,3199,1002,meters,jsons/MX_seq13_0_VE1000.json,278633,487252,28,Man
56,884818,final-intermixed-textured,v2,jsons/MX_seq13_0_VE1000.json,http://54.235.29.9/FacialAge/BNav_EC2/DepthDuration/MX_fS_VE_MTurk/MX_fS_HTML.html#75,75,2240,1173,2240,1260,1-8-2024,21-25-55,57,VR_target_stimuli/s47_1.3x_3.45_373.png,1000,1.3x,3.45,3,3983,1000,meters,jsons/MX_seq13_0_VE1000.json,278633,487252,28,Man
57,884818,final-intermixed-textured,v2,jsons/MX_seq13_0_VE1000.json,http://54.235.29.9/FacialAge/BNav_EC2/DepthDuration/MX_fS_VE_MTurk/MX_fS_HTML.html#75,75,2240,1173,2240,1260,1-8-2024,21-25-55,58,VR_target_stimuli/s29_1.3x_1.3_253_BC.png,1000,1.3x,1.3,3,2697,1000,meters,jsons/MX_seq13_0_VE1000.json,278633,487252,28,Man
58,884818,final-intermixed-textured,v2,jsons/MX_seq13_0_VE1000.json,http://54.235.29.9/FacialAge/BNav_EC2/DepthDuration/MX_fS_VE_MTurk/MX_fS_HTML.html#75,75,2240,1173,2240,1260,1-8-2024,21-25-55,59,VR_target_stimuli/s28_1x_3.2_362_BC.png,1000,1x,3.2,7,2981,1000,meters,jsons/MX_seq13_0_VE1000.json,278633,487252,28,Man
59,884818,final-intermixed-textured,v2,jsons/MX_seq13_0_VE1000.json,http://54.235.29.9/FacialAge/BNav_EC2/DepthDuration/MX_fS_VE_MTurk/MX_fS_HTML.html#75,75,2240,1173,2240,1260,1-8-2024,21-25-55,60,VR_target_stimuli/s48_0.75x_2.55_243.png,1000,0.75x,2.55,7,2915,1000,meters,jsons/MX_seq13_0_VE1000.json,278633,487252,28,Man
