,subjID,experimentName,versionName,sequenceName,url,selected_row,windowWidth,windowHeight,screenWidth,screenHeight,startDate,startTime,trial,stimulus,duration,scale,actual_depth,depth_estimate,trial_RT,log_sceneDuration,unitSelection,seq_filepath,experimentTime,totalTime,age,gender
0,889535,final-intermixed-textured,v2,jsons/MX_seq6_0_VE1000_flipped.json,http://54.235.29.9/FacialAge/BNav_EC2/DepthDuration/MX_fS_VE_MTurk/MX_fS_HTML.html#306,306,1920,911,1920,1080,1-8-2024,17-30-49,1,VR_target_stimuli/s34_0.75x_2.8_269.png,1000,0.75x,2.8,5,4119,1005,meters,jsons/MX_seq6_0_VE1000_flipped.json,229963,391747,26,Woman
1,889535,final-intermixed-textured,v2,jsons/MX_seq6_0_VE1000_flipped.json,http://54.235.29.9/FacialAge/BNav_EC2/DepthDuration/MX_fS_VE_MTurk/MX_fS_HTML.html#306,306,1920,911,1920,1080,1-8-2024,17-30-49,2,VR_target_stimuli/s13_1x_2.4_310.png,1000,1x,2.4,4,3701,989,meters,jsons/MX_seq6_0_VE1000_flipped.json,229963,391747,26,Woman
2,889535,final-intermixed-textured,v2,jsons/MX_seq6_0_VE1000_flipped.json,http://54.235.29.9/FacialAge/BNav_EC2/DepthDuration/MX_fS_VE_MTurk/MX_fS_HTML.html#306,306,1920,911,1920,1080,1-8-2024,17-30-49,3,VR_target_stimuli/s14_1.3x_3.83_359_BC.png,1000,1.3x,3.83,5,3356,1005,meters,jsons/MX_seq6_0_VE1000_flipped.json,229963,391747,26,Woman
3,889535,final-intermixed-textured,v2,jsons/MX_seq6_0_VE1000_flipped.json,http://54.235.29.9/FacialAge/BNav_EC2/DepthDuration/MX_fS_VE_MTurk/MX_fS_HTML.html#306,306,1920,911,1920,1080,1-8-2024,17-30-49,4,VR_target_stimuli/s47_1x_3.45_370_BC.png,1000,1x,3.45,4,3206,1004,meters,jsons/MX_seq6_0_VE1000_flipped.json,229963,391747,26,Woman
4,889535,final-intermixed-textured,v2,jsons/MX_seq6_0_VE1000_flipped.json,http://54.235.29.9/FacialAge/BNav_EC2/DepthDuration/MX_fS_VE_MTurk/MX_fS_HTML.html#306,306,1920,911,1920,1080,1-8-2024,17-30-49,5,VR_target_stimuli/s29_0.75x_1.3_246_BC.png,1000,0.75x,1.3,3,3196,1007,meters,jsons/MX_seq6_0_VE1000_flipped.json,229963,391747,26,Woman
5,889535,final-intermixed-textured,v2,jsons/MX_seq6_0_VE1000_flipped.json,http://54.235.29.9/FacialAge/BNav_EC2/DepthDuration/MX_fS_VE_MTurk/MX_fS_HTML.html#306,306,1920,911,1920,1080,1-8-2024,17-30-49,6,VR_target_stimuli/s28_1.3x_3.2_365.png,1000,1.3x,3.2,4,3249,1005,meters,jsons/MX_seq6_0_VE1000_flipped.json,229963,391747,26,Woman
6,889535,final-intermixed-textured,v2,jsons/MX_seq6_0_VE1000_flipped.json,http://54.235.29.9/FacialAge/BNav_EC2/DepthDuration/MX_fS_VE_MTurk/MX_fS_HTML.html#306,306,1920,911,1920,1080,1-8-2024,17-30-49,7,catch_stimuli/c0_BC.png,1000,,,0,3326,1005,meters,jsons/MX_seq6_0_VE1000_flipped.json,229963,391747,26,Woman
7,889535,final-intermixed-textured,v2,jsons/MX_seq6_0_VE1000_flipped.json,http://54.235.29.9/FacialAge/BNav_EC2/DepthDuration/MX_fS_VE_MTurk/MX_fS_HTML.html#306,306,1920,911,1920,1080,1-8-2024,17-30-49,8,VR_target_stimuli/s48_1.3x_2.55_255.png,1000,1.3x,2.55,4,3317,1005,meters,jsons/MX_seq6_0_VE1000_flipped.json,229963,391747,26,Woman
8,889535,final-intermixed-textured,v2,jsons/MX_seq6_0_VE1000_flipped.json,http://54.235.29.9/FacialAge/BNav_EC2/DepthDuration/MX_fS_VE_MTurk/MX_fS_HTML.html#306,306,1920,911,1920,1080,1-8-2024,17-30-49,9,VR_target_stimuli/s19_1x_1.21_263_BC.png,1000,1x,1.21,2,3006,1006,meters,jsons/MX_seq6_0_VE1000_flipped.json,229963,391747,26,Woman
9,889535,final-intermixed-textured,v2,jsons/MX_seq6_0_VE1000_flipped.json,http://54.235.29.9/FacialAge/BNav_EC2/DepthDuration/MX_fS_VE_MTurk/MX_fS_HTML.html#306,306,1920,911,1920,1080,1-8-2024,17-30-49,10,VR_target_stimuli/s21_0.75x_4.22_374.png,1000,0.75x,4.22,6,4557,1005,meters,jsons/MX_seq6_0_VE1000_flipped.json,229963,391747,26,Woman
10,889535,final-intermixed-textured,v2,jsons/MX_seq6_0_VE1000_flipped.json,http://54.235.29.9/FacialAge/BNav_EC2/DepthDuration/MX_fS_VE_MTurk/MX_fS_HTML.html#306,306,1920,911,1920,1080,1-8-2024,17-30-49,11,VR_target_stimuli/s8_1x_3.1_332.png,1000,1x,3.1,5,3114,1006,meters,jsons/MX_seq6_0_VE1000_flipped.json,229963,391747,26,Woman
11,889535,final-intermixed-textured,v2,jsons/MX_seq6_0_VE1000_flipped.json,http://54.235.29.9/FacialAge/BNav_EC2/DepthDuration/MX_fS_VE_MTurk/MX_fS_HTML.html#306,306,1920,911,1920,1080,1-8-2024,17-30-49,12,VR_target_stimuli/s27_1.3x_1.76_250_BC.png,1000,1.3x,1.76,3,3852,1005,meters,jsons/MX_seq6_0_VE1000_flipped.json,229963,391747,26,Woman
12,889535,final-intermixed-textured,v2,jsons/MX_seq6_0_VE1000_flipped.json,http://54.235.29.9/FacialAge/BNav_EC2/DepthDuration/MX_fS_VE_MTurk/MX_fS_HTML.html#306,306,1920,911,1920,1080,1-8-2024,17-30-49,13,VR_target_stimuli/s15_0.75x_4.2_388_BC.png,1000,0.75x,4.2,5,3547,989,meters,jsons/MX_seq6_0_VE1000_flipped.json,229963,391747,26,Woman
13,889535,final-intermixed-textured,v2,jsons/MX_seq6_0_VE1000_flipped.json,http://54.235.29.9/FacialAge/BNav_EC2/DepthDuration/MX_fS_VE_MTurk/MX_fS_HTML.html#306,306,1920,911,1920,1080,1-8-2024,17-30-49,14,VR_target_stimuli/s4_1.3x_1.4_328_BC.png,1000,1.3x,1.4,2,3012,1004,meters,jsons/MX_seq6_0_VE1000_flipped.json,229963,391747,26,Woman
14,889535,final-intermixed-textured,v2,jsons/MX_seq6_0_VE1000_flipped.json,http://54.235.29.9/FacialAge/BNav_EC2/DepthDuration/MX_fS_VE_MTurk/MX_fS_HTML.html#306,306,1920,911,1920,1080,1-8-2024,17-30-49,15,VR_target_stimuli/s35_1x_2_331.png,1000,1x,2.0,3,3163,989,meters,jsons/MX_seq6_0_VE1000_flipped.json,229963,391747,26,Woman
15,889535,final-intermixed-textured,v2,jsons/MX_seq6_0_VE1000_flipped.json,http://54.235.29.9/FacialAge/BNav_EC2/DepthDuration/MX_fS_VE_MTurk/MX_fS_HTML.html#306,306,1920,911,1920,1080,1-8-2024,17-30-49,16,VR_target_stimuli/s49_0.75x_4.67_328_BC.png,1000,0.75x,4.67,5,3166,1006,meters,jsons/MX_seq6_0_VE1000_flipped.json,229963,391747,26,Woman
16,889535,final-intermixed-textured,v2,jsons/MX_seq6_0_VE1000_flipped.json,http://54.235.29.9/FacialAge/BNav_EC2/DepthDuration/MX_fS_VE_MTurk/MX_fS_HTML.html#306,306,1920,911,1920,1080,1-8-2024,17-30-49,17,catch_stimuli/c1_BC.png,1000,,,0,3161,989,meters,jsons/MX_seq6_0_VE1000_flipped.json,229963,391747,26,Woman
17,889535,final-intermixed-textured,v2,jsons/MX_seq6_0_VE1000_flipped.json,http://54.235.29.9/FacialAge/BNav_EC2/DepthDuration/MX_fS_VE_MTurk/MX_fS_HTML.html#306,306,1920,911,1920,1080,1-8-2024,17-30-49,18,VR_target_stimuli/s7_0.75x_1.5_253.png,1000,0.75x,1.5,3,2967,1004,meters,jsons/MX_seq6_0_VE1000_flipped.json,229963,391747,26,Woman
18,889535,final-intermixed-textured,v2,jsons/MX_seq6_0_VE1000_flipped.json,http://54.235.29.9/FacialAge/BNav_EC2/DepthDuration/MX_fS_VE_MTurk/MX_fS_HTML.html#306,306,1920,911,1920,1080,1-8-2024,17-30-49,19,VR_target_stimuli/s20_1.3x_4.99_412.png,1000,1.3x,4.99,5,2966,1005,meters,jsons/MX_seq6_0_VE1000_flipped.json,229963,391747,26,Woman
19,889535,final-intermixed-textured,v2,jsons/MX_seq6_0_VE1000_flipped.json,http://54.235.29.9/FacialAge/BNav_EC2/DepthDuration/MX_fS_VE_MTurk/MX_fS_HTML.html#306,306,1920,911,1920,1080,1-8-2024,17-30-49,20,VR_target_stimuli/s31_1x_4.96_333_BC.png,1000,1x,4.96,5,3115,1005,meters,jsons/MX_seq6_0_VE1000_flipped.json,229963,391747,26,Woman
20,889535,final-intermixed-textured,v2,jsons/MX_seq6_0_VE1000_flipped.json,http://54.235.29.9/FacialAge/BNav_EC2/DepthDuration/MX_fS_VE_MTurk/MX_fS_HTML.html#306,306,1920,911,1920,1080,1-8-2024,17-30-49,21,VR_target_stimuli/s33_1.3x_3.1_378.png,1000,1.3x,3.1,5,3083,1006,meters,jsons/MX_seq6_0_VE1000_flipped.json,229963,391747,26,Woman
21,889535,final-intermixed-textured,v2,jsons/MX_seq6_0_VE1000_flipped.json,http://54.235.29.9/FacialAge/BNav_EC2/DepthDuration/MX_fS_VE_MTurk/MX_fS_HTML.html#306,306,1920,911,1920,1080,1-8-2024,17-30-49,22,VR_target_stimuli/s52_0.75x_3.2_270_BC.png,1000,0.75x,3.2,5,4545,1005,meters,jsons/MX_seq6_0_VE1000_flipped.json,229963,391747,26,Woman
22,889535,final-intermixed-textured,v2,jsons/MX_seq6_0_VE1000_flipped.json,http://54.235.29.9/FacialAge/BNav_EC2/DepthDuration/MX_fS_VE_MTurk/MX_fS_HTML.html#306,306,1920,911,1920,1080,1-8-2024,17-30-49,23,VR_target_stimuli/s32_1x_1.5_218.png,1000,1x,1.5,4,3187,990,meters,jsons/MX_seq6_0_VE1000_flipped.json,229963,391747,26,Woman
23,889535,final-intermixed-textured,v2,jsons/MX_seq6_0_VE1000_flipped.json,http://54.235.29.9/FacialAge/BNav_EC2/DepthDuration/MX_fS_VE_MTurk/MX_fS_HTML.html#306,306,1920,911,1920,1080,1-8-2024,17-30-49,24,VR_target_stimuli/s18_0.75x_2.25_341.png,1000,0.75x,2.25,3,2979,992,meters,jsons/MX_seq6_0_VE1000_flipped.json,229963,391747,26,Woman
24,889535,final-intermixed-textured,v2,jsons/MX_seq6_0_VE1000_flipped.json,http://54.235.29.9/FacialAge/BNav_EC2/DepthDuration/MX_fS_VE_MTurk/MX_fS_HTML.html#306,306,1920,911,1920,1080,1-8-2024,17-30-49,25,VR_target_stimuli/s39_1.3x_1_208_BC.png,1000,1.3x,1.0,2,2897,990,meters,jsons/MX_seq6_0_VE1000_flipped.json,229963,391747,26,Woman
25,889535,final-intermixed-textured,v2,jsons/MX_seq6_0_VE1000_flipped.json,http://54.235.29.9/FacialAge/BNav_EC2/DepthDuration/MX_fS_VE_MTurk/MX_fS_HTML.html#306,306,1920,911,1920,1080,1-8-2024,17-30-49,26,catch_stimuli/c2_BC.png,1000,,,0,3002,998,meters,jsons/MX_seq6_0_VE1000_flipped.json,229963,391747,26,Woman
26,889535,final-intermixed-textured,v2,jsons/MX_seq6_0_VE1000_flipped.json,http://54.235.29.9/FacialAge/BNav_EC2/DepthDuration/MX_fS_VE_MTurk/MX_fS_HTML.html#306,306,1920,911,1920,1080,1-8-2024,17-30-49,27,VR_target_stimuli/s51_1x_3.64_461_BC.png,1000,1x,3.64,3,14037,1003,meters,jsons/MX_seq6_0_VE1000_flipped.json,229963,391747,26,Woman
27,889535,final-intermixed-textured,v2,jsons/MX_seq6_0_VE1000_flipped.json,http://54.235.29.9/FacialAge/BNav_EC2/DepthDuration/MX_fS_VE_MTurk/MX_fS_HTML.html#306,306,1920,911,1920,1080,1-8-2024,17-30-49,28,VR_target_stimuli/s43_1x_2.2_354_BC.png,1000,1x,2.2,3,3032,994,meters,jsons/MX_seq6_0_VE1000_flipped.json,229963,391747,26,Woman
28,889535,final-intermixed-textured,v2,jsons/MX_seq6_0_VE1000_flipped.json,http://54.235.29.9/FacialAge/BNav_EC2/DepthDuration/MX_fS_VE_MTurk/MX_fS_HTML.html#306,306,1920,911,1920,1080,1-8-2024,17-30-49,29,VR_target_stimuli/s24_0.75x_3.3_344.png,1000,0.75x,3.3,5,3188,1004,meters,jsons/MX_seq6_0_VE1000_flipped.json,229963,391747,26,Woman
29,889535,final-intermixed-textured,v2,jsons/MX_seq6_0_VE1000_flipped.json,http://54.235.29.9/FacialAge/BNav_EC2/DepthDuration/MX_fS_VE_MTurk/MX_fS_HTML.html#306,306,1920,911,1920,1080,1-8-2024,17-30-49,30,VR_target_stimuli/s10_1.3x_2.7_325.png,1000,1.3x,2.7,4,3097,994,meters,jsons/MX_seq6_0_VE1000_flipped.json,229963,391747,26,Woman
30,889535,final-intermixed-textured,v2,jsons/MX_seq6_0_VE1000_flipped.json,http://54.235.29.9/FacialAge/BNav_EC2/DepthDuration/MX_fS_VE_MTurk/MX_fS_HTML.html#306,306,1920,911,1920,1080,1-8-2024,17-30-49,31,VR_target_stimuli/s36_1x_4.1_423.png,1000,1x,4.1,5,3020,1005,meters,jsons/MX_seq6_0_VE1000_flipped.json,229963,391747,26,Woman
31,889535,final-intermixed-textured,v2,jsons/MX_seq6_0_VE1000_flipped.json,http://54.235.29.9/FacialAge/BNav_EC2/DepthDuration/MX_fS_VE_MTurk/MX_fS_HTML.html#306,306,1920,911,1920,1080,1-8-2024,17-30-49,32,VR_target_stimuli/s40_1.3x_1.2_332_BC.png,1000,1.3x,1.2,2,2807,999,meters,jsons/MX_seq6_0_VE1000_flipped.json,229963,391747,26,Woman
32,889535,final-intermixed-textured,v2,jsons/MX_seq6_0_VE1000_flipped.json,http://54.235.29.9/FacialAge/BNav_EC2/DepthDuration/MX_fS_VE_MTurk/MX_fS_HTML.html#306,306,1920,911,1920,1080,1-8-2024,17-30-49,33,VR_target_stimuli/s41_0.75x_2.1_281_BC.png,1000,0.75x,2.1,3,2906,990,meters,jsons/MX_seq6_0_VE1000_flipped.json,229963,391747,26,Woman
33,889535,final-intermixed-textured,v2,jsons/MX_seq6_0_VE1000_flipped.json,http://54.235.29.9/FacialAge/BNav_EC2/DepthDuration/MX_fS_VE_MTurk/MX_fS_HTML.html#306,306,1920,911,1920,1080,1-8-2024,17-30-49,34,catch_stimuli/c3_BC.png,1000,,,0,3042,1006,meters,jsons/MX_seq6_0_VE1000_flipped.json,229963,391747,26,Woman
34,889535,final-intermixed-textured,v2,jsons/MX_seq6_0_VE1000_flipped.json,http://54.235.29.9/FacialAge/BNav_EC2/DepthDuration/MX_fS_VE_MTurk/MX_fS_HTML.html#306,306,1920,911,1920,1080,1-8-2024,17-30-49,35,VR_target_stimuli/s45_1.3x_3.5_377.png,1000,1.3x,3.5,4,2949,991,meters,jsons/MX_seq6_0_VE1000_flipped.json,229963,391747,26,Woman
35,889535,final-intermixed-textured,v2,jsons/MX_seq6_0_VE1000_flipped.json,http://54.235.29.9/FacialAge/BNav_EC2/DepthDuration/MX_fS_VE_MTurk/MX_fS_HTML.html#306,306,1920,911,1920,1080,1-8-2024,17-30-49,36,VR_target_stimuli/s23_1x_3.65_353.png,1000,1x,3.65,5,2975,988,meters,jsons/MX_seq6_0_VE1000_flipped.json,229963,391747,26,Woman
36,889535,final-intermixed-textured,v2,jsons/MX_seq6_0_VE1000_flipped.json,http://54.235.29.9/FacialAge/BNav_EC2/DepthDuration/MX_fS_VE_MTurk/MX_fS_HTML.html#306,306,1920,911,1920,1080,1-8-2024,17-30-49,37,VR_target_stimuli/s26_0.75x_4_430.png,1000,0.75x,4.0,4,3137,1005,meters,jsons/MX_seq6_0_VE1000_flipped.json,229963,391747,26,Woman
37,889535,final-intermixed-textured,v2,jsons/MX_seq6_0_VE1000_flipped.json,http://54.235.29.9/FacialAge/BNav_EC2/DepthDuration/MX_fS_VE_MTurk/MX_fS_HTML.html#306,306,1920,911,1920,1080,1-8-2024,17-30-49,38,VR_target_stimuli/s12_0.75x_3.1_364_BC.png,1000,0.75x,3.1,4,3305,992,meters,jsons/MX_seq6_0_VE1000_flipped.json,229963,391747,26,Woman
38,889535,final-intermixed-textured,v2,jsons/MX_seq6_0_VE1000_flipped.json,http://54.235.29.9/FacialAge/BNav_EC2/DepthDuration/MX_fS_VE_MTurk/MX_fS_HTML.html#306,306,1920,911,1920,1080,1-8-2024,17-30-49,39,VR_target_stimuli/s30_1.3x_2.3_337_BC.png,1000,1.3x,2.3,3,2974,990,meters,jsons/MX_seq6_0_VE1000_flipped.json,229963,391747,26,Woman
39,889535,final-intermixed-textured,v2,jsons/MX_seq6_0_VE1000_flipped.json,http://54.235.29.9/FacialAge/BNav_EC2/DepthDuration/MX_fS_VE_MTurk/MX_fS_HTML.html#306,306,1920,911,1920,1080,1-8-2024,17-30-49,40,VR_target_stimuli/s16_1x_1_219_BC.png,1000,1x,1.0,2,2791,1005,meters,jsons/MX_seq6_0_VE1000_flipped.json,229963,391747,26,Woman
40,889535,final-intermixed-textured,v2,jsons/MX_seq6_0_VE1000_flipped.json,http://54.235.29.9/FacialAge/BNav_EC2/DepthDuration/MX_fS_VE_MTurk/MX_fS_HTML.html#306,306,1920,911,1920,1080,1-8-2024,17-30-49,41,VR_target_stimuli/s17_1.3x_1.8_300.png,1000,1.3x,1.8,2,2825,1005,meters,jsons/MX_seq6_0_VE1000_flipped.json,229963,391747,26,Woman
41,889535,final-intermixed-textured,v2,jsons/MX_seq6_0_VE1000_flipped.json,http://54.235.29.9/FacialAge/BNav_EC2/DepthDuration/MX_fS_VE_MTurk/MX_fS_HTML.html#306,306,1920,911,1920,1080,1-8-2024,17-30-49,42,VR_target_stimuli/s5_0.75x_4_375.png,1000,0.75x,4.0,3,2792,990,meters,jsons/MX_seq6_0_VE1000_flipped.json,229963,391747,26,Woman
42,889535,final-intermixed-textured,v2,jsons/MX_seq6_0_VE1000_flipped.json,http://54.235.29.9/FacialAge/BNav_EC2/DepthDuration/MX_fS_VE_MTurk/MX_fS_HTML.html#306,306,1920,911,1920,1080,1-8-2024,17-30-49,43,VR_target_stimuli/s37_1x_3.3_563_BC.png,1000,1x,3.3,2,2757,1004,meters,jsons/MX_seq6_0_VE1000_flipped.json,229963,391747,26,Woman
43,889535,final-intermixed-textured,v2,jsons/MX_seq6_0_VE1000_flipped.json,http://54.235.29.9/FacialAge/BNav_EC2/DepthDuration/MX_fS_VE_MTurk/MX_fS_HTML.html#306,306,1920,911,1920,1080,1-8-2024,17-30-49,44,VR_target_stimuli/s46_0.75x_2.42_343_BC.png,1000,0.75x,2.42,3,3119,1005,meters,jsons/MX_seq6_0_VE1000_flipped.json,229963,391747,26,Woman
44,889535,final-intermixed-textured,v2,jsons/MX_seq6_0_VE1000_flipped.json,http://54.235.29.9/FacialAge/BNav_EC2/DepthDuration/MX_fS_VE_MTurk/MX_fS_HTML.html#306,306,1920,911,1920,1080,1-8-2024,17-30-49,45,catch_stimuli/c4_BC.png,1000,,,0,3093,1004,meters,jsons/MX_seq6_0_VE1000_flipped.json,229963,391747,26,Woman
45,889535,final-intermixed-textured,v2,jsons/MX_seq6_0_VE1000_flipped.json,http://54.235.29.9/FacialAge/BNav_EC2/DepthDuration/MX_fS_VE_MTurk/MX_fS_HTML.html#306,306,1920,911,1920,1080,1-8-2024,17-30-49,46,VR_target_stimuli/s22_1.3x_4.29_364_BC.png,1000,1.3x,4.29,4,2976,997,meters,jsons/MX_seq6_0_VE1000_flipped.json,229963,391747,26,Woman
46,889535,final-intermixed-textured,v2,jsons/MX_seq6_0_VE1000_flipped.json,http://54.235.29.9/FacialAge/BNav_EC2/DepthDuration/MX_fS_VE_MTurk/MX_fS_HTML.html#306,306,1920,911,1920,1080,1-8-2024,17-30-49,47,VR_target_stimuli/s42_1x_3.2_303.png,1000,1x,3.2,3,3043,1003,meters,jsons/MX_seq6_0_VE1000_flipped.json,229963,391747,26,Woman
47,889535,final-intermixed-textured,v2,jsons/MX_seq6_0_VE1000_flipped.json,http://54.235.29.9/FacialAge/BNav_EC2/DepthDuration/MX_fS_VE_MTurk/MX_fS_HTML.html#306,306,1920,911,1920,1080,1-8-2024,17-30-49,48,VR_target_stimuli/s25_1x_1.4_290.png,1000,1x,1.4,2,2750,1005,meters,jsons/MX_seq6_0_VE1000_flipped.json,229963,391747,26,Woman
48,889535,final-intermixed-textured,v2,jsons/MX_seq6_0_VE1000_flipped.json,http://54.235.29.9/FacialAge/BNav_EC2/DepthDuration/MX_fS_VE_MTurk/MX_fS_HTML.html#306,306,1920,911,1920,1080,1-8-2024,17-30-49,49,VR_target_stimuli/s50_0.75x_4.53_517.png,1000,0.75x,4.53,3,2765,989,meters,jsons/MX_seq6_0_VE1000_flipped.json,229963,391747,26,Woman
49,889535,final-intermixed-textured,v2,jsons/MX_seq6_0_VE1000_flipped.json,http://54.235.29.9/FacialAge/BNav_EC2/DepthDuration/MX_fS_VE_MTurk/MX_fS_HTML.html#306,306,1920,911,1920,1080,1-8-2024,17-30-49,50,VR_target_stimuli/s53_1.3x_1.6_355.png,1000,1.3x,1.6,1,2965,990,meters,jsons/MX_seq6_0_VE1000_flipped.json,229963,391747,26,Woman
50,889535,final-intermixed-textured,v2,jsons/MX_seq6_0_VE1000_flipped.json,http://54.235.29.9/FacialAge/BNav_EC2/DepthDuration/MX_fS_VE_MTurk/MX_fS_HTML.html#306,306,1920,911,1920,1080,1-8-2024,17-30-49,51,VR_target_stimuli/s38_0.75x_3.55_346_BC.png,1000,0.75x,3.55,3,3346,989,meters,jsons/MX_seq6_0_VE1000_flipped.json,229963,391747,26,Woman
51,889535,final-intermixed-textured,v2,jsons/MX_seq6_0_VE1000_flipped.json,http://54.235.29.9/FacialAge/BNav_EC2/DepthDuration/MX_fS_VE_MTurk/MX_fS_HTML.html#306,306,1920,911,1920,1080,1-8-2024,17-30-49,52,VR_target_stimuli/s9_1x_1.2_263_BC.png,1000,1x,1.2,1,2815,1002,meters,jsons/MX_seq6_0_VE1000_flipped.json,229963,391747,26,Woman
52,889535,final-intermixed-textured,v2,jsons/MX_seq6_0_VE1000_flipped.json,http://54.235.29.9/FacialAge/BNav_EC2/DepthDuration/MX_fS_VE_MTurk/MX_fS_HTML.html#306,306,1920,911,1920,1080,1-8-2024,17-30-49,53,catch_stimuli/c5_BC.png,1000,,,0,3304,1004,meters,jsons/MX_seq6_0_VE1000_flipped.json,229963,391747,26,Woman
53,889535,final-intermixed-textured,v2,jsons/MX_seq6_0_VE1000_flipped.json,http://54.235.29.9/FacialAge/BNav_EC2/DepthDuration/MX_fS_VE_MTurk/MX_fS_HTML.html#306,306,1920,911,1920,1080,1-8-2024,17-30-49,54,VR_target_stimuli/s44_1.3x_4.4_325_BC.png,1000,1.3x,4.4,3,2837,989,meters,jsons/MX_seq6_0_VE1000_flipped.json,229963,391747,26,Woman
54,889535,final-intermixed-textured,v2,jsons/MX_seq6_0_VE1000_flipped.json,http://54.235.29.9/FacialAge/BNav_EC2/DepthDuration/MX_fS_VE_MTurk/MX_fS_HTML.html#306,306,1920,911,1920,1080,1-8-2024,17-30-49,55,VR_target_stimuli/s3_1x_5_385.png,1000,1x,5.0,4,2805,1003,meters,jsons/MX_seq6_0_VE1000_flipped.json,229963,391747,26,Woman
55,889535,final-intermixed-textured,v2,jsons/MX_seq6_0_VE1000_flipped.json,http://54.235.29.9/FacialAge/BNav_EC2/DepthDuration/MX_fS_VE_MTurk/MX_fS_HTML.html#306,306,1920,911,1920,1080,1-8-2024,17-30-49,56,VR_target_stimuli/s1_0.75x_1.7_265_BC.png,1000,0.75x,1.7,2,2729,1004,meters,jsons/MX_seq6_0_VE1000_flipped.json,229963,391747,26,Woman
56,889535,final-intermixed-textured,v2,jsons/MX_seq6_0_VE1000_flipped.json,http://54.235.29.9/FacialAge/BNav_EC2/DepthDuration/MX_fS_VE_MTurk/MX_fS_HTML.html#306,306,1920,911,1920,1080,1-8-2024,17-30-49,57,VR_target_stimuli/s11_1.3x_5_363_BC.png,1000,1.3x,5.0,4,3267,1002,meters,jsons/MX_seq6_0_VE1000_flipped.json,229963,391747,26,Woman
57,889535,final-intermixed-textured,v2,jsons/MX_seq6_0_VE1000_flipped.json,http://54.235.29.9/FacialAge/BNav_EC2/DepthDuration/MX_fS_VE_MTurk/MX_fS_HTML.html#306,306,1920,911,1920,1080,1-8-2024,17-30-49,58,VR_target_stimuli/s2_1.3x_2.7_397.png,1000,1.3x,2.7,2,3584,1006,meters,jsons/MX_seq6_0_VE1000_flipped.json,229963,391747,26,Woman
58,889535,final-intermixed-textured,v2,jsons/MX_seq6_0_VE1000_flipped.json,http://54.235.29.9/FacialAge/BNav_EC2/DepthDuration/MX_fS_VE_MTurk/MX_fS_HTML.html#306,306,1920,911,1920,1080,1-8-2024,17-30-49,59,VR_target_stimuli/s6_1x_2.1_293_BC.png,1000,1x,2.1,2,2934,989,meters,jsons/MX_seq6_0_VE1000_flipped.json,229963,391747,26,Woman
59,889535,final-intermixed-textured,v2,jsons/MX_seq6_0_VE1000_flipped.json,http://54.235.29.9/FacialAge/BNav_EC2/DepthDuration/MX_fS_VE_MTurk/MX_fS_HTML.html#306,306,1920,911,1920,1080,1-8-2024,17-30-49,60,VR_target_stimuli/s0_0.75x_2.6_345.png,1000,0.75x,2.6,2,2736,988,meters,jsons/MX_seq6_0_VE1000_flipped.json,229963,391747,26,Woman
