,subjID,experimentName,versionName,sequenceName,url,selected_row,windowWidth,windowHeight,screenWidth,screenHeight,startDate,startTime,trial,stimulus,duration,scale,actual_depth,depth_estimate,trial_RT,log_sceneDuration,unitSelection,seq_filepath,experimentTime,totalTime,age,gender
0,910671,final-intermixed-textured,v2,jsons/MX_seq41_0_VE1000.json,http://54.235.29.9/FacialAge/BNav_EC2/DepthDuration/MX_fS_VE_MTurk/MX_fS_HTML.html#167,167,1366,641,1366,768,1-8-2024,19-31-27,1,VR_target_stimuli/s16_0.75x_1_217.png,1000,0.75x,1.0,1.0,9667,1001,feet,jsons/MX_seq41_0_VE1000.json,407274,1071823,29,Woman
1,910671,final-intermixed-textured,v2,jsons/MX_seq41_0_VE1000.json,http://54.235.29.9/FacialAge/BNav_EC2/DepthDuration/MX_fS_VE_MTurk/MX_fS_HTML.html#167,167,1366,641,1366,768,1-8-2024,19-31-27,2,VR_target_stimuli/s17_1x_1.8_291.png,1000,1x,1.8,3.0,5973,1000,feet,jsons/MX_seq41_0_VE1000.json,407274,1071823,29,Woman
2,910671,final-intermixed-textured,v2,jsons/MX_seq41_0_VE1000.json,http://54.235.29.9/FacialAge/BNav_EC2/DepthDuration/MX_fS_VE_MTurk/MX_fS_HTML.html#167,167,1366,641,1366,768,1-8-2024,19-31-27,3,VR_target_stimuli/s5_1.3x_4_393.png,1000,1.3x,4.0,5.0,5130,1001,feet,jsons/MX_seq41_0_VE1000.json,407274,1071823,29,Woman
3,910671,final-intermixed-textured,v2,jsons/MX_seq41_0_VE1000.json,http://54.235.29.9/FacialAge/BNav_EC2/DepthDuration/MX_fS_VE_MTurk/MX_fS_HTML.html#167,167,1366,641,1366,768,1-8-2024,19-31-27,4,VR_target_stimuli/s37_1x_3.3_563_BC.png,1000,1x,3.3,5.0,8294,999,feet,jsons/MX_seq41_0_VE1000.json,407274,1071823,29,Woman
4,910671,final-intermixed-textured,v2,jsons/MX_seq41_0_VE1000.json,http://54.235.29.9/FacialAge/BNav_EC2/DepthDuration/MX_fS_VE_MTurk/MX_fS_HTML.html#167,167,1366,641,1366,768,1-8-2024,19-31-27,5,VR_target_stimuli/s46_0.75x_2.42_343_BC.png,1000,0.75x,2.42,3.0,5930,996,feet,jsons/MX_seq41_0_VE1000.json,407274,1071823,29,Woman
5,910671,final-intermixed-textured,v2,jsons/MX_seq41_0_VE1000.json,http://54.235.29.9/FacialAge/BNav_EC2/DepthDuration/MX_fS_VE_MTurk/MX_fS_HTML.html#167,167,1366,641,1366,768,1-8-2024,19-31-27,6,VR_target_stimuli/s22_1.3x_4.29_364_BC.png,1000,1.3x,4.29,6.0,5296,1000,feet,jsons/MX_seq41_0_VE1000.json,407274,1071823,29,Woman
6,910671,final-intermixed-textured,v2,jsons/MX_seq41_0_VE1000.json,http://54.235.29.9/FacialAge/BNav_EC2/DepthDuration/MX_fS_VE_MTurk/MX_fS_HTML.html#167,167,1366,641,1366,768,1-8-2024,19-31-27,7,catch_stimuli/c0.png,1000,,,0.0,6426,999,feet,jsons/MX_seq41_0_VE1000.json,407274,1071823,29,Woman
7,910671,final-intermixed-textured,v2,jsons/MX_seq41_0_VE1000.json,http://54.235.29.9/FacialAge/BNav_EC2/DepthDuration/MX_fS_VE_MTurk/MX_fS_HTML.html#167,167,1366,641,1366,768,1-8-2024,19-31-27,8,VR_target_stimuli/s42_1.3x_3.2_305_BC.png,1000,1.3x,3.2,4.0,8232,999,feet,jsons/MX_seq41_0_VE1000.json,407274,1071823,29,Woman
8,910671,final-intermixed-textured,v2,jsons/MX_seq41_0_VE1000.json,http://54.235.29.9/FacialAge/BNav_EC2/DepthDuration/MX_fS_VE_MTurk/MX_fS_HTML.html#167,167,1366,641,1366,768,1-8-2024,19-31-27,9,VR_target_stimuli/s25_1x_1.4_290_BC.png,1000,1x,1.4,2.0,4882,996,feet,jsons/MX_seq41_0_VE1000.json,407274,1071823,29,Woman
9,910671,final-intermixed-textured,v2,jsons/MX_seq41_0_VE1000.json,http://54.235.29.9/FacialAge/BNav_EC2/DepthDuration/MX_fS_VE_MTurk/MX_fS_HTML.html#167,167,1366,641,1366,768,1-8-2024,19-31-27,10,VR_target_stimuli/s50_0.75x_4.53_517_BC.png,1000,0.75x,4.53,3.0,6021,1001,feet,jsons/MX_seq41_0_VE1000.json,407274,1071823,29,Woman
10,910671,final-intermixed-textured,v2,jsons/MX_seq41_0_VE1000.json,http://54.235.29.9/FacialAge/BNav_EC2/DepthDuration/MX_fS_VE_MTurk/MX_fS_HTML.html#167,167,1366,641,1366,768,1-8-2024,19-31-27,11,VR_target_stimuli/s53_1x_1.6_387.png,1000,1x,1.6,1.0,6231,1003,feet,jsons/MX_seq41_0_VE1000.json,407274,1071823,29,Woman
11,910671,final-intermixed-textured,v2,jsons/MX_seq41_0_VE1000.json,http://54.235.29.9/FacialAge/BNav_EC2/DepthDuration/MX_fS_VE_MTurk/MX_fS_HTML.html#167,167,1366,641,1366,768,1-8-2024,19-31-27,12,VR_target_stimuli/s38_1.3x_3.55_358.png,1000,1.3x,3.55,4.0,7429,1004,feet,jsons/MX_seq41_0_VE1000.json,407274,1071823,29,Woman
12,910671,final-intermixed-textured,v2,jsons/MX_seq41_0_VE1000.json,http://54.235.29.9/FacialAge/BNav_EC2/DepthDuration/MX_fS_VE_MTurk/MX_fS_HTML.html#167,167,1366,641,1366,768,1-8-2024,19-31-27,13,VR_target_stimuli/s9_0.75x_1.2_260.png,1000,0.75x,1.2,1.0,4647,1003,feet,jsons/MX_seq41_0_VE1000.json,407274,1071823,29,Woman
13,910671,final-intermixed-textured,v2,jsons/MX_seq41_0_VE1000.json,http://54.235.29.9/FacialAge/BNav_EC2/DepthDuration/MX_fS_VE_MTurk/MX_fS_HTML.html#167,167,1366,641,1366,768,1-8-2024,19-31-27,14,VR_target_stimuli/s44_1.3x_4.4_325.png,1000,1.3x,4.4,5.0,5813,998,feet,jsons/MX_seq41_0_VE1000.json,407274,1071823,29,Woman
14,910671,final-intermixed-textured,v2,jsons/MX_seq41_0_VE1000.json,http://54.235.29.9/FacialAge/BNav_EC2/DepthDuration/MX_fS_VE_MTurk/MX_fS_HTML.html#167,167,1366,641,1366,768,1-8-2024,19-31-27,15,VR_target_stimuli/s3_1x_5_385.png,1000,1x,5.0,6.0,4680,996,feet,jsons/MX_seq41_0_VE1000.json,407274,1071823,29,Woman
15,910671,final-intermixed-textured,v2,jsons/MX_seq41_0_VE1000.json,http://54.235.29.9/FacialAge/BNav_EC2/DepthDuration/MX_fS_VE_MTurk/MX_fS_HTML.html#167,167,1366,641,1366,768,1-8-2024,19-31-27,16,VR_target_stimuli/s1_0.75x_1.7_265_BC.png,1000,0.75x,1.7,1.0,9916,997,feet,jsons/MX_seq41_0_VE1000.json,407274,1071823,29,Woman
16,910671,final-intermixed-textured,v2,jsons/MX_seq41_0_VE1000.json,http://54.235.29.9/FacialAge/BNav_EC2/DepthDuration/MX_fS_VE_MTurk/MX_fS_HTML.html#167,167,1366,641,1366,768,1-8-2024,19-31-27,17,catch_stimuli/c1.png,1000,,,0.0,4875,994,feet,jsons/MX_seq41_0_VE1000.json,407274,1071823,29,Woman
17,910671,final-intermixed-textured,v2,jsons/MX_seq41_0_VE1000.json,http://54.235.29.9/FacialAge/BNav_EC2/DepthDuration/MX_fS_VE_MTurk/MX_fS_HTML.html#167,167,1366,641,1366,768,1-8-2024,19-31-27,18,VR_target_stimuli/s11_0.75x_5_359.png,1000,0.75x,5.0,5.0,8524,1000,feet,jsons/MX_seq41_0_VE1000.json,407274,1071823,29,Woman
18,910671,final-intermixed-textured,v2,jsons/MX_seq41_0_VE1000.json,http://54.235.29.9/FacialAge/BNav_EC2/DepthDuration/MX_fS_VE_MTurk/MX_fS_HTML.html#167,167,1366,641,1366,768,1-8-2024,19-31-27,19,VR_target_stimuli/s2_1.3x_2.7_397_BC.png,1000,1.3x,2.7,2.0,4632,998,feet,jsons/MX_seq41_0_VE1000.json,407274,1071823,29,Woman
19,910671,final-intermixed-textured,v2,jsons/MX_seq41_0_VE1000.json,http://54.235.29.9/FacialAge/BNav_EC2/DepthDuration/MX_fS_VE_MTurk/MX_fS_HTML.html#167,167,1366,641,1366,768,1-8-2024,19-31-27,20,VR_target_stimuli/s6_1x_2.1_293_BC.png,1000,1x,2.1,3.0,4575,1003,feet,jsons/MX_seq41_0_VE1000.json,407274,1071823,29,Woman
20,910671,final-intermixed-textured,v2,jsons/MX_seq41_0_VE1000.json,http://54.235.29.9/FacialAge/BNav_EC2/DepthDuration/MX_fS_VE_MTurk/MX_fS_HTML.html#167,167,1366,641,1366,768,1-8-2024,19-31-27,21,VR_target_stimuli/s0_1.3x_2.6_356_BC.png,1000,1.3x,2.6,0.0,11086,998,feet,jsons/MX_seq41_0_VE1000.json,407274,1071823,29,Woman
21,910671,final-intermixed-textured,v2,jsons/MX_seq41_0_VE1000.json,http://54.235.29.9/FacialAge/BNav_EC2/DepthDuration/MX_fS_VE_MTurk/MX_fS_HTML.html#167,167,1366,641,1366,768,1-8-2024,19-31-27,22,VR_target_stimuli/s34_0.75x_2.8_269_BC.png,1000,0.75x,2.8,3.0,6167,998,feet,jsons/MX_seq41_0_VE1000.json,407274,1071823,29,Woman
22,910671,final-intermixed-textured,v2,jsons/MX_seq41_0_VE1000.json,http://54.235.29.9/FacialAge/BNav_EC2/DepthDuration/MX_fS_VE_MTurk/MX_fS_HTML.html#167,167,1366,641,1366,768,1-8-2024,19-31-27,23,VR_target_stimuli/s13_1x_2.4_310.png,1000,1x,2.4,3.0,4218,997,feet,jsons/MX_seq41_0_VE1000.json,407274,1071823,29,Woman
23,910671,final-intermixed-textured,v2,jsons/MX_seq41_0_VE1000.json,http://54.235.29.9/FacialAge/BNav_EC2/DepthDuration/MX_fS_VE_MTurk/MX_fS_HTML.html#167,167,1366,641,1366,768,1-8-2024,19-31-27,24,VR_target_stimuli/s14_0.75x_3.83_355.png,1000,0.75x,3.83,4.0,5428,997,feet,jsons/MX_seq41_0_VE1000.json,407274,1071823,29,Woman
24,910671,final-intermixed-textured,v2,jsons/MX_seq41_0_VE1000.json,http://54.235.29.9/FacialAge/BNav_EC2/DepthDuration/MX_fS_VE_MTurk/MX_fS_HTML.html#167,167,1366,641,1366,768,1-8-2024,19-31-27,25,VR_target_stimuli/s47_1.3x_3.45_373.png,1000,1.3x,3.45,2.0,4341,1000,feet,jsons/MX_seq41_0_VE1000.json,407274,1071823,29,Woman
25,910671,final-intermixed-textured,v2,jsons/MX_seq41_0_VE1000.json,http://54.235.29.9/FacialAge/BNav_EC2/DepthDuration/MX_fS_VE_MTurk/MX_fS_HTML.html#167,167,1366,641,1366,768,1-8-2024,19-31-27,26,catch_stimuli/c2.png,1000,,,0.0,5064,1003,feet,jsons/MX_seq41_0_VE1000.json,407274,1071823,29,Woman
26,910671,final-intermixed-textured,v2,jsons/MX_seq41_0_VE1000.json,http://54.235.29.9/FacialAge/BNav_EC2/DepthDuration/MX_fS_VE_MTurk/MX_fS_HTML.html#167,167,1366,641,1366,768,1-8-2024,19-31-27,27,VR_target_stimuli/s29_1x_1.3_250_BC.png,1000,1x,1.3,2.0,5494,999,feet,jsons/MX_seq41_0_VE1000.json,407274,1071823,29,Woman
27,910671,final-intermixed-textured,v2,jsons/MX_seq41_0_VE1000.json,http://54.235.29.9/FacialAge/BNav_EC2/DepthDuration/MX_fS_VE_MTurk/MX_fS_HTML.html#167,167,1366,641,1366,768,1-8-2024,19-31-27,28,VR_target_stimuli/s28_1x_3.2_362_BC.png,1000,1x,3.2,3.0,5613,1000,feet,jsons/MX_seq41_0_VE1000.json,407274,1071823,29,Woman
28,910671,final-intermixed-textured,v2,jsons/MX_seq41_0_VE1000.json,http://54.235.29.9/FacialAge/BNav_EC2/DepthDuration/MX_fS_VE_MTurk/MX_fS_HTML.html#167,167,1366,641,1366,768,1-8-2024,19-31-27,29,VR_target_stimuli/s48_0.75x_2.55_243.png,1000,0.75x,2.55,1.0,4591,997,feet,jsons/MX_seq41_0_VE1000.json,407274,1071823,29,Woman
29,910671,final-intermixed-textured,v2,jsons/MX_seq41_0_VE1000.json,http://54.235.29.9/FacialAge/BNav_EC2/DepthDuration/MX_fS_VE_MTurk/MX_fS_HTML.html#167,167,1366,641,1366,768,1-8-2024,19-31-27,30,VR_target_stimuli/s19_1.3x_1.21_270_BC.png,1000,1.3x,1.21,1.0,6042,1003,feet,jsons/MX_seq41_0_VE1000.json,407274,1071823,29,Woman
30,910671,final-intermixed-textured,v2,jsons/MX_seq41_0_VE1000.json,http://54.235.29.9/FacialAge/BNav_EC2/DepthDuration/MX_fS_VE_MTurk/MX_fS_HTML.html#167,167,1366,641,1366,768,1-8-2024,19-31-27,31,VR_target_stimuli/s21_1x_4.22_379.png,1000,1x,4.22,1.0,10108,995,feet,jsons/MX_seq41_0_VE1000.json,407274,1071823,29,Woman
31,910671,final-intermixed-textured,v2,jsons/MX_seq41_0_VE1000.json,http://54.235.29.9/FacialAge/BNav_EC2/DepthDuration/MX_fS_VE_MTurk/MX_fS_HTML.html#167,167,1366,641,1366,768,1-8-2024,19-31-27,32,VR_target_stimuli/s8_1.3x_3.1_345.png,1000,1.3x,3.1,4.0,5623,1000,feet,jsons/MX_seq41_0_VE1000.json,407274,1071823,29,Woman
32,910671,final-intermixed-textured,v2,jsons/MX_seq41_0_VE1000.json,http://54.235.29.9/FacialAge/BNav_EC2/DepthDuration/MX_fS_VE_MTurk/MX_fS_HTML.html#167,167,1366,641,1366,768,1-8-2024,19-31-27,33,VR_target_stimuli/s27_0.75x_1.76_243_BC.png,1000,0.75x,1.76,3.0,6278,999,feet,jsons/MX_seq41_0_VE1000.json,407274,1071823,29,Woman
33,910671,final-intermixed-textured,v2,jsons/MX_seq41_0_VE1000.json,http://54.235.29.9/FacialAge/BNav_EC2/DepthDuration/MX_fS_VE_MTurk/MX_fS_HTML.html#167,167,1366,641,1366,768,1-8-2024,19-31-27,34,catch_stimuli/c3.png,1000,,,0.0,6284,1001,feet,jsons/MX_seq41_0_VE1000.json,407274,1071823,29,Woman
34,910671,final-intermixed-textured,v2,jsons/MX_seq41_0_VE1000.json,http://54.235.29.9/FacialAge/BNav_EC2/DepthDuration/MX_fS_VE_MTurk/MX_fS_HTML.html#167,167,1366,641,1366,768,1-8-2024,19-31-27,35,VR_target_stimuli/s15_1.3x_4.2_389.png,1000,1.3x,4.2,4.0,7357,997,feet,jsons/MX_seq41_0_VE1000.json,407274,1071823,29,Woman
35,910671,final-intermixed-textured,v2,jsons/MX_seq41_0_VE1000.json,http://54.235.29.9/FacialAge/BNav_EC2/DepthDuration/MX_fS_VE_MTurk/MX_fS_HTML.html#167,167,1366,641,1366,768,1-8-2024,19-31-27,36,VR_target_stimuli/s4_1x_1.4_313.png,1000,1x,1.4,1.0,4014,995,feet,jsons/MX_seq41_0_VE1000.json,407274,1071823,29,Woman
36,910671,final-intermixed-textured,v2,jsons/MX_seq41_0_VE1000.json,http://54.235.29.9/FacialAge/BNav_EC2/DepthDuration/MX_fS_VE_MTurk/MX_fS_HTML.html#167,167,1366,641,1366,768,1-8-2024,19-31-27,37,VR_target_stimuli/s35_0.75x_2_323_BC.png,1000,0.75x,2.0,2.0,4063,999,feet,jsons/MX_seq41_0_VE1000.json,407274,1071823,29,Woman
37,910671,final-intermixed-textured,v2,jsons/MX_seq41_0_VE1000.json,http://54.235.29.9/FacialAge/BNav_EC2/DepthDuration/MX_fS_VE_MTurk/MX_fS_HTML.html#167,167,1366,641,1366,768,1-8-2024,19-31-27,38,VR_target_stimuli/s49_0.75x_4.67_328.png,1000,0.75x,4.67,4.0,6540,999,feet,jsons/MX_seq41_0_VE1000.json,407274,1071823,29,Woman
38,910671,final-intermixed-textured,v2,jsons/MX_seq41_0_VE1000.json,http://54.235.29.9/FacialAge/BNav_EC2/DepthDuration/MX_fS_VE_MTurk/MX_fS_HTML.html#167,167,1366,641,1366,768,1-8-2024,19-31-27,39,VR_target_stimuli/s7_1.3x_1.5_256_BC.png,1000,1.3x,1.5,1.0,8755,998,feet,jsons/MX_seq41_0_VE1000.json,407274,1071823,29,Woman
39,910671,final-intermixed-textured,v2,jsons/MX_seq41_0_VE1000.json,http://54.235.29.9/FacialAge/BNav_EC2/DepthDuration/MX_fS_VE_MTurk/MX_fS_HTML.html#167,167,1366,641,1366,768,1-8-2024,19-31-27,40,VR_target_stimuli/s20_1x_4.99_398_BC.png,1000,1x,4.99,5.0,7407,997,feet,jsons/MX_seq41_0_VE1000.json,407274,1071823,29,Woman
40,910671,final-intermixed-textured,v2,jsons/MX_seq41_0_VE1000.json,http://54.235.29.9/FacialAge/BNav_EC2/DepthDuration/MX_fS_VE_MTurk/MX_fS_HTML.html#167,167,1366,641,1366,768,1-8-2024,19-31-27,41,VR_target_stimuli/s31_1.3x_4.96_342.png,1000,1.3x,4.96,2.0,4481,996,feet,jsons/MX_seq41_0_VE1000.json,407274,1071823,29,Woman
41,910671,final-intermixed-textured,v2,jsons/MX_seq41_0_VE1000.json,http://54.235.29.9/FacialAge/BNav_EC2/DepthDuration/MX_fS_VE_MTurk/MX_fS_HTML.html#167,167,1366,641,1366,768,1-8-2024,19-31-27,42,VR_target_stimuli/s33_0.75x_3.1_361.png,1000,0.75x,3.1,3.0,6308,1002,feet,jsons/MX_seq41_0_VE1000.json,407274,1071823,29,Woman
42,910671,final-intermixed-textured,v2,jsons/MX_seq41_0_VE1000.json,http://54.235.29.9/FacialAge/BNav_EC2/DepthDuration/MX_fS_VE_MTurk/MX_fS_HTML.html#167,167,1366,641,1366,768,1-8-2024,19-31-27,43,VR_target_stimuli/s52_1x_3.2_275_BC.png,1000,1x,3.2,3.0,5531,999,feet,jsons/MX_seq41_0_VE1000.json,407274,1071823,29,Woman
43,910671,final-intermixed-textured,v2,jsons/MX_seq41_0_VE1000.json,http://54.235.29.9/FacialAge/BNav_EC2/DepthDuration/MX_fS_VE_MTurk/MX_fS_HTML.html#167,167,1366,641,1366,768,1-8-2024,19-31-27,44,VR_target_stimuli/s32_0.75x_1.5_213_BC.png,1000,0.75x,1.5,2.0,5168,1000,feet,jsons/MX_seq41_0_VE1000.json,407274,1071823,29,Woman
44,910671,final-intermixed-textured,v2,jsons/MX_seq41_0_VE1000.json,http://54.235.29.9/FacialAge/BNav_EC2/DepthDuration/MX_fS_VE_MTurk/MX_fS_HTML.html#167,167,1366,641,1366,768,1-8-2024,19-31-27,45,catch_stimuli/c4.png,1000,,,0.0,5475,1004,feet,jsons/MX_seq41_0_VE1000.json,407274,1071823,29,Woman
45,910671,final-intermixed-textured,v2,jsons/MX_seq41_0_VE1000.json,http://54.235.29.9/FacialAge/BNav_EC2/DepthDuration/MX_fS_VE_MTurk/MX_fS_HTML.html#167,167,1366,641,1366,768,1-8-2024,19-31-27,46,VR_target_stimuli/s18_1.3x_2.25_368_BC.png,1000,1.3x,2.25,1.0,11570,999,feet,jsons/MX_seq41_0_VE1000.json,407274,1071823,29,Woman
46,910671,final-intermixed-textured,v2,jsons/MX_seq41_0_VE1000.json,http://54.235.29.9/FacialAge/BNav_EC2/DepthDuration/MX_fS_VE_MTurk/MX_fS_HTML.html#167,167,1366,641,1366,768,1-8-2024,19-31-27,47,VR_target_stimuli/s39_1x_1_207.png,1000,1x,1.0,1.0,4565,999,feet,jsons/MX_seq41_0_VE1000.json,407274,1071823,29,Woman
47,910671,final-intermixed-textured,v2,jsons/MX_seq41_0_VE1000.json,http://54.235.29.9/FacialAge/BNav_EC2/DepthDuration/MX_fS_VE_MTurk/MX_fS_HTML.html#167,167,1366,641,1366,768,1-8-2024,19-31-27,48,VR_target_stimuli/s51_1x_3.64_461.png,1000,1x,3.64,1.5,7072,1002,feet,jsons/MX_seq41_0_VE1000.json,407274,1071823,29,Woman
48,910671,final-intermixed-textured,v2,jsons/MX_seq41_0_VE1000.json,http://54.235.29.9/FacialAge/BNav_EC2/DepthDuration/MX_fS_VE_MTurk/MX_fS_HTML.html#167,167,1366,641,1366,768,1-8-2024,19-31-27,49,VR_target_stimuli/s43_0.75x_2.2_348_BC.png,1000,0.75x,2.2,2.0,5165,1000,feet,jsons/MX_seq41_0_VE1000.json,407274,1071823,29,Woman
49,910671,final-intermixed-textured,v2,jsons/MX_seq41_0_VE1000.json,http://54.235.29.9/FacialAge/BNav_EC2/DepthDuration/MX_fS_VE_MTurk/MX_fS_HTML.html#167,167,1366,641,1366,768,1-8-2024,19-31-27,50,VR_target_stimuli/s24_1.3x_3.3_352.png,1000,1.3x,3.3,2.3,6508,1002,feet,jsons/MX_seq41_0_VE1000.json,407274,1071823,29,Woman
50,910671,final-intermixed-textured,v2,jsons/MX_seq41_0_VE1000.json,http://54.235.29.9/FacialAge/BNav_EC2/DepthDuration/MX_fS_VE_MTurk/MX_fS_HTML.html#167,167,1366,641,1366,768,1-8-2024,19-31-27,51,VR_target_stimuli/s10_0.75x_2.7_321.png,1000,0.75x,2.7,3.5,7645,1002,feet,jsons/MX_seq41_0_VE1000.json,407274,1071823,29,Woman
51,910671,final-intermixed-textured,v2,jsons/MX_seq41_0_VE1000.json,http://54.235.29.9/FacialAge/BNav_EC2/DepthDuration/MX_fS_VE_MTurk/MX_fS_HTML.html#167,167,1366,641,1366,768,1-8-2024,19-31-27,52,VR_target_stimuli/s36_1x_4.1_423_BC.png,1000,1x,4.1,4.0,6867,1002,feet,jsons/MX_seq41_0_VE1000.json,407274,1071823,29,Woman
52,910671,final-intermixed-textured,v2,jsons/MX_seq41_0_VE1000.json,http://54.235.29.9/FacialAge/BNav_EC2/DepthDuration/MX_fS_VE_MTurk/MX_fS_HTML.html#167,167,1366,641,1366,768,1-8-2024,19-31-27,53,catch_stimuli/c5.png,1000,,,0.0,5658,1004,feet,jsons/MX_seq41_0_VE1000.json,407274,1071823,29,Woman
53,910671,final-intermixed-textured,v2,jsons/MX_seq41_0_VE1000.json,http://54.235.29.9/FacialAge/BNav_EC2/DepthDuration/MX_fS_VE_MTurk/MX_fS_HTML.html#167,167,1366,641,1366,768,1-8-2024,19-31-27,54,VR_target_stimuli/s40_1.3x_1.2_332_BC.png,1000,1.3x,1.2,1.0,4468,997,feet,jsons/MX_seq41_0_VE1000.json,407274,1071823,29,Woman
54,910671,final-intermixed-textured,v2,jsons/MX_seq41_0_VE1000.json,http://54.235.29.9/FacialAge/BNav_EC2/DepthDuration/MX_fS_VE_MTurk/MX_fS_HTML.html#167,167,1366,641,1366,768,1-8-2024,19-31-27,55,VR_target_stimuli/s41_1x_2.1_286.png,1000,1x,2.1,2.0,4154,998,feet,jsons/MX_seq41_0_VE1000.json,407274,1071823,29,Woman
55,910671,final-intermixed-textured,v2,jsons/MX_seq41_0_VE1000.json,http://54.235.29.9/FacialAge/BNav_EC2/DepthDuration/MX_fS_VE_MTurk/MX_fS_HTML.html#167,167,1366,641,1366,768,1-8-2024,19-31-27,56,VR_target_stimuli/s45_0.75x_3.5_362_BC.png,1000,0.75x,3.5,2.2,8112,999,feet,jsons/MX_seq41_0_VE1000.json,407274,1071823,29,Woman
56,910671,final-intermixed-textured,v2,jsons/MX_seq41_0_VE1000.json,http://54.235.29.9/FacialAge/BNav_EC2/DepthDuration/MX_fS_VE_MTurk/MX_fS_HTML.html#167,167,1366,641,1366,768,1-8-2024,19-31-27,57,VR_target_stimuli/s23_1.3x_3.65_354_BC.png,1000,1.3x,3.65,2.5,6727,997,feet,jsons/MX_seq41_0_VE1000.json,407274,1071823,29,Woman
57,910671,final-intermixed-textured,v2,jsons/MX_seq41_0_VE1000.json,http://54.235.29.9/FacialAge/BNav_EC2/DepthDuration/MX_fS_VE_MTurk/MX_fS_HTML.html#167,167,1366,641,1366,768,1-8-2024,19-31-27,58,VR_target_stimuli/s26_1.3x_4_441.png,1000,1.3x,4.0,2.2,6374,1000,feet,jsons/MX_seq41_0_VE1000.json,407274,1071823,29,Woman
58,910671,final-intermixed-textured,v2,jsons/MX_seq41_0_VE1000.json,http://54.235.29.9/FacialAge/BNav_EC2/DepthDuration/MX_fS_VE_MTurk/MX_fS_HTML.html#167,167,1366,641,1366,768,1-8-2024,19-31-27,59,VR_target_stimuli/s12_1x_3.1_372_BC.png,1000,1x,3.1,2.0,5029,1003,feet,jsons/MX_seq41_0_VE1000.json,407274,1071823,29,Woman
59,910671,final-intermixed-textured,v2,jsons/MX_seq41_0_VE1000.json,http://54.235.29.9/FacialAge/BNav_EC2/DepthDuration/MX_fS_VE_MTurk/MX_fS_HTML.html#167,167,1366,641,1366,768,1-8-2024,19-31-27,60,VR_target_stimuli/s30_0.75x_2.3_332.png,1000,0.75x,2.3,1.8,8500,1000,feet,jsons/MX_seq41_0_VE1000.json,407274,1071823,29,Woman
