,subjID,experimentName,versionName,sequenceName,url,selected_row,windowWidth,windowHeight,screenWidth,screenHeight,startDate,startTime,trial,stimulus,duration,scale,actual_depth,depth_estimate,trial_RT,log_sceneDuration,unitSelection,seq_filepath,experimentTime,totalTime,age,gender
0,911941,final-intermixed-textured,v2,jsons/MX_seq20_2_VE1000.json,http://54.235.29.9/FacialAge/BNav_EC2/DepthDuration/MX_fS_VE_MTurk/MX_fS_HTML.html#165,165,1280,632,1280,720,1-8-2024,13-58-46,1,VR_target_stimuli/s49_1x_4.67_341.png,1000,1x,4.67,0.0,4314,987,feet,jsons/MX_seq20_2_VE1000.json,253627,389291,22,Man
1,911941,final-intermixed-textured,v2,jsons/MX_seq20_2_VE1000.json,http://54.235.29.9/FacialAge/BNav_EC2/DepthDuration/MX_fS_VE_MTurk/MX_fS_HTML.html#165,165,1280,632,1280,720,1-8-2024,13-58-46,2,VR_target_stimuli/s7_1.3x_1.5_256.png,1000,1.3x,1.5,3.0,3317,999,feet,jsons/MX_seq20_2_VE1000.json,253627,389291,22,Man
2,911941,final-intermixed-textured,v2,jsons/MX_seq20_2_VE1000.json,http://54.235.29.9/FacialAge/BNav_EC2/DepthDuration/MX_fS_VE_MTurk/MX_fS_HTML.html#165,165,1280,632,1280,720,1-8-2024,13-58-46,3,VR_target_stimuli/s20_0.75x_4.99_390_BC.png,1000,0.75x,4.99,9.0,3737,1002,feet,jsons/MX_seq20_2_VE1000.json,253627,389291,22,Man
3,911941,final-intermixed-textured,v2,jsons/MX_seq20_2_VE1000.json,http://54.235.29.9/FacialAge/BNav_EC2/DepthDuration/MX_fS_VE_MTurk/MX_fS_HTML.html#165,165,1280,632,1280,720,1-8-2024,13-58-46,4,VR_target_stimuli/s31_1.3x_4.96_342_BC.png,1000,1.3x,4.96,7.2,8645,990,feet,jsons/MX_seq20_2_VE1000.json,253627,389291,22,Man
4,911941,final-intermixed-textured,v2,jsons/MX_seq20_2_VE1000.json,http://54.235.29.9/FacialAge/BNav_EC2/DepthDuration/MX_fS_VE_MTurk/MX_fS_HTML.html#165,165,1280,632,1280,720,1-8-2024,13-58-46,5,VR_target_stimuli/s33_1x_3.1_366_BC.png,1000,1x,3.1,5.0,3821,997,feet,jsons/MX_seq20_2_VE1000.json,253627,389291,22,Man
5,911941,final-intermixed-textured,v2,jsons/MX_seq20_2_VE1000.json,http://54.235.29.9/FacialAge/BNav_EC2/DepthDuration/MX_fS_VE_MTurk/MX_fS_HTML.html#165,165,1280,632,1280,720,1-8-2024,13-58-46,6,VR_target_stimuli/s52_0.75x_3.2_270.png,1000,0.75x,3.2,8.1,4700,1001,feet,jsons/MX_seq20_2_VE1000.json,253627,389291,22,Man
6,911941,final-intermixed-textured,v2,jsons/MX_seq20_2_VE1000.json,http://54.235.29.9/FacialAge/BNav_EC2/DepthDuration/MX_fS_VE_MTurk/MX_fS_HTML.html#165,165,1280,632,1280,720,1-8-2024,13-58-46,7,catch_stimuli/c0.png,1000,,,0.0,3539,986,feet,jsons/MX_seq20_2_VE1000.json,253627,389291,22,Man
7,911941,final-intermixed-textured,v2,jsons/MX_seq20_2_VE1000.json,http://54.235.29.9/FacialAge/BNav_EC2/DepthDuration/MX_fS_VE_MTurk/MX_fS_HTML.html#165,165,1280,632,1280,720,1-8-2024,13-58-46,8,VR_target_stimuli/s32_0.75x_1.5_213_BC.png,1000,0.75x,1.5,3.0,3383,997,feet,jsons/MX_seq20_2_VE1000.json,253627,389291,22,Man
8,911941,final-intermixed-textured,v2,jsons/MX_seq20_2_VE1000.json,http://54.235.29.9/FacialAge/BNav_EC2/DepthDuration/MX_fS_VE_MTurk/MX_fS_HTML.html#165,165,1280,632,1280,720,1-8-2024,13-58-46,9,VR_target_stimuli/s18_1.3x_2.25_368_BC.png,1000,1.3x,2.25,4.0,3329,988,feet,jsons/MX_seq20_2_VE1000.json,253627,389291,22,Man
9,911941,final-intermixed-textured,v2,jsons/MX_seq20_2_VE1000.json,http://54.235.29.9/FacialAge/BNav_EC2/DepthDuration/MX_fS_VE_MTurk/MX_fS_HTML.html#165,165,1280,632,1280,720,1-8-2024,13-58-46,10,VR_target_stimuli/s39_1x_1_207.png,1000,1x,1.0,2.1,5146,1000,feet,jsons/MX_seq20_2_VE1000.json,253627,389291,22,Man
10,911941,final-intermixed-textured,v2,jsons/MX_seq20_2_VE1000.json,http://54.235.29.9/FacialAge/BNav_EC2/DepthDuration/MX_fS_VE_MTurk/MX_fS_HTML.html#165,165,1280,632,1280,720,1-8-2024,13-58-46,11,VR_target_stimuli/s51_1.3x_3.64_479.png,1000,1.3x,3.64,1.9,4261,990,feet,jsons/MX_seq20_2_VE1000.json,253627,389291,22,Man
11,911941,final-intermixed-textured,v2,jsons/MX_seq20_2_VE1000.json,http://54.235.29.9/FacialAge/BNav_EC2/DepthDuration/MX_fS_VE_MTurk/MX_fS_HTML.html#165,165,1280,632,1280,720,1-8-2024,13-58-46,12,VR_target_stimuli/s43_0.75x_2.2_348.png,1000,0.75x,2.2,4.3,4094,996,feet,jsons/MX_seq20_2_VE1000.json,253627,389291,22,Man
12,911941,final-intermixed-textured,v2,jsons/MX_seq20_2_VE1000.json,http://54.235.29.9/FacialAge/BNav_EC2/DepthDuration/MX_fS_VE_MTurk/MX_fS_HTML.html#165,165,1280,632,1280,720,1-8-2024,13-58-46,13,VR_target_stimuli/s24_1x_3.3_349_BC.png,1000,1x,3.3,6.7,4242,1008,feet,jsons/MX_seq20_2_VE1000.json,253627,389291,22,Man
13,911941,final-intermixed-textured,v2,jsons/MX_seq20_2_VE1000.json,http://54.235.29.9/FacialAge/BNav_EC2/DepthDuration/MX_fS_VE_MTurk/MX_fS_HTML.html#165,165,1280,632,1280,720,1-8-2024,13-58-46,14,VR_target_stimuli/s10_0.75x_2.7_321.png,1000,0.75x,2.7,5.9,4341,995,feet,jsons/MX_seq20_2_VE1000.json,253627,389291,22,Man
14,911941,final-intermixed-textured,v2,jsons/MX_seq20_2_VE1000.json,http://54.235.29.9/FacialAge/BNav_EC2/DepthDuration/MX_fS_VE_MTurk/MX_fS_HTML.html#165,165,1280,632,1280,720,1-8-2024,13-58-46,15,VR_target_stimuli/s36_1.3x_4.1_442_BC.png,1000,1.3x,4.1,7.0,3659,991,feet,jsons/MX_seq20_2_VE1000.json,253627,389291,22,Man
15,911941,final-intermixed-textured,v2,jsons/MX_seq20_2_VE1000.json,http://54.235.29.9/FacialAge/BNav_EC2/DepthDuration/MX_fS_VE_MTurk/MX_fS_HTML.html#165,165,1280,632,1280,720,1-8-2024,13-58-46,16,VR_target_stimuli/s40_1x_1.2_319_BC.png,1000,1x,1.2,3.0,3468,1008,feet,jsons/MX_seq20_2_VE1000.json,253627,389291,22,Man
16,911941,final-intermixed-textured,v2,jsons/MX_seq20_2_VE1000.json,http://54.235.29.9/FacialAge/BNav_EC2/DepthDuration/MX_fS_VE_MTurk/MX_fS_HTML.html#165,165,1280,632,1280,720,1-8-2024,13-58-46,17,catch_stimuli/c1.png,1000,,,0.0,3307,993,feet,jsons/MX_seq20_2_VE1000.json,253627,389291,22,Man
17,911941,final-intermixed-textured,v2,jsons/MX_seq20_2_VE1000.json,http://54.235.29.9/FacialAge/BNav_EC2/DepthDuration/MX_fS_VE_MTurk/MX_fS_HTML.html#165,165,1280,632,1280,720,1-8-2024,13-58-46,18,VR_target_stimuli/s41_1x_2.1_286.png,1000,1x,2.1,3.9,4691,997,feet,jsons/MX_seq20_2_VE1000.json,253627,389291,22,Man
18,911941,final-intermixed-textured,v2,jsons/MX_seq20_2_VE1000.json,http://54.235.29.9/FacialAge/BNav_EC2/DepthDuration/MX_fS_VE_MTurk/MX_fS_HTML.html#165,165,1280,632,1280,720,1-8-2024,13-58-46,19,VR_target_stimuli/s45_0.75x_3.5_362_BC.png,1000,0.75x,3.5,5.8,4743,1005,feet,jsons/MX_seq20_2_VE1000.json,253627,389291,22,Man
19,911941,final-intermixed-textured,v2,jsons/MX_seq20_2_VE1000.json,http://54.235.29.9/FacialAge/BNav_EC2/DepthDuration/MX_fS_VE_MTurk/MX_fS_HTML.html#165,165,1280,632,1280,720,1-8-2024,13-58-46,20,VR_target_stimuli/s23_1.3x_3.65_354.png,1000,1.3x,3.65,3.8,7524,1003,feet,jsons/MX_seq20_2_VE1000.json,253627,389291,22,Man
20,911941,final-intermixed-textured,v2,jsons/MX_seq20_2_VE1000.json,http://54.235.29.9/FacialAge/BNav_EC2/DepthDuration/MX_fS_VE_MTurk/MX_fS_HTML.html#165,165,1280,632,1280,720,1-8-2024,13-58-46,21,VR_target_stimuli/s26_0.75x_4_430_BC.png,1000,0.75x,4.0,4.5,3749,1011,feet,jsons/MX_seq20_2_VE1000.json,253627,389291,22,Man
21,911941,final-intermixed-textured,v2,jsons/MX_seq20_2_VE1000.json,http://54.235.29.9/FacialAge/BNav_EC2/DepthDuration/MX_fS_VE_MTurk/MX_fS_HTML.html#165,165,1280,632,1280,720,1-8-2024,13-58-46,22,VR_target_stimuli/s12_1x_3.1_372_BC.png,1000,1x,3.1,4.4,3504,1000,feet,jsons/MX_seq20_2_VE1000.json,253627,389291,22,Man
22,911941,final-intermixed-textured,v2,jsons/MX_seq20_2_VE1000.json,http://54.235.29.9/FacialAge/BNav_EC2/DepthDuration/MX_fS_VE_MTurk/MX_fS_HTML.html#165,165,1280,632,1280,720,1-8-2024,13-58-46,23,VR_target_stimuli/s30_1.3x_2.3_337_BC.png,1000,1.3x,2.3,3.8,4493,1001,feet,jsons/MX_seq20_2_VE1000.json,253627,389291,22,Man
23,911941,final-intermixed-textured,v2,jsons/MX_seq20_2_VE1000.json,http://54.235.29.9/FacialAge/BNav_EC2/DepthDuration/MX_fS_VE_MTurk/MX_fS_HTML.html#165,165,1280,632,1280,720,1-8-2024,13-58-46,24,VR_target_stimuli/s16_1x_1_219.png,1000,1x,1.0,2.2,2956,997,feet,jsons/MX_seq20_2_VE1000.json,253627,389291,22,Man
24,911941,final-intermixed-textured,v2,jsons/MX_seq20_2_VE1000.json,http://54.235.29.9/FacialAge/BNav_EC2/DepthDuration/MX_fS_VE_MTurk/MX_fS_HTML.html#165,165,1280,632,1280,720,1-8-2024,13-58-46,25,VR_target_stimuli/s17_0.75x_1.8_285.png,1000,0.75x,1.8,2.4,3597,992,feet,jsons/MX_seq20_2_VE1000.json,253627,389291,22,Man
25,911941,final-intermixed-textured,v2,jsons/MX_seq20_2_VE1000.json,http://54.235.29.9/FacialAge/BNav_EC2/DepthDuration/MX_fS_VE_MTurk/MX_fS_HTML.html#165,165,1280,632,1280,720,1-8-2024,13-58-46,26,catch_stimuli/c2.png,1000,,,0.0,2691,989,feet,jsons/MX_seq20_2_VE1000.json,253627,389291,22,Man
26,911941,final-intermixed-textured,v2,jsons/MX_seq20_2_VE1000.json,http://54.235.29.9/FacialAge/BNav_EC2/DepthDuration/MX_fS_VE_MTurk/MX_fS_HTML.html#165,165,1280,632,1280,720,1-8-2024,13-58-46,27,VR_target_stimuli/s5_1.3x_4_393.png,1000,1.3x,4.0,5.1,3976,997,feet,jsons/MX_seq20_2_VE1000.json,253627,389291,22,Man
27,911941,final-intermixed-textured,v2,jsons/MX_seq20_2_VE1000.json,http://54.235.29.9/FacialAge/BNav_EC2/DepthDuration/MX_fS_VE_MTurk/MX_fS_HTML.html#165,165,1280,632,1280,720,1-8-2024,13-58-46,28,VR_target_stimuli/s37_1.3x_3.3_555.png,1000,1.3x,3.3,2.0,3007,1002,feet,jsons/MX_seq20_2_VE1000.json,253627,389291,22,Man
28,911941,final-intermixed-textured,v2,jsons/MX_seq20_2_VE1000.json,http://54.235.29.9/FacialAge/BNav_EC2/DepthDuration/MX_fS_VE_MTurk/MX_fS_HTML.html#165,165,1280,632,1280,720,1-8-2024,13-58-46,29,VR_target_stimuli/s46_1x_2.42_348.png,1000,1x,2.42,6.3,3760,1009,feet,jsons/MX_seq20_2_VE1000.json,253627,389291,22,Man
29,911941,final-intermixed-textured,v2,jsons/MX_seq20_2_VE1000.json,http://54.235.29.9/FacialAge/BNav_EC2/DepthDuration/MX_fS_VE_MTurk/MX_fS_HTML.html#165,165,1280,632,1280,720,1-8-2024,13-58-46,30,VR_target_stimuli/s22_0.75x_4.29_348_BC.png,1000,0.75x,4.29,6.3,3771,998,feet,jsons/MX_seq20_2_VE1000.json,253627,389291,22,Man
30,911941,final-intermixed-textured,v2,jsons/MX_seq20_2_VE1000.json,http://54.235.29.9/FacialAge/BNav_EC2/DepthDuration/MX_fS_VE_MTurk/MX_fS_HTML.html#165,165,1280,632,1280,720,1-8-2024,13-58-46,31,VR_target_stimuli/s42_1.3x_3.2_305_BC.png,1000,1.3x,3.2,6.5,2982,1009,feet,jsons/MX_seq20_2_VE1000.json,253627,389291,22,Man
31,911941,final-intermixed-textured,v2,jsons/MX_seq20_2_VE1000.json,http://54.235.29.9/FacialAge/BNav_EC2/DepthDuration/MX_fS_VE_MTurk/MX_fS_HTML.html#165,165,1280,632,1280,720,1-8-2024,13-58-46,32,VR_target_stimuli/s25_0.75x_1.4_281.png,1000,0.75x,1.4,2.4,3458,991,feet,jsons/MX_seq20_2_VE1000.json,253627,389291,22,Man
32,911941,final-intermixed-textured,v2,jsons/MX_seq20_2_VE1000.json,http://54.235.29.9/FacialAge/BNav_EC2/DepthDuration/MX_fS_VE_MTurk/MX_fS_HTML.html#165,165,1280,632,1280,720,1-8-2024,13-58-46,33,VR_target_stimuli/s50_1x_4.53_518_BC.png,1000,1x,4.53,3.2,4352,995,feet,jsons/MX_seq20_2_VE1000.json,253627,389291,22,Man
33,911941,final-intermixed-textured,v2,jsons/MX_seq20_2_VE1000.json,http://54.235.29.9/FacialAge/BNav_EC2/DepthDuration/MX_fS_VE_MTurk/MX_fS_HTML.html#165,165,1280,632,1280,720,1-8-2024,13-58-46,34,catch_stimuli/c3.png,1000,,,0.0,2764,990,feet,jsons/MX_seq20_2_VE1000.json,253627,389291,22,Man
34,911941,final-intermixed-textured,v2,jsons/MX_seq20_2_VE1000.json,http://54.235.29.9/FacialAge/BNav_EC2/DepthDuration/MX_fS_VE_MTurk/MX_fS_HTML.html#165,165,1280,632,1280,720,1-8-2024,13-58-46,35,VR_target_stimuli/s53_0.75x_1.6_403_BC.png,1000,0.75x,1.6,1.0,3053,996,feet,jsons/MX_seq20_2_VE1000.json,253627,389291,22,Man
35,911941,final-intermixed-textured,v2,jsons/MX_seq20_2_VE1000.json,http://54.235.29.9/FacialAge/BNav_EC2/DepthDuration/MX_fS_VE_MTurk/MX_fS_HTML.html#165,165,1280,632,1280,720,1-8-2024,13-58-46,36,VR_target_stimuli/s38_1.3x_3.55_358.png,1000,1.3x,3.55,4.9,4151,997,feet,jsons/MX_seq20_2_VE1000.json,253627,389291,22,Man
36,911941,final-intermixed-textured,v2,jsons/MX_seq20_2_VE1000.json,http://54.235.29.9/FacialAge/BNav_EC2/DepthDuration/MX_fS_VE_MTurk/MX_fS_HTML.html#165,165,1280,632,1280,720,1-8-2024,13-58-46,37,VR_target_stimuli/s9_1x_1.2_263.png,1000,1x,1.2,2.2,3046,988,feet,jsons/MX_seq20_2_VE1000.json,253627,389291,22,Man
37,911941,final-intermixed-textured,v2,jsons/MX_seq20_2_VE1000.json,http://54.235.29.9/FacialAge/BNav_EC2/DepthDuration/MX_fS_VE_MTurk/MX_fS_HTML.html#165,165,1280,632,1280,720,1-8-2024,13-58-46,38,VR_target_stimuli/s44_1x_4.4_317_BC.png,1000,1x,4.4,7.3,3922,1006,feet,jsons/MX_seq20_2_VE1000.json,253627,389291,22,Man
38,911941,final-intermixed-textured,v2,jsons/MX_seq20_2_VE1000.json,http://54.235.29.9/FacialAge/BNav_EC2/DepthDuration/MX_fS_VE_MTurk/MX_fS_HTML.html#165,165,1280,632,1280,720,1-8-2024,13-58-46,39,VR_target_stimuli/s3_0.75x_5_381.png,1000,0.75x,5.0,6.4,3664,994,feet,jsons/MX_seq20_2_VE1000.json,253627,389291,22,Man
39,911941,final-intermixed-textured,v2,jsons/MX_seq20_2_VE1000.json,http://54.235.29.9/FacialAge/BNav_EC2/DepthDuration/MX_fS_VE_MTurk/MX_fS_HTML.html#165,165,1280,632,1280,720,1-8-2024,13-58-46,40,VR_target_stimuli/s1_1.3x_1.7_261_BC.png,1000,1.3x,1.7,2.1,2686,1008,feet,jsons/MX_seq20_2_VE1000.json,253627,389291,22,Man
40,911941,final-intermixed-textured,v2,jsons/MX_seq20_2_VE1000.json,http://54.235.29.9/FacialAge/BNav_EC2/DepthDuration/MX_fS_VE_MTurk/MX_fS_HTML.html#165,165,1280,632,1280,720,1-8-2024,13-58-46,41,VR_target_stimuli/s11_0.75x_5_359.png,1000,0.75x,5.0,2.4,3409,988,feet,jsons/MX_seq20_2_VE1000.json,253627,389291,22,Man
41,911941,final-intermixed-textured,v2,jsons/MX_seq20_2_VE1000.json,http://54.235.29.9/FacialAge/BNav_EC2/DepthDuration/MX_fS_VE_MTurk/MX_fS_HTML.html#165,165,1280,632,1280,720,1-8-2024,13-58-46,42,VR_target_stimuli/s2_1x_2.7_390.png,1000,1x,2.7,1.9,3118,1005,feet,jsons/MX_seq20_2_VE1000.json,253627,389291,22,Man
42,911941,final-intermixed-textured,v2,jsons/MX_seq20_2_VE1000.json,http://54.235.29.9/FacialAge/BNav_EC2/DepthDuration/MX_fS_VE_MTurk/MX_fS_HTML.html#165,165,1280,632,1280,720,1-8-2024,13-58-46,43,VR_target_stimuli/s6_1.3x_2.1_298_BC.png,1000,1.3x,2.1,1.6,4746,991,feet,jsons/MX_seq20_2_VE1000.json,253627,389291,22,Man
43,911941,final-intermixed-textured,v2,jsons/MX_seq20_2_VE1000.json,http://54.235.29.9/FacialAge/BNav_EC2/DepthDuration/MX_fS_VE_MTurk/MX_fS_HTML.html#165,165,1280,632,1280,720,1-8-2024,13-58-46,44,VR_target_stimuli/s0_1x_2.6_351_BC.png,1000,1x,2.6,1.1,3181,1010,feet,jsons/MX_seq20_2_VE1000.json,253627,389291,22,Man
44,911941,final-intermixed-textured,v2,jsons/MX_seq20_2_VE1000.json,http://54.235.29.9/FacialAge/BNav_EC2/DepthDuration/MX_fS_VE_MTurk/MX_fS_HTML.html#165,165,1280,632,1280,720,1-8-2024,13-58-46,45,catch_stimuli/c4.png,1000,,,0.0,2595,1004,feet,jsons/MX_seq20_2_VE1000.json,253627,389291,22,Man
45,911941,final-intermixed-textured,v2,jsons/MX_seq20_2_VE1000.json,http://54.235.29.9/FacialAge/BNav_EC2/DepthDuration/MX_fS_VE_MTurk/MX_fS_HTML.html#165,165,1280,632,1280,720,1-8-2024,13-58-46,46,VR_target_stimuli/s34_0.75x_2.8_269_BC.png,1000,0.75x,2.8,2.1,3158,998,feet,jsons/MX_seq20_2_VE1000.json,253627,389291,22,Man
46,911941,final-intermixed-textured,v2,jsons/MX_seq20_2_VE1000.json,http://54.235.29.9/FacialAge/BNav_EC2/DepthDuration/MX_fS_VE_MTurk/MX_fS_HTML.html#165,165,1280,632,1280,720,1-8-2024,13-58-46,47,VR_target_stimuli/s13_1.3x_2.4_313.png,1000,1.3x,2.4,2.9,3092,1003,feet,jsons/MX_seq20_2_VE1000.json,253627,389291,22,Man
47,911941,final-intermixed-textured,v2,jsons/MX_seq20_2_VE1000.json,http://54.235.29.9/FacialAge/BNav_EC2/DepthDuration/MX_fS_VE_MTurk/MX_fS_HTML.html#165,165,1280,632,1280,720,1-8-2024,13-58-46,48,VR_target_stimuli/s14_1.3x_3.83_359_BC.png,1000,1.3x,3.83,2.8,3426,1003,feet,jsons/MX_seq20_2_VE1000.json,253627,389291,22,Man
48,911941,final-intermixed-textured,v2,jsons/MX_seq20_2_VE1000.json,http://54.235.29.9/FacialAge/BNav_EC2/DepthDuration/MX_fS_VE_MTurk/MX_fS_HTML.html#165,165,1280,632,1280,720,1-8-2024,13-58-46,49,VR_target_stimuli/s47_1x_3.45_370.png,1000,1x,3.45,4.3,4045,1005,feet,jsons/MX_seq20_2_VE1000.json,253627,389291,22,Man
49,911941,final-intermixed-textured,v2,jsons/MX_seq20_2_VE1000.json,http://54.235.29.9/FacialAge/BNav_EC2/DepthDuration/MX_fS_VE_MTurk/MX_fS_HTML.html#165,165,1280,632,1280,720,1-8-2024,13-58-46,50,VR_target_stimuli/s29_0.75x_1.3_246_BC.png,1000,0.75x,1.3,5.1,3088,996,feet,jsons/MX_seq20_2_VE1000.json,253627,389291,22,Man
50,911941,final-intermixed-textured,v2,jsons/MX_seq20_2_VE1000.json,http://54.235.29.9/FacialAge/BNav_EC2/DepthDuration/MX_fS_VE_MTurk/MX_fS_HTML.html#165,165,1280,632,1280,720,1-8-2024,13-58-46,51,VR_target_stimuli/s28_1x_3.2_362_BC.png,1000,1x,3.2,5.0,2941,993,feet,jsons/MX_seq20_2_VE1000.json,253627,389291,22,Man
51,911941,final-intermixed-textured,v2,jsons/MX_seq20_2_VE1000.json,http://54.235.29.9/FacialAge/BNav_EC2/DepthDuration/MX_fS_VE_MTurk/MX_fS_HTML.html#165,165,1280,632,1280,720,1-8-2024,13-58-46,52,VR_target_stimuli/s48_1.3x_2.55_255.png,1000,1.3x,2.55,3.0,2865,1002,feet,jsons/MX_seq20_2_VE1000.json,253627,389291,22,Man
52,911941,final-intermixed-textured,v2,jsons/MX_seq20_2_VE1000.json,http://54.235.29.9/FacialAge/BNav_EC2/DepthDuration/MX_fS_VE_MTurk/MX_fS_HTML.html#165,165,1280,632,1280,720,1-8-2024,13-58-46,53,catch_stimuli/c5.png,1000,,,0.0,2530,992,feet,jsons/MX_seq20_2_VE1000.json,253627,389291,22,Man
53,911941,final-intermixed-textured,v2,jsons/MX_seq20_2_VE1000.json,http://54.235.29.9/FacialAge/BNav_EC2/DepthDuration/MX_fS_VE_MTurk/MX_fS_HTML.html#165,165,1280,632,1280,720,1-8-2024,13-58-46,54,VR_target_stimuli/s19_0.75x_1.21_257.png,1000,0.75x,1.21,3.0,2532,1006,feet,jsons/MX_seq20_2_VE1000.json,253627,389291,22,Man
54,911941,final-intermixed-textured,v2,jsons/MX_seq20_2_VE1000.json,http://54.235.29.9/FacialAge/BNav_EC2/DepthDuration/MX_fS_VE_MTurk/MX_fS_HTML.html#165,165,1280,632,1280,720,1-8-2024,13-58-46,55,VR_target_stimuli/s21_1.3x_4.22_384.png,1000,1.3x,4.22,8.7,3461,1009,feet,jsons/MX_seq20_2_VE1000.json,253627,389291,22,Man
55,911941,final-intermixed-textured,v2,jsons/MX_seq20_2_VE1000.json,http://54.235.29.9/FacialAge/BNav_EC2/DepthDuration/MX_fS_VE_MTurk/MX_fS_HTML.html#165,165,1280,632,1280,720,1-8-2024,13-58-46,56,VR_target_stimuli/s8_1x_3.1_332.png,1000,1x,3.1,6.9,4010,1006,feet,jsons/MX_seq20_2_VE1000.json,253627,389291,22,Man
56,911941,final-intermixed-textured,v2,jsons/MX_seq20_2_VE1000.json,http://54.235.29.9/FacialAge/BNav_EC2/DepthDuration/MX_fS_VE_MTurk/MX_fS_HTML.html#165,165,1280,632,1280,720,1-8-2024,13-58-46,57,VR_target_stimuli/s27_0.75x_1.76_243_BC.png,1000,0.75x,1.76,4.6,4654,1006,feet,jsons/MX_seq20_2_VE1000.json,253627,389291,22,Man
57,911941,final-intermixed-textured,v2,jsons/MX_seq20_2_VE1000.json,http://54.235.29.9/FacialAge/BNav_EC2/DepthDuration/MX_fS_VE_MTurk/MX_fS_HTML.html#165,165,1280,632,1280,720,1-8-2024,13-58-46,58,VR_target_stimuli/s15_0.75x_4.2_388.png,1000,0.75x,4.2,6.5,3218,1000,feet,jsons/MX_seq20_2_VE1000.json,253627,389291,22,Man
58,911941,final-intermixed-textured,v2,jsons/MX_seq20_2_VE1000.json,http://54.235.29.9/FacialAge/BNav_EC2/DepthDuration/MX_fS_VE_MTurk/MX_fS_HTML.html#165,165,1280,632,1280,720,1-8-2024,13-58-46,59,VR_target_stimuli/s4_1.3x_1.4_328_BC.png,1000,1.3x,1.4,2.0,2445,1001,feet,jsons/MX_seq20_2_VE1000.json,253627,389291,22,Man
59,911941,final-intermixed-textured,v2,jsons/MX_seq20_2_VE1000.json,http://54.235.29.9/FacialAge/BNav_EC2/DepthDuration/MX_fS_VE_MTurk/MX_fS_HTML.html#165,165,1280,632,1280,720,1-8-2024,13-58-46,60,VR_target_stimuli/s35_1x_2_331_BC.png,1000,1x,2.0,3.0,2658,1008,feet,jsons/MX_seq20_2_VE1000.json,253627,389291,22,Man
