,subjID,experimentName,versionName,sequenceName,url,selected_row,windowWidth,windowHeight,screenWidth,screenHeight,startDate,startTime,trial,stimulus,duration,scale,actual_depth,depth_estimate,trial_RT,log_sceneDuration,unitSelection,seq_filepath,experimentTime,totalTime,age,gender
0,959982,final-intermixed-textured,v2,jsons/MX_seq18_2_VE1000.json,http://54.235.29.9/FacialAge/BNav_EC2/DepthDuration/MX_fS_VE_MTurk/MX_fS_HTML.html#131,131,1536,703,1536,864,1-8-2024,13-58-14,1,VR_target_stimuli/s4_1x_1.4_313_BC.png,1000,1x,1.4,1,4486,996,meters,jsons/MX_seq18_2_VE1000.json,333519,418005,27,Man
1,959982,final-intermixed-textured,v2,jsons/MX_seq18_2_VE1000.json,http://54.235.29.9/FacialAge/BNav_EC2/DepthDuration/MX_fS_VE_MTurk/MX_fS_HTML.html#131,131,1536,703,1536,864,1-8-2024,13-58-14,2,VR_target_stimuli/s35_1.3x_2_338.png,1000,1.3x,2.0,1,3902,1001,meters,jsons/MX_seq18_2_VE1000.json,333519,418005,27,Man
2,959982,final-intermixed-textured,v2,jsons/MX_seq18_2_VE1000.json,http://54.235.29.9/FacialAge/BNav_EC2/DepthDuration/MX_fS_VE_MTurk/MX_fS_HTML.html#131,131,1536,703,1536,864,1-8-2024,13-58-14,3,VR_target_stimuli/s49_0.75x_4.67_328_BC.png,1000,0.75x,4.67,3,3785,1000,meters,jsons/MX_seq18_2_VE1000.json,333519,418005,27,Man
3,959982,final-intermixed-textured,v2,jsons/MX_seq18_2_VE1000.json,http://54.235.29.9/FacialAge/BNav_EC2/DepthDuration/MX_fS_VE_MTurk/MX_fS_HTML.html#131,131,1536,703,1536,864,1-8-2024,13-58-14,4,VR_target_stimuli/s7_1.3x_1.5_256_BC.png,1000,1.3x,1.5,2,4796,999,meters,jsons/MX_seq18_2_VE1000.json,333519,418005,27,Man
4,959982,final-intermixed-textured,v2,jsons/MX_seq18_2_VE1000.json,http://54.235.29.9/FacialAge/BNav_EC2/DepthDuration/MX_fS_VE_MTurk/MX_fS_HTML.html#131,131,1536,703,1536,864,1-8-2024,13-58-14,5,VR_target_stimuli/s20_1x_4.99_398.png,1000,1x,4.99,4,3983,1000,meters,jsons/MX_seq18_2_VE1000.json,333519,418005,27,Man
5,959982,final-intermixed-textured,v2,jsons/MX_seq18_2_VE1000.json,http://54.235.29.9/FacialAge/BNav_EC2/DepthDuration/MX_fS_VE_MTurk/MX_fS_HTML.html#131,131,1536,703,1536,864,1-8-2024,13-58-14,6,VR_target_stimuli/s31_0.75x_4.96_329.png,1000,0.75x,4.96,4,3762,1000,meters,jsons/MX_seq18_2_VE1000.json,333519,418005,27,Man
6,959982,final-intermixed-textured,v2,jsons/MX_seq18_2_VE1000.json,http://54.235.29.9/FacialAge/BNav_EC2/DepthDuration/MX_fS_VE_MTurk/MX_fS_HTML.html#131,131,1536,703,1536,864,1-8-2024,13-58-14,7,catch_stimuli/c0.png,1000,,,0,2836,992,meters,jsons/MX_seq18_2_VE1000.json,333519,418005,27,Man
7,959982,final-intermixed-textured,v2,jsons/MX_seq18_2_VE1000.json,http://54.235.29.9/FacialAge/BNav_EC2/DepthDuration/MX_fS_VE_MTurk/MX_fS_HTML.html#131,131,1536,703,1536,864,1-8-2024,13-58-14,8,VR_target_stimuli/s33_0.75x_3.1_361.png,1000,0.75x,3.1,3,2771,1001,meters,jsons/MX_seq18_2_VE1000.json,333519,418005,27,Man
8,959982,final-intermixed-textured,v2,jsons/MX_seq18_2_VE1000.json,http://54.235.29.9/FacialAge/BNav_EC2/DepthDuration/MX_fS_VE_MTurk/MX_fS_HTML.html#131,131,1536,703,1536,864,1-8-2024,13-58-14,9,VR_target_stimuli/s52_1.3x_3.2_280.png,1000,1.3x,3.2,3,6600,1001,meters,jsons/MX_seq18_2_VE1000.json,333519,418005,27,Man
9,959982,final-intermixed-textured,v2,jsons/MX_seq18_2_VE1000.json,http://54.235.29.9/FacialAge/BNav_EC2/DepthDuration/MX_fS_VE_MTurk/MX_fS_HTML.html#131,131,1536,703,1536,864,1-8-2024,13-58-14,10,VR_target_stimuli/s32_1x_1.5_218_BC.png,1000,1x,1.5,3,50190,1000,meters,jsons/MX_seq18_2_VE1000.json,333519,418005,27,Man
10,959982,final-intermixed-textured,v2,jsons/MX_seq18_2_VE1000.json,http://54.235.29.9/FacialAge/BNav_EC2/DepthDuration/MX_fS_VE_MTurk/MX_fS_HTML.html#131,131,1536,703,1536,864,1-8-2024,13-58-14,11,VR_target_stimuli/s18_1.3x_2.25_368_BC.png,1000,1.3x,2.25,3,3329,1001,meters,jsons/MX_seq18_2_VE1000.json,333519,418005,27,Man
11,959982,final-intermixed-textured,v2,jsons/MX_seq18_2_VE1000.json,http://54.235.29.9/FacialAge/BNav_EC2/DepthDuration/MX_fS_VE_MTurk/MX_fS_HTML.html#131,131,1536,703,1536,864,1-8-2024,13-58-14,12,VR_target_stimuli/s39_0.75x_1_205_BC.png,1000,0.75x,1.0,1,3332,998,meters,jsons/MX_seq18_2_VE1000.json,333519,418005,27,Man
12,959982,final-intermixed-textured,v2,jsons/MX_seq18_2_VE1000.json,http://54.235.29.9/FacialAge/BNav_EC2/DepthDuration/MX_fS_VE_MTurk/MX_fS_HTML.html#131,131,1536,703,1536,864,1-8-2024,13-58-14,13,VR_target_stimuli/s51_1x_3.64_461.png,1000,1x,3.64,2,2918,989,meters,jsons/MX_seq18_2_VE1000.json,333519,418005,27,Man
13,959982,final-intermixed-textured,v2,jsons/MX_seq18_2_VE1000.json,http://54.235.29.9/FacialAge/BNav_EC2/DepthDuration/MX_fS_VE_MTurk/MX_fS_HTML.html#131,131,1536,703,1536,864,1-8-2024,13-58-14,14,VR_target_stimuli/s43_0.75x_2.2_348_BC.png,1000,0.75x,2.2,3,11396,1003,meters,jsons/MX_seq18_2_VE1000.json,333519,418005,27,Man
14,959982,final-intermixed-textured,v2,jsons/MX_seq18_2_VE1000.json,http://54.235.29.9/FacialAge/BNav_EC2/DepthDuration/MX_fS_VE_MTurk/MX_fS_HTML.html#131,131,1536,703,1536,864,1-8-2024,13-58-14,15,VR_target_stimuli/s24_1.3x_3.3_352_BC.png,1000,1.3x,3.3,2,4731,998,meters,jsons/MX_seq18_2_VE1000.json,333519,418005,27,Man
15,959982,final-intermixed-textured,v2,jsons/MX_seq18_2_VE1000.json,http://54.235.29.9/FacialAge/BNav_EC2/DepthDuration/MX_fS_VE_MTurk/MX_fS_HTML.html#131,131,1536,703,1536,864,1-8-2024,13-58-14,16,VR_target_stimuli/s10_1x_2.7_324.png,1000,1x,2.7,4,3079,992,meters,jsons/MX_seq18_2_VE1000.json,333519,418005,27,Man
16,959982,final-intermixed-textured,v2,jsons/MX_seq18_2_VE1000.json,http://54.235.29.9/FacialAge/BNav_EC2/DepthDuration/MX_fS_VE_MTurk/MX_fS_HTML.html#131,131,1536,703,1536,864,1-8-2024,13-58-14,17,catch_stimuli/c1.png,1000,,,0,2874,995,meters,jsons/MX_seq18_2_VE1000.json,333519,418005,27,Man
17,959982,final-intermixed-textured,v2,jsons/MX_seq18_2_VE1000.json,http://54.235.29.9/FacialAge/BNav_EC2/DepthDuration/MX_fS_VE_MTurk/MX_fS_HTML.html#131,131,1536,703,1536,864,1-8-2024,13-58-14,18,VR_target_stimuli/s36_1x_4.1_423_BC.png,1000,1x,4.1,3,2920,999,meters,jsons/MX_seq18_2_VE1000.json,333519,418005,27,Man
18,959982,final-intermixed-textured,v2,jsons/MX_seq18_2_VE1000.json,http://54.235.29.9/FacialAge/BNav_EC2/DepthDuration/MX_fS_VE_MTurk/MX_fS_HTML.html#131,131,1536,703,1536,864,1-8-2024,13-58-14,19,VR_target_stimuli/s40_0.75x_1.2_308.png,1000,0.75x,1.2,1,3189,986,meters,jsons/MX_seq18_2_VE1000.json,333519,418005,27,Man
19,959982,final-intermixed-textured,v2,jsons/MX_seq18_2_VE1000.json,http://54.235.29.9/FacialAge/BNav_EC2/DepthDuration/MX_fS_VE_MTurk/MX_fS_HTML.html#131,131,1536,703,1536,864,1-8-2024,13-58-14,20,VR_target_stimuli/s41_1.3x_2.1_294.png,1000,1.3x,2.1,2,3108,1006,meters,jsons/MX_seq18_2_VE1000.json,333519,418005,27,Man
20,959982,final-intermixed-textured,v2,jsons/MX_seq18_2_VE1000.json,http://54.235.29.9/FacialAge/BNav_EC2/DepthDuration/MX_fS_VE_MTurk/MX_fS_HTML.html#131,131,1536,703,1536,864,1-8-2024,13-58-14,21,VR_target_stimuli/s45_0.75x_3.5_362.png,1000,0.75x,3.5,1,4141,1000,meters,jsons/MX_seq18_2_VE1000.json,333519,418005,27,Man
21,959982,final-intermixed-textured,v2,jsons/MX_seq18_2_VE1000.json,http://54.235.29.9/FacialAge/BNav_EC2/DepthDuration/MX_fS_VE_MTurk/MX_fS_HTML.html#131,131,1536,703,1536,864,1-8-2024,13-58-14,22,VR_target_stimuli/s23_1x_3.65_353_BC.png,1000,1x,3.65,3,2961,987,meters,jsons/MX_seq18_2_VE1000.json,333519,418005,27,Man
22,959982,final-intermixed-textured,v2,jsons/MX_seq18_2_VE1000.json,http://54.235.29.9/FacialAge/BNav_EC2/DepthDuration/MX_fS_VE_MTurk/MX_fS_HTML.html#131,131,1536,703,1536,864,1-8-2024,13-58-14,23,VR_target_stimuli/s26_1.3x_4_441_BC.png,1000,1.3x,4.0,2,3047,984,meters,jsons/MX_seq18_2_VE1000.json,333519,418005,27,Man
23,959982,final-intermixed-textured,v2,jsons/MX_seq18_2_VE1000.json,http://54.235.29.9/FacialAge/BNav_EC2/DepthDuration/MX_fS_VE_MTurk/MX_fS_HTML.html#131,131,1536,703,1536,864,1-8-2024,13-58-14,24,VR_target_stimuli/s12_1x_3.1_372.png,1000,1x,3.1,3,2809,1001,meters,jsons/MX_seq18_2_VE1000.json,333519,418005,27,Man
24,959982,final-intermixed-textured,v2,jsons/MX_seq18_2_VE1000.json,http://54.235.29.9/FacialAge/BNav_EC2/DepthDuration/MX_fS_VE_MTurk/MX_fS_HTML.html#131,131,1536,703,1536,864,1-8-2024,13-58-14,25,VR_target_stimuli/s30_0.75x_2.3_332_BC.png,1000,0.75x,2.3,1,2929,1002,meters,jsons/MX_seq18_2_VE1000.json,333519,418005,27,Man
25,959982,final-intermixed-textured,v2,jsons/MX_seq18_2_VE1000.json,http://54.235.29.9/FacialAge/BNav_EC2/DepthDuration/MX_fS_VE_MTurk/MX_fS_HTML.html#131,131,1536,703,1536,864,1-8-2024,13-58-14,26,catch_stimuli/c2.png,1000,,,0,2830,997,meters,jsons/MX_seq18_2_VE1000.json,333519,418005,27,Man
26,959982,final-intermixed-textured,v2,jsons/MX_seq18_2_VE1000.json,http://54.235.29.9/FacialAge/BNav_EC2/DepthDuration/MX_fS_VE_MTurk/MX_fS_HTML.html#131,131,1536,703,1536,864,1-8-2024,13-58-14,27,VR_target_stimuli/s16_1.3x_1_223.png,1000,1.3x,1.0,1,2868,1001,meters,jsons/MX_seq18_2_VE1000.json,333519,418005,27,Man
27,959982,final-intermixed-textured,v2,jsons/MX_seq18_2_VE1000.json,http://54.235.29.9/FacialAge/BNav_EC2/DepthDuration/MX_fS_VE_MTurk/MX_fS_HTML.html#131,131,1536,703,1536,864,1-8-2024,13-58-14,28,VR_target_stimuli/s17_1.3x_1.8_300.png,1000,1.3x,1.8,2,3938,1001,meters,jsons/MX_seq18_2_VE1000.json,333519,418005,27,Man
28,959982,final-intermixed-textured,v2,jsons/MX_seq18_2_VE1000.json,http://54.235.29.9/FacialAge/BNav_EC2/DepthDuration/MX_fS_VE_MTurk/MX_fS_HTML.html#131,131,1536,703,1536,864,1-8-2024,13-58-14,29,VR_target_stimuli/s5_1x_4_378.png,1000,1x,4.0,2,4443,1002,meters,jsons/MX_seq18_2_VE1000.json,333519,418005,27,Man
29,959982,final-intermixed-textured,v2,jsons/MX_seq18_2_VE1000.json,http://54.235.29.9/FacialAge/BNav_EC2/DepthDuration/MX_fS_VE_MTurk/MX_fS_HTML.html#131,131,1536,703,1536,864,1-8-2024,13-58-14,30,VR_target_stimuli/s37_0.75x_3.3_567.png,1000,0.75x,3.3,0,4313,1002,meters,jsons/MX_seq18_2_VE1000.json,333519,418005,27,Man
30,959982,final-intermixed-textured,v2,jsons/MX_seq18_2_VE1000.json,http://54.235.29.9/FacialAge/BNav_EC2/DepthDuration/MX_fS_VE_MTurk/MX_fS_HTML.html#131,131,1536,703,1536,864,1-8-2024,13-58-14,31,VR_target_stimuli/s46_1.3x_2.42_354_BC.png,1000,1.3x,2.42,2,4741,1000,meters,jsons/MX_seq18_2_VE1000.json,333519,418005,27,Man
31,959982,final-intermixed-textured,v2,jsons/MX_seq18_2_VE1000.json,http://54.235.29.9/FacialAge/BNav_EC2/DepthDuration/MX_fS_VE_MTurk/MX_fS_HTML.html#131,131,1536,703,1536,864,1-8-2024,13-58-14,32,VR_target_stimuli/s22_0.75x_4.29_348_BC.png,1000,0.75x,4.29,3,3477,1000,meters,jsons/MX_seq18_2_VE1000.json,333519,418005,27,Man
32,959982,final-intermixed-textured,v2,jsons/MX_seq18_2_VE1000.json,http://54.235.29.9/FacialAge/BNav_EC2/DepthDuration/MX_fS_VE_MTurk/MX_fS_HTML.html#131,131,1536,703,1536,864,1-8-2024,13-58-14,33,VR_target_stimuli/s42_1x_3.2_303_BC.png,1000,1x,3.2,1,3474,993,meters,jsons/MX_seq18_2_VE1000.json,333519,418005,27,Man
33,959982,final-intermixed-textured,v2,jsons/MX_seq18_2_VE1000.json,http://54.235.29.9/FacialAge/BNav_EC2/DepthDuration/MX_fS_VE_MTurk/MX_fS_HTML.html#131,131,1536,703,1536,864,1-8-2024,13-58-14,34,catch_stimuli/c3.png,1000,,,0,2965,984,meters,jsons/MX_seq18_2_VE1000.json,333519,418005,27,Man
34,959982,final-intermixed-textured,v2,jsons/MX_seq18_2_VE1000.json,http://54.235.29.9/FacialAge/BNav_EC2/DepthDuration/MX_fS_VE_MTurk/MX_fS_HTML.html#131,131,1536,703,1536,864,1-8-2024,13-58-14,35,VR_target_stimuli/s25_0.75x_1.4_281_BC.png,1000,0.75x,1.4,3,48845,1002,meters,jsons/MX_seq18_2_VE1000.json,333519,418005,27,Man
35,959982,final-intermixed-textured,v2,jsons/MX_seq18_2_VE1000.json,http://54.235.29.9/FacialAge/BNav_EC2/DepthDuration/MX_fS_VE_MTurk/MX_fS_HTML.html#131,131,1536,703,1536,864,1-8-2024,13-58-14,36,VR_target_stimuli/s50_1.3x_4.53_518.png,1000,1.3x,4.53,2,3110,992,meters,jsons/MX_seq18_2_VE1000.json,333519,418005,27,Man
36,959982,final-intermixed-textured,v2,jsons/MX_seq18_2_VE1000.json,http://54.235.29.9/FacialAge/BNav_EC2/DepthDuration/MX_fS_VE_MTurk/MX_fS_HTML.html#131,131,1536,703,1536,864,1-8-2024,13-58-14,37,VR_target_stimuli/s53_1x_1.6_387_BC.png,1000,1x,1.6,1,3309,999,meters,jsons/MX_seq18_2_VE1000.json,333519,418005,27,Man
37,959982,final-intermixed-textured,v2,jsons/MX_seq18_2_VE1000.json,http://54.235.29.9/FacialAge/BNav_EC2/DepthDuration/MX_fS_VE_MTurk/MX_fS_HTML.html#131,131,1536,703,1536,864,1-8-2024,13-58-14,38,VR_target_stimuli/s38_1x_3.55_353.png,1000,1x,3.55,2,3015,986,meters,jsons/MX_seq18_2_VE1000.json,333519,418005,27,Man
38,959982,final-intermixed-textured,v2,jsons/MX_seq18_2_VE1000.json,http://54.235.29.9/FacialAge/BNav_EC2/DepthDuration/MX_fS_VE_MTurk/MX_fS_HTML.html#131,131,1536,703,1536,864,1-8-2024,13-58-14,39,VR_target_stimuli/s9_0.75x_1.2_260.png,1000,0.75x,1.2,1,3076,1001,meters,jsons/MX_seq18_2_VE1000.json,333519,418005,27,Man
39,959982,final-intermixed-textured,v2,jsons/MX_seq18_2_VE1000.json,http://54.235.29.9/FacialAge/BNav_EC2/DepthDuration/MX_fS_VE_MTurk/MX_fS_HTML.html#131,131,1536,703,1536,864,1-8-2024,13-58-14,40,VR_target_stimuli/s44_1.3x_4.4_325_BC.png,1000,1.3x,4.4,2,2841,1002,meters,jsons/MX_seq18_2_VE1000.json,333519,418005,27,Man
40,959982,final-intermixed-textured,v2,jsons/MX_seq18_2_VE1000.json,http://54.235.29.9/FacialAge/BNav_EC2/DepthDuration/MX_fS_VE_MTurk/MX_fS_HTML.html#131,131,1536,703,1536,864,1-8-2024,13-58-14,41,VR_target_stimuli/s3_0.75x_5_381_BC.png,1000,0.75x,5.0,4,2895,986,meters,jsons/MX_seq18_2_VE1000.json,333519,418005,27,Man
41,959982,final-intermixed-textured,v2,jsons/MX_seq18_2_VE1000.json,http://54.235.29.9/FacialAge/BNav_EC2/DepthDuration/MX_fS_VE_MTurk/MX_fS_HTML.html#131,131,1536,703,1536,864,1-8-2024,13-58-14,42,VR_target_stimuli/s1_1x_1.7_262_BC.png,1000,1x,1.7,2,3561,1003,meters,jsons/MX_seq18_2_VE1000.json,333519,418005,27,Man
42,959982,final-intermixed-textured,v2,jsons/MX_seq18_2_VE1000.json,http://54.235.29.9/FacialAge/BNav_EC2/DepthDuration/MX_fS_VE_MTurk/MX_fS_HTML.html#131,131,1536,703,1536,864,1-8-2024,13-58-14,43,VR_target_stimuli/s11_1.3x_5_363_BC.png,1000,1.3x,5.0,4,3031,994,meters,jsons/MX_seq18_2_VE1000.json,333519,418005,27,Man
43,959982,final-intermixed-textured,v2,jsons/MX_seq18_2_VE1000.json,http://54.235.29.9/FacialAge/BNav_EC2/DepthDuration/MX_fS_VE_MTurk/MX_fS_HTML.html#131,131,1536,703,1536,864,1-8-2024,13-58-14,44,VR_target_stimuli/s2_1x_2.7_390.png,1000,1x,2.7,2,2784,1001,meters,jsons/MX_seq18_2_VE1000.json,333519,418005,27,Man
44,959982,final-intermixed-textured,v2,jsons/MX_seq18_2_VE1000.json,http://54.235.29.9/FacialAge/BNav_EC2/DepthDuration/MX_fS_VE_MTurk/MX_fS_HTML.html#131,131,1536,703,1536,864,1-8-2024,13-58-14,45,catch_stimuli/c4.png,1000,,,0,2813,1002,meters,jsons/MX_seq18_2_VE1000.json,333519,418005,27,Man
45,959982,final-intermixed-textured,v2,jsons/MX_seq18_2_VE1000.json,http://54.235.29.9/FacialAge/BNav_EC2/DepthDuration/MX_fS_VE_MTurk/MX_fS_HTML.html#131,131,1536,703,1536,864,1-8-2024,13-58-14,46,VR_target_stimuli/s6_0.75x_2.1_290.png,1000,0.75x,2.1,3,2767,1000,meters,jsons/MX_seq18_2_VE1000.json,333519,418005,27,Man
46,959982,final-intermixed-textured,v2,jsons/MX_seq18_2_VE1000.json,http://54.235.29.9/FacialAge/BNav_EC2/DepthDuration/MX_fS_VE_MTurk/MX_fS_HTML.html#131,131,1536,703,1536,864,1-8-2024,13-58-14,47,VR_target_stimuli/s0_1.3x_2.6_356.png,1000,1.3x,2.6,1,2864,984,meters,jsons/MX_seq18_2_VE1000.json,333519,418005,27,Man
47,959982,final-intermixed-textured,v2,jsons/MX_seq18_2_VE1000.json,http://54.235.29.9/FacialAge/BNav_EC2/DepthDuration/MX_fS_VE_MTurk/MX_fS_HTML.html#131,131,1536,703,1536,864,1-8-2024,13-58-14,48,VR_target_stimuli/s34_1.3x_2.8_294_BC.png,1000,1.3x,2.8,2,3174,1001,meters,jsons/MX_seq18_2_VE1000.json,333519,418005,27,Man
48,959982,final-intermixed-textured,v2,jsons/MX_seq18_2_VE1000.json,http://54.235.29.9/FacialAge/BNav_EC2/DepthDuration/MX_fS_VE_MTurk/MX_fS_HTML.html#131,131,1536,703,1536,864,1-8-2024,13-58-14,49,VR_target_stimuli/s13_1x_2.4_310.png,1000,1x,2.4,1,3217,998,meters,jsons/MX_seq18_2_VE1000.json,333519,418005,27,Man
49,959982,final-intermixed-textured,v2,jsons/MX_seq18_2_VE1000.json,http://54.235.29.9/FacialAge/BNav_EC2/DepthDuration/MX_fS_VE_MTurk/MX_fS_HTML.html#131,131,1536,703,1536,864,1-8-2024,13-58-14,50,VR_target_stimuli/s14_0.75x_3.83_355_BC.png,1000,0.75x,3.83,3,3067,995,meters,jsons/MX_seq18_2_VE1000.json,333519,418005,27,Man
50,959982,final-intermixed-textured,v2,jsons/MX_seq18_2_VE1000.json,http://54.235.29.9/FacialAge/BNav_EC2/DepthDuration/MX_fS_VE_MTurk/MX_fS_HTML.html#131,131,1536,703,1536,864,1-8-2024,13-58-14,51,VR_target_stimuli/s47_1x_3.45_370_BC.png,1000,1x,3.45,2,3345,1000,meters,jsons/MX_seq18_2_VE1000.json,333519,418005,27,Man
51,959982,final-intermixed-textured,v2,jsons/MX_seq18_2_VE1000.json,http://54.235.29.9/FacialAge/BNav_EC2/DepthDuration/MX_fS_VE_MTurk/MX_fS_HTML.html#131,131,1536,703,1536,864,1-8-2024,13-58-14,52,VR_target_stimuli/s29_1.3x_1.3_253.png,1000,1.3x,1.3,1,2936,1002,meters,jsons/MX_seq18_2_VE1000.json,333519,418005,27,Man
52,959982,final-intermixed-textured,v2,jsons/MX_seq18_2_VE1000.json,http://54.235.29.9/FacialAge/BNav_EC2/DepthDuration/MX_fS_VE_MTurk/MX_fS_HTML.html#131,131,1536,703,1536,864,1-8-2024,13-58-14,53,catch_stimuli/c5.png,1000,,,0,2748,1000,meters,jsons/MX_seq18_2_VE1000.json,333519,418005,27,Man
53,959982,final-intermixed-textured,v2,jsons/MX_seq18_2_VE1000.json,http://54.235.29.9/FacialAge/BNav_EC2/DepthDuration/MX_fS_VE_MTurk/MX_fS_HTML.html#131,131,1536,703,1536,864,1-8-2024,13-58-14,54,VR_target_stimuli/s28_0.75x_3.2_357.png,1000,0.75x,3.2,3,2879,1001,meters,jsons/MX_seq18_2_VE1000.json,333519,418005,27,Man
54,959982,final-intermixed-textured,v2,jsons/MX_seq18_2_VE1000.json,http://54.235.29.9/FacialAge/BNav_EC2/DepthDuration/MX_fS_VE_MTurk/MX_fS_HTML.html#131,131,1536,703,1536,864,1-8-2024,13-58-14,55,VR_target_stimuli/s48_1.3x_2.55_255_BC.png,1000,1.3x,2.55,1,2937,1002,meters,jsons/MX_seq18_2_VE1000.json,333519,418005,27,Man
55,959982,final-intermixed-textured,v2,jsons/MX_seq18_2_VE1000.json,http://54.235.29.9/FacialAge/BNav_EC2/DepthDuration/MX_fS_VE_MTurk/MX_fS_HTML.html#131,131,1536,703,1536,864,1-8-2024,13-58-14,56,VR_target_stimuli/s19_1x_1.21_263_BC.png,1000,1x,1.21,2,4179,998,meters,jsons/MX_seq18_2_VE1000.json,333519,418005,27,Man
56,959982,final-intermixed-textured,v2,jsons/MX_seq18_2_VE1000.json,http://54.235.29.9/FacialAge/BNav_EC2/DepthDuration/MX_fS_VE_MTurk/MX_fS_HTML.html#131,131,1536,703,1536,864,1-8-2024,13-58-14,57,VR_target_stimuli/s21_0.75x_4.22_374_BC.png,1000,0.75x,4.22,1,3370,1002,meters,jsons/MX_seq18_2_VE1000.json,333519,418005,27,Man
57,959982,final-intermixed-textured,v2,jsons/MX_seq18_2_VE1000.json,http://54.235.29.9/FacialAge/BNav_EC2/DepthDuration/MX_fS_VE_MTurk/MX_fS_HTML.html#131,131,1536,703,1536,864,1-8-2024,13-58-14,58,VR_target_stimuli/s8_0.75x_3.1_325.png,1000,0.75x,3.1,3,3067,1001,meters,jsons/MX_seq18_2_VE1000.json,333519,418005,27,Man
58,959982,final-intermixed-textured,v2,jsons/MX_seq18_2_VE1000.json,http://54.235.29.9/FacialAge/BNav_EC2/DepthDuration/MX_fS_VE_MTurk/MX_fS_HTML.html#131,131,1536,703,1536,864,1-8-2024,13-58-14,59,VR_target_stimuli/s27_1.3x_1.76_250.png,1000,1.3x,1.76,2,3166,1001,meters,jsons/MX_seq18_2_VE1000.json,333519,418005,27,Man
59,959982,final-intermixed-textured,v2,jsons/MX_seq18_2_VE1000.json,http://54.235.29.9/FacialAge/BNav_EC2/DepthDuration/MX_fS_VE_MTurk/MX_fS_HTML.html#131,131,1536,703,1536,864,1-8-2024,13-58-14,60,VR_target_stimuli/s15_1x_4.2_390.png,1000,1x,4.2,1,2991,1002,meters,jsons/MX_seq18_2_VE1000.json,333519,418005,27,Man
