,subjID,experimentName,versionName,sequenceName,url,selected_row,windowWidth,windowHeight,screenWidth,screenHeight,startDate,startTime,trial,stimulus,duration,scale,actual_depth,depth_estimate,trial_RT,log_sceneDuration,unitSelection,seq_filepath,experimentTime,totalTime,age,gender
0,963838,final-intermixed-textured,v2,jsons/MX_seq15_0_VE1000.json,http://54.235.29.9/FacialAge/BNav_EC2/DepthDuration/MX_fS_VE_MTurk/MX_fS_HTML.html#299,299,1536,703,1536,864,1-8-2024,15-47-11,1,VR_target_stimuli/s8_0.75x_3.1_325.png,1000,0.75x,3.1,3.0,7974,1011,meters,jsons/MX_seq15_0_VE1000.json,310965,654369,24,Woman
1,963838,final-intermixed-textured,v2,jsons/MX_seq15_0_VE1000.json,http://54.235.29.9/FacialAge/BNav_EC2/DepthDuration/MX_fS_VE_MTurk/MX_fS_HTML.html#299,299,1536,703,1536,864,1-8-2024,15-47-11,2,VR_target_stimuli/s27_1x_1.76_248_BC.png,1000,1x,1.76,4.0,5644,998,meters,jsons/MX_seq15_0_VE1000.json,310965,654369,24,Woman
2,963838,final-intermixed-textured,v2,jsons/MX_seq15_0_VE1000.json,http://54.235.29.9/FacialAge/BNav_EC2/DepthDuration/MX_fS_VE_MTurk/MX_fS_HTML.html#299,299,1536,703,1536,864,1-8-2024,15-47-11,3,VR_target_stimuli/s15_1.3x_4.2_389_BC.png,1000,1.3x,4.2,6.0,3955,995,meters,jsons/MX_seq15_0_VE1000.json,310965,654369,24,Woman
3,963838,final-intermixed-textured,v2,jsons/MX_seq15_0_VE1000.json,http://54.235.29.9/FacialAge/BNav_EC2/DepthDuration/MX_fS_VE_MTurk/MX_fS_HTML.html#299,299,1536,703,1536,864,1-8-2024,15-47-11,4,VR_target_stimuli/s4_1x_1.4_313.png,1000,1x,1.4,2.0,4100,1000,meters,jsons/MX_seq15_0_VE1000.json,310965,654369,24,Woman
4,963838,final-intermixed-textured,v2,jsons/MX_seq15_0_VE1000.json,http://54.235.29.9/FacialAge/BNav_EC2/DepthDuration/MX_fS_VE_MTurk/MX_fS_HTML.html#299,299,1536,703,1536,864,1-8-2024,15-47-11,5,VR_target_stimuli/s35_0.75x_2_323_BC.png,1000,0.75x,2.0,3.0,4594,1017,meters,jsons/MX_seq15_0_VE1000.json,310965,654369,24,Woman
5,963838,final-intermixed-textured,v2,jsons/MX_seq15_0_VE1000.json,http://54.235.29.9/FacialAge/BNav_EC2/DepthDuration/MX_fS_VE_MTurk/MX_fS_HTML.html#299,299,1536,703,1536,864,1-8-2024,15-47-11,6,VR_target_stimuli/s49_1.3x_4.67_354.png,1000,1.3x,4.67,7.0,4422,989,meters,jsons/MX_seq15_0_VE1000.json,310965,654369,24,Woman
6,963838,final-intermixed-textured,v2,jsons/MX_seq15_0_VE1000.json,http://54.235.29.9/FacialAge/BNav_EC2/DepthDuration/MX_fS_VE_MTurk/MX_fS_HTML.html#299,299,1536,703,1536,864,1-8-2024,15-47-11,7,catch_stimuli/c0.png,1000,,,0.0,4437,999,meters,jsons/MX_seq15_0_VE1000.json,310965,654369,24,Woman
7,963838,final-intermixed-textured,v2,jsons/MX_seq15_0_VE1000.json,http://54.235.29.9/FacialAge/BNav_EC2/DepthDuration/MX_fS_VE_MTurk/MX_fS_HTML.html#299,299,1536,703,1536,864,1-8-2024,15-47-11,8,VR_target_stimuli/s7_1.3x_1.5_256.png,1000,1.3x,1.5,3.0,3245,1000,meters,jsons/MX_seq15_0_VE1000.json,310965,654369,24,Woman
8,963838,final-intermixed-textured,v2,jsons/MX_seq15_0_VE1000.json,http://54.235.29.9/FacialAge/BNav_EC2/DepthDuration/MX_fS_VE_MTurk/MX_fS_HTML.html#299,299,1536,703,1536,864,1-8-2024,15-47-11,9,VR_target_stimuli/s20_1x_4.99_398_BC.png,1000,1x,4.99,10.0,4185,989,meters,jsons/MX_seq15_0_VE1000.json,310965,654369,24,Woman
9,963838,final-intermixed-textured,v2,jsons/MX_seq15_0_VE1000.json,http://54.235.29.9/FacialAge/BNav_EC2/DepthDuration/MX_fS_VE_MTurk/MX_fS_HTML.html#299,299,1536,703,1536,864,1-8-2024,15-47-11,10,VR_target_stimuli/s31_0.75x_4.96_329.png,1000,0.75x,4.96,12.0,10878,1003,meters,jsons/MX_seq15_0_VE1000.json,310965,654369,24,Woman
10,963838,final-intermixed-textured,v2,jsons/MX_seq15_0_VE1000.json,http://54.235.29.9/FacialAge/BNav_EC2/DepthDuration/MX_fS_VE_MTurk/MX_fS_HTML.html#299,299,1536,703,1536,864,1-8-2024,15-47-11,11,VR_target_stimuli/s33_1x_3.1_366.png,1000,1x,3.1,6.0,4756,1000,meters,jsons/MX_seq15_0_VE1000.json,310965,654369,24,Woman
11,963838,final-intermixed-textured,v2,jsons/MX_seq15_0_VE1000.json,http://54.235.29.9/FacialAge/BNav_EC2/DepthDuration/MX_fS_VE_MTurk/MX_fS_HTML.html#299,299,1536,703,1536,864,1-8-2024,15-47-11,12,VR_target_stimuli/s52_1.3x_3.2_280_BC.png,1000,1.3x,3.2,8.0,4259,1003,meters,jsons/MX_seq15_0_VE1000.json,310965,654369,24,Woman
12,963838,final-intermixed-textured,v2,jsons/MX_seq15_0_VE1000.json,http://54.235.29.9/FacialAge/BNav_EC2/DepthDuration/MX_fS_VE_MTurk/MX_fS_HTML.html#299,299,1536,703,1536,864,1-8-2024,15-47-11,13,VR_target_stimuli/s32_0.75x_1.5_213_BC.png,1000,0.75x,1.5,5.0,4355,1001,meters,jsons/MX_seq15_0_VE1000.json,310965,654369,24,Woman
13,963838,final-intermixed-textured,v2,jsons/MX_seq15_0_VE1000.json,http://54.235.29.9/FacialAge/BNav_EC2/DepthDuration/MX_fS_VE_MTurk/MX_fS_HTML.html#299,299,1536,703,1536,864,1-8-2024,15-47-11,14,VR_target_stimuli/s18_1.3x_2.25_368_BC.png,1000,1.3x,2.25,4.0,4968,1000,meters,jsons/MX_seq15_0_VE1000.json,310965,654369,24,Woman
14,963838,final-intermixed-textured,v2,jsons/MX_seq15_0_VE1000.json,http://54.235.29.9/FacialAge/BNav_EC2/DepthDuration/MX_fS_VE_MTurk/MX_fS_HTML.html#299,299,1536,703,1536,864,1-8-2024,15-47-11,15,VR_target_stimuli/s39_1x_1_207.png,1000,1x,1.0,2.0,3825,995,meters,jsons/MX_seq15_0_VE1000.json,310965,654369,24,Woman
15,963838,final-intermixed-textured,v2,jsons/MX_seq15_0_VE1000.json,http://54.235.29.9/FacialAge/BNav_EC2/DepthDuration/MX_fS_VE_MTurk/MX_fS_HTML.html#299,299,1536,703,1536,864,1-8-2024,15-47-11,16,VR_target_stimuli/s51_0.75x_3.64_460.png,1000,0.75x,3.64,4.0,5686,1010,meters,jsons/MX_seq15_0_VE1000.json,310965,654369,24,Woman
16,963838,final-intermixed-textured,v2,jsons/MX_seq15_0_VE1000.json,http://54.235.29.9/FacialAge/BNav_EC2/DepthDuration/MX_fS_VE_MTurk/MX_fS_HTML.html#299,299,1536,703,1536,864,1-8-2024,15-47-11,17,catch_stimuli/c1.png,1000,,,0.0,3604,1002,meters,jsons/MX_seq15_0_VE1000.json,310965,654369,24,Woman
17,963838,final-intermixed-textured,v2,jsons/MX_seq15_0_VE1000.json,http://54.235.29.9/FacialAge/BNav_EC2/DepthDuration/MX_fS_VE_MTurk/MX_fS_HTML.html#299,299,1536,703,1536,864,1-8-2024,15-47-11,18,VR_target_stimuli/s43_0.75x_2.2_348_BC.png,1000,0.75x,2.2,4.0,3962,1004,meters,jsons/MX_seq15_0_VE1000.json,310965,654369,24,Woman
18,963838,final-intermixed-textured,v2,jsons/MX_seq15_0_VE1000.json,http://54.235.29.9/FacialAge/BNav_EC2/DepthDuration/MX_fS_VE_MTurk/MX_fS_HTML.html#299,299,1536,703,1536,864,1-8-2024,15-47-11,19,VR_target_stimuli/s24_1.3x_3.3_352.png,1000,1.3x,3.3,4.0,3882,1001,meters,jsons/MX_seq15_0_VE1000.json,310965,654369,24,Woman
19,963838,final-intermixed-textured,v2,jsons/MX_seq15_0_VE1000.json,http://54.235.29.9/FacialAge/BNav_EC2/DepthDuration/MX_fS_VE_MTurk/MX_fS_HTML.html#299,299,1536,703,1536,864,1-8-2024,15-47-11,20,VR_target_stimuli/s10_1x_2.7_324_BC.png,1000,1x,2.7,6.5,6457,999,meters,jsons/MX_seq15_0_VE1000.json,310965,654369,24,Woman
20,963838,final-intermixed-textured,v2,jsons/MX_seq15_0_VE1000.json,http://54.235.29.9/FacialAge/BNav_EC2/DepthDuration/MX_fS_VE_MTurk/MX_fS_HTML.html#299,299,1536,703,1536,864,1-8-2024,15-47-11,21,VR_target_stimuli/s36_1.3x_4.1_442.png,1000,1.3x,4.1,6.0,5008,1003,meters,jsons/MX_seq15_0_VE1000.json,310965,654369,24,Woman
21,963838,final-intermixed-textured,v2,jsons/MX_seq15_0_VE1000.json,http://54.235.29.9/FacialAge/BNav_EC2/DepthDuration/MX_fS_VE_MTurk/MX_fS_HTML.html#299,299,1536,703,1536,864,1-8-2024,15-47-11,22,VR_target_stimuli/s40_0.75x_1.2_308_BC.png,1000,0.75x,1.2,2.0,3638,1003,meters,jsons/MX_seq15_0_VE1000.json,310965,654369,24,Woman
22,963838,final-intermixed-textured,v2,jsons/MX_seq15_0_VE1000.json,http://54.235.29.9/FacialAge/BNav_EC2/DepthDuration/MX_fS_VE_MTurk/MX_fS_HTML.html#299,299,1536,703,1536,864,1-8-2024,15-47-11,23,VR_target_stimuli/s41_1x_2.1_286.png,1000,1x,2.1,3.5,8077,1004,meters,jsons/MX_seq15_0_VE1000.json,310965,654369,24,Woman
23,963838,final-intermixed-textured,v2,jsons/MX_seq15_0_VE1000.json,http://54.235.29.9/FacialAge/BNav_EC2/DepthDuration/MX_fS_VE_MTurk/MX_fS_HTML.html#299,299,1536,703,1536,864,1-8-2024,15-47-11,24,VR_target_stimuli/s45_0.75x_3.5_362.png,1000,0.75x,3.5,5.0,4084,1006,meters,jsons/MX_seq15_0_VE1000.json,310965,654369,24,Woman
24,963838,final-intermixed-textured,v2,jsons/MX_seq15_0_VE1000.json,http://54.235.29.9/FacialAge/BNav_EC2/DepthDuration/MX_fS_VE_MTurk/MX_fS_HTML.html#299,299,1536,703,1536,864,1-8-2024,15-47-11,25,VR_target_stimuli/s23_1.3x_3.65_354_BC.png,1000,1.3x,3.65,5.0,5155,994,meters,jsons/MX_seq15_0_VE1000.json,310965,654369,24,Woman
25,963838,final-intermixed-textured,v2,jsons/MX_seq15_0_VE1000.json,http://54.235.29.9/FacialAge/BNav_EC2/DepthDuration/MX_fS_VE_MTurk/MX_fS_HTML.html#299,299,1536,703,1536,864,1-8-2024,15-47-11,26,catch_stimuli/c2.png,1000,,,0.0,4171,991,meters,jsons/MX_seq15_0_VE1000.json,310965,654369,24,Woman
26,963838,final-intermixed-textured,v2,jsons/MX_seq15_0_VE1000.json,http://54.235.29.9/FacialAge/BNav_EC2/DepthDuration/MX_fS_VE_MTurk/MX_fS_HTML.html#299,299,1536,703,1536,864,1-8-2024,15-47-11,27,VR_target_stimuli/s26_1x_4_433_BC.png,1000,1x,4.0,4.0,5142,1004,meters,jsons/MX_seq15_0_VE1000.json,310965,654369,24,Woman
27,963838,final-intermixed-textured,v2,jsons/MX_seq15_0_VE1000.json,http://54.235.29.9/FacialAge/BNav_EC2/DepthDuration/MX_fS_VE_MTurk/MX_fS_HTML.html#299,299,1536,703,1536,864,1-8-2024,15-47-11,28,VR_target_stimuli/s12_1x_3.1_372_BC.png,1000,1x,3.1,4.0,4090,997,meters,jsons/MX_seq15_0_VE1000.json,310965,654369,24,Woman
28,963838,final-intermixed-textured,v2,jsons/MX_seq15_0_VE1000.json,http://54.235.29.9/FacialAge/BNav_EC2/DepthDuration/MX_fS_VE_MTurk/MX_fS_HTML.html#299,299,1536,703,1536,864,1-8-2024,15-47-11,29,VR_target_stimuli/s30_0.75x_2.3_332.png,1000,0.75x,2.3,5.0,4173,1008,meters,jsons/MX_seq15_0_VE1000.json,310965,654369,24,Woman
29,963838,final-intermixed-textured,v2,jsons/MX_seq15_0_VE1000.json,http://54.235.29.9/FacialAge/BNav_EC2/DepthDuration/MX_fS_VE_MTurk/MX_fS_HTML.html#299,299,1536,703,1536,864,1-8-2024,15-47-11,30,VR_target_stimuli/s16_1.3x_1_223_BC.png,1000,1.3x,1.0,5.0,5287,1007,meters,jsons/MX_seq15_0_VE1000.json,310965,654369,24,Woman
30,963838,final-intermixed-textured,v2,jsons/MX_seq15_0_VE1000.json,http://54.235.29.9/FacialAge/BNav_EC2/DepthDuration/MX_fS_VE_MTurk/MX_fS_HTML.html#299,299,1536,703,1536,864,1-8-2024,15-47-11,31,VR_target_stimuli/s17_1x_1.8_291.png,1000,1x,1.8,3.0,4565,991,meters,jsons/MX_seq15_0_VE1000.json,310965,654369,24,Woman
31,963838,final-intermixed-textured,v2,jsons/MX_seq15_0_VE1000.json,http://54.235.29.9/FacialAge/BNav_EC2/DepthDuration/MX_fS_VE_MTurk/MX_fS_HTML.html#299,299,1536,703,1536,864,1-8-2024,15-47-11,32,VR_target_stimuli/s5_1.3x_4_393.png,1000,1.3x,4.0,4.0,3787,992,meters,jsons/MX_seq15_0_VE1000.json,310965,654369,24,Woman
32,963838,final-intermixed-textured,v2,jsons/MX_seq15_0_VE1000.json,http://54.235.29.9/FacialAge/BNav_EC2/DepthDuration/MX_fS_VE_MTurk/MX_fS_HTML.html#299,299,1536,703,1536,864,1-8-2024,15-47-11,33,VR_target_stimuli/s37_0.75x_3.3_567_BC.png,1000,0.75x,3.3,5.0,4141,993,meters,jsons/MX_seq15_0_VE1000.json,310965,654369,24,Woman
33,963838,final-intermixed-textured,v2,jsons/MX_seq15_0_VE1000.json,http://54.235.29.9/FacialAge/BNav_EC2/DepthDuration/MX_fS_VE_MTurk/MX_fS_HTML.html#299,299,1536,703,1536,864,1-8-2024,15-47-11,34,catch_stimuli/c3.png,1000,,,0.0,3976,1011,meters,jsons/MX_seq15_0_VE1000.json,310965,654369,24,Woman
34,963838,final-intermixed-textured,v2,jsons/MX_seq15_0_VE1000.json,http://54.235.29.9/FacialAge/BNav_EC2/DepthDuration/MX_fS_VE_MTurk/MX_fS_HTML.html#299,299,1536,703,1536,864,1-8-2024,15-47-11,35,VR_target_stimuli/s46_1.3x_2.42_354_BC.png,1000,1.3x,2.42,5.0,5810,1004,meters,jsons/MX_seq15_0_VE1000.json,310965,654369,24,Woman
35,963838,final-intermixed-textured,v2,jsons/MX_seq15_0_VE1000.json,http://54.235.29.9/FacialAge/BNav_EC2/DepthDuration/MX_fS_VE_MTurk/MX_fS_HTML.html#299,299,1536,703,1536,864,1-8-2024,15-47-11,36,VR_target_stimuli/s22_1x_4.29_354_BC.png,1000,1x,4.29,8.0,3724,996,meters,jsons/MX_seq15_0_VE1000.json,310965,654369,24,Woman
36,963838,final-intermixed-textured,v2,jsons/MX_seq15_0_VE1000.json,http://54.235.29.9/FacialAge/BNav_EC2/DepthDuration/MX_fS_VE_MTurk/MX_fS_HTML.html#299,299,1536,703,1536,864,1-8-2024,15-47-11,37,VR_target_stimuli/s42_0.75x_3.2_301.png,1000,0.75x,3.2,9.0,3624,1001,meters,jsons/MX_seq15_0_VE1000.json,310965,654369,24,Woman
37,963838,final-intermixed-textured,v2,jsons/MX_seq15_0_VE1000.json,http://54.235.29.9/FacialAge/BNav_EC2/DepthDuration/MX_fS_VE_MTurk/MX_fS_HTML.html#299,299,1536,703,1536,864,1-8-2024,15-47-11,38,VR_target_stimuli/s25_0.75x_1.4_281_BC.png,1000,0.75x,1.4,3.0,6169,999,meters,jsons/MX_seq15_0_VE1000.json,310965,654369,24,Woman
38,963838,final-intermixed-textured,v2,jsons/MX_seq15_0_VE1000.json,http://54.235.29.9/FacialAge/BNav_EC2/DepthDuration/MX_fS_VE_MTurk/MX_fS_HTML.html#299,299,1536,703,1536,864,1-8-2024,15-47-11,39,VR_target_stimuli/s50_1.3x_4.53_518.png,1000,1.3x,4.53,4.0,3995,1002,meters,jsons/MX_seq15_0_VE1000.json,310965,654369,24,Woman
39,963838,final-intermixed-textured,v2,jsons/MX_seq15_0_VE1000.json,http://54.235.29.9/FacialAge/BNav_EC2/DepthDuration/MX_fS_VE_MTurk/MX_fS_HTML.html#299,299,1536,703,1536,864,1-8-2024,15-47-11,40,VR_target_stimuli/s53_1x_1.6_387.png,1000,1x,1.6,1.5,5298,1003,meters,jsons/MX_seq15_0_VE1000.json,310965,654369,24,Woman
40,963838,final-intermixed-textured,v2,jsons/MX_seq15_0_VE1000.json,http://54.235.29.9/FacialAge/BNav_EC2/DepthDuration/MX_fS_VE_MTurk/MX_fS_HTML.html#299,299,1536,703,1536,864,1-8-2024,15-47-11,41,VR_target_stimuli/s38_1.3x_3.55_358_BC.png,1000,1.3x,3.55,4.0,5831,1008,meters,jsons/MX_seq15_0_VE1000.json,310965,654369,24,Woman
41,963838,final-intermixed-textured,v2,jsons/MX_seq15_0_VE1000.json,http://54.235.29.9/FacialAge/BNav_EC2/DepthDuration/MX_fS_VE_MTurk/MX_fS_HTML.html#299,299,1536,703,1536,864,1-8-2024,15-47-11,42,VR_target_stimuli/s9_0.75x_1.2_260.png,1000,0.75x,1.2,1.5,5142,997,meters,jsons/MX_seq15_0_VE1000.json,310965,654369,24,Woman
42,963838,final-intermixed-textured,v2,jsons/MX_seq15_0_VE1000.json,http://54.235.29.9/FacialAge/BNav_EC2/DepthDuration/MX_fS_VE_MTurk/MX_fS_HTML.html#299,299,1536,703,1536,864,1-8-2024,15-47-11,43,VR_target_stimuli/s44_1x_4.4_317_BC.png,1000,1x,4.4,7.0,4735,989,meters,jsons/MX_seq15_0_VE1000.json,310965,654369,24,Woman
43,963838,final-intermixed-textured,v2,jsons/MX_seq15_0_VE1000.json,http://54.235.29.9/FacialAge/BNav_EC2/DepthDuration/MX_fS_VE_MTurk/MX_fS_HTML.html#299,299,1536,703,1536,864,1-8-2024,15-47-11,44,VR_target_stimuli/s3_0.75x_5_381_BC.png,1000,0.75x,5.0,7.0,3918,1002,meters,jsons/MX_seq15_0_VE1000.json,310965,654369,24,Woman
44,963838,final-intermixed-textured,v2,jsons/MX_seq15_0_VE1000.json,http://54.235.29.9/FacialAge/BNav_EC2/DepthDuration/MX_fS_VE_MTurk/MX_fS_HTML.html#299,299,1536,703,1536,864,1-8-2024,15-47-11,45,catch_stimuli/c4.png,1000,,,0.0,3481,1012,meters,jsons/MX_seq15_0_VE1000.json,310965,654369,24,Woman
45,963838,final-intermixed-textured,v2,jsons/MX_seq15_0_VE1000.json,http://54.235.29.9/FacialAge/BNav_EC2/DepthDuration/MX_fS_VE_MTurk/MX_fS_HTML.html#299,299,1536,703,1536,864,1-8-2024,15-47-11,46,VR_target_stimuli/s1_1.3x_1.7_261.png,1000,1.3x,1.7,5.0,4825,1017,meters,jsons/MX_seq15_0_VE1000.json,310965,654369,24,Woman
46,963838,final-intermixed-textured,v2,jsons/MX_seq15_0_VE1000.json,http://54.235.29.9/FacialAge/BNav_EC2/DepthDuration/MX_fS_VE_MTurk/MX_fS_HTML.html#299,299,1536,703,1536,864,1-8-2024,15-47-11,47,VR_target_stimuli/s11_1x_5_361.png,1000,1x,5.0,6.0,5031,1018,meters,jsons/MX_seq15_0_VE1000.json,310965,654369,24,Woman
47,963838,final-intermixed-textured,v2,jsons/MX_seq15_0_VE1000.json,http://54.235.29.9/FacialAge/BNav_EC2/DepthDuration/MX_fS_VE_MTurk/MX_fS_HTML.html#299,299,1536,703,1536,864,1-8-2024,15-47-11,48,VR_target_stimuli/s2_1x_2.7_390_BC.png,1000,1x,2.7,2.0,3588,1007,meters,jsons/MX_seq15_0_VE1000.json,310965,654369,24,Woman
48,963838,final-intermixed-textured,v2,jsons/MX_seq15_0_VE1000.json,http://54.235.29.9/FacialAge/BNav_EC2/DepthDuration/MX_fS_VE_MTurk/MX_fS_HTML.html#299,299,1536,703,1536,864,1-8-2024,15-47-11,49,VR_target_stimuli/s6_0.75x_2.1_290_BC.png,1000,0.75x,2.1,3.0,3738,989,meters,jsons/MX_seq15_0_VE1000.json,310965,654369,24,Woman
49,963838,final-intermixed-textured,v2,jsons/MX_seq15_0_VE1000.json,http://54.235.29.9/FacialAge/BNav_EC2/DepthDuration/MX_fS_VE_MTurk/MX_fS_HTML.html#299,299,1536,703,1536,864,1-8-2024,15-47-11,50,VR_target_stimuli/s0_1.3x_2.6_356_BC.png,1000,1.3x,2.6,5.0,4805,996,meters,jsons/MX_seq15_0_VE1000.json,310965,654369,24,Woman
50,963838,final-intermixed-textured,v2,jsons/MX_seq15_0_VE1000.json,http://54.235.29.9/FacialAge/BNav_EC2/DepthDuration/MX_fS_VE_MTurk/MX_fS_HTML.html#299,299,1536,703,1536,864,1-8-2024,15-47-11,51,VR_target_stimuli/s34_0.75x_2.8_269.png,1000,0.75x,2.8,6.0,4139,1008,meters,jsons/MX_seq15_0_VE1000.json,310965,654369,24,Woman
51,963838,final-intermixed-textured,v2,jsons/MX_seq15_0_VE1000.json,http://54.235.29.9/FacialAge/BNav_EC2/DepthDuration/MX_fS_VE_MTurk/MX_fS_HTML.html#299,299,1536,703,1536,864,1-8-2024,15-47-11,52,VR_target_stimuli/s13_1x_2.4_310.png,1000,1x,2.4,6.0,3715,1002,meters,jsons/MX_seq15_0_VE1000.json,310965,654369,24,Woman
52,963838,final-intermixed-textured,v2,jsons/MX_seq15_0_VE1000.json,http://54.235.29.9/FacialAge/BNav_EC2/DepthDuration/MX_fS_VE_MTurk/MX_fS_HTML.html#299,299,1536,703,1536,864,1-8-2024,15-47-11,53,catch_stimuli/c5.png,1000,,,0.0,3665,1009,meters,jsons/MX_seq15_0_VE1000.json,310965,654369,24,Woman
53,963838,final-intermixed-textured,v2,jsons/MX_seq15_0_VE1000.json,http://54.235.29.9/FacialAge/BNav_EC2/DepthDuration/MX_fS_VE_MTurk/MX_fS_HTML.html#299,299,1536,703,1536,864,1-8-2024,15-47-11,54,VR_target_stimuli/s14_1.3x_3.83_359.png,1000,1.3x,3.83,4.0,4399,1001,meters,jsons/MX_seq15_0_VE1000.json,310965,654369,24,Woman
54,963838,final-intermixed-textured,v2,jsons/MX_seq15_0_VE1000.json,http://54.235.29.9/FacialAge/BNav_EC2/DepthDuration/MX_fS_VE_MTurk/MX_fS_HTML.html#299,299,1536,703,1536,864,1-8-2024,15-47-11,55,VR_target_stimuli/s47_1x_3.45_370_BC.png,1000,1x,3.45,4.0,4391,1007,meters,jsons/MX_seq15_0_VE1000.json,310965,654369,24,Woman
55,963838,final-intermixed-textured,v2,jsons/MX_seq15_0_VE1000.json,http://54.235.29.9/FacialAge/BNav_EC2/DepthDuration/MX_fS_VE_MTurk/MX_fS_HTML.html#299,299,1536,703,1536,864,1-8-2024,15-47-11,56,VR_target_stimuli/s29_0.75x_1.3_246_BC.png,1000,0.75x,1.3,2.5,5019,1009,meters,jsons/MX_seq15_0_VE1000.json,310965,654369,24,Woman
56,963838,final-intermixed-textured,v2,jsons/MX_seq15_0_VE1000.json,http://54.235.29.9/FacialAge/BNav_EC2/DepthDuration/MX_fS_VE_MTurk/MX_fS_HTML.html#299,299,1536,703,1536,864,1-8-2024,15-47-11,57,VR_target_stimuli/s28_1.3x_3.2_365.png,1000,1.3x,3.2,6.0,4196,1013,meters,jsons/MX_seq15_0_VE1000.json,310965,654369,24,Woman
57,963838,final-intermixed-textured,v2,jsons/MX_seq15_0_VE1000.json,http://54.235.29.9/FacialAge/BNav_EC2/DepthDuration/MX_fS_VE_MTurk/MX_fS_HTML.html#299,299,1536,703,1536,864,1-8-2024,15-47-11,58,VR_target_stimuli/s48_1.3x_2.55_255_BC.png,1000,1.3x,2.55,4.0,4083,1015,meters,jsons/MX_seq15_0_VE1000.json,310965,654369,24,Woman
58,963838,final-intermixed-textured,v2,jsons/MX_seq15_0_VE1000.json,http://54.235.29.9/FacialAge/BNav_EC2/DepthDuration/MX_fS_VE_MTurk/MX_fS_HTML.html#299,299,1536,703,1536,864,1-8-2024,15-47-11,59,VR_target_stimuli/s19_1x_1.21_263.png,1000,1x,1.21,3.0,4238,987,meters,jsons/MX_seq15_0_VE1000.json,310965,654369,24,Woman
59,963838,final-intermixed-textured,v2,jsons/MX_seq15_0_VE1000.json,http://54.235.29.9/FacialAge/BNav_EC2/DepthDuration/MX_fS_VE_MTurk/MX_fS_HTML.html#299,299,1536,703,1536,864,1-8-2024,15-47-11,60,VR_target_stimuli/s21_0.75x_4.22_374.png,1000,0.75x,4.22,14.0,4485,1014,meters,jsons/MX_seq15_0_VE1000.json,310965,654369,24,Woman
