,subjID,experimentName,versionName,sequenceName,url,selected_row,windowWidth,windowHeight,screenWidth,screenHeight,startDate,startTime,trial,stimulus,duration,scale,actual_depth,depth_estimate,trial_RT,log_sceneDuration,unitSelection,seq_filepath,experimentTime,totalTime,age,gender
0,974388,final-intermixed-textured,v2,jsons/MX_seq44_1_VE1000.json,http://54.235.29.9/FacialAge/BNav_EC2/DepthDuration/MX_fS_VE_MTurk/MX_fS_HTML.html#276,276,1536,730,1536,864,1-8-2024,14-47-16,1,VR_target_stimuli/s37_1.3x_3.3_555.png,1000,1.3x,3.3,1.5,10262,1014,meters,jsons/MX_seq44_1_VE1000.json,339547,660741,30,Woman
1,974388,final-intermixed-textured,v2,jsons/MX_seq44_1_VE1000.json,http://54.235.29.9/FacialAge/BNav_EC2/DepthDuration/MX_fS_VE_MTurk/MX_fS_HTML.html#276,276,1536,730,1536,864,1-8-2024,14-47-16,2,VR_target_stimuli/s46_0.75x_2.42_343_BC.png,1000,0.75x,2.42,3.0,7446,989,meters,jsons/MX_seq44_1_VE1000.json,339547,660741,30,Woman
2,974388,final-intermixed-textured,v2,jsons/MX_seq44_1_VE1000.json,http://54.235.29.9/FacialAge/BNav_EC2/DepthDuration/MX_fS_VE_MTurk/MX_fS_HTML.html#276,276,1536,730,1536,864,1-8-2024,14-47-16,3,VR_target_stimuli/s22_1x_4.29_354_BC.png,1000,1x,4.29,4.0,4367,1008,meters,jsons/MX_seq44_1_VE1000.json,339547,660741,30,Woman
3,974388,final-intermixed-textured,v2,jsons/MX_seq44_1_VE1000.json,http://54.235.29.9/FacialAge/BNav_EC2/DepthDuration/MX_fS_VE_MTurk/MX_fS_HTML.html#276,276,1536,730,1536,864,1-8-2024,14-47-16,4,VR_target_stimuli/s42_0.75x_3.2_301.png,1000,0.75x,3.2,3.5,5671,1009,meters,jsons/MX_seq44_1_VE1000.json,339547,660741,30,Woman
4,974388,final-intermixed-textured,v2,jsons/MX_seq44_1_VE1000.json,http://54.235.29.9/FacialAge/BNav_EC2/DepthDuration/MX_fS_VE_MTurk/MX_fS_HTML.html#276,276,1536,730,1536,864,1-8-2024,14-47-16,5,VR_target_stimuli/s25_1.3x_1.4_299_BC.png,1000,1.3x,1.4,1.7,7134,1005,meters,jsons/MX_seq44_1_VE1000.json,339547,660741,30,Woman
5,974388,final-intermixed-textured,v2,jsons/MX_seq44_1_VE1000.json,http://54.235.29.9/FacialAge/BNav_EC2/DepthDuration/MX_fS_VE_MTurk/MX_fS_HTML.html#276,276,1536,730,1536,864,1-8-2024,14-47-16,6,VR_target_stimuli/s50_1x_4.53_518.png,1000,1x,4.53,2.5,6127,1004,meters,jsons/MX_seq44_1_VE1000.json,339547,660741,30,Woman
6,974388,final-intermixed-textured,v2,jsons/MX_seq44_1_VE1000.json,http://54.235.29.9/FacialAge/BNav_EC2/DepthDuration/MX_fS_VE_MTurk/MX_fS_HTML.html#276,276,1536,730,1536,864,1-8-2024,14-47-16,7,catch_stimuli/c0.png,1000,,,0.0,3592,1004,meters,jsons/MX_seq44_1_VE1000.json,339547,660741,30,Woman
7,974388,final-intermixed-textured,v2,jsons/MX_seq44_1_VE1000.json,http://54.235.29.9/FacialAge/BNav_EC2/DepthDuration/MX_fS_VE_MTurk/MX_fS_HTML.html#276,276,1536,730,1536,864,1-8-2024,14-47-16,8,VR_target_stimuli/s53_1x_1.6_387_BC.png,1000,1x,1.6,1.0,4017,998,meters,jsons/MX_seq44_1_VE1000.json,339547,660741,30,Woman
8,974388,final-intermixed-textured,v2,jsons/MX_seq44_1_VE1000.json,http://54.235.29.9/FacialAge/BNav_EC2/DepthDuration/MX_fS_VE_MTurk/MX_fS_HTML.html#276,276,1536,730,1536,864,1-8-2024,14-47-16,9,VR_target_stimuli/s38_0.75x_3.55_346_BC.png,1000,0.75x,3.55,3.5,6286,1011,meters,jsons/MX_seq44_1_VE1000.json,339547,660741,30,Woman
9,974388,final-intermixed-textured,v2,jsons/MX_seq44_1_VE1000.json,http://54.235.29.9/FacialAge/BNav_EC2/DepthDuration/MX_fS_VE_MTurk/MX_fS_HTML.html#276,276,1536,730,1536,864,1-8-2024,14-47-16,10,VR_target_stimuli/s9_1.3x_1.2_276.png,1000,1.3x,1.2,1.0,4133,1007,meters,jsons/MX_seq44_1_VE1000.json,339547,660741,30,Woman
10,974388,final-intermixed-textured,v2,jsons/MX_seq44_1_VE1000.json,http://54.235.29.9/FacialAge/BNav_EC2/DepthDuration/MX_fS_VE_MTurk/MX_fS_HTML.html#276,276,1536,730,1536,864,1-8-2024,14-47-16,11,VR_target_stimuli/s44_0.75x_4.4_314.png,1000,0.75x,4.4,3.5,5143,994,meters,jsons/MX_seq44_1_VE1000.json,339547,660741,30,Woman
11,974388,final-intermixed-textured,v2,jsons/MX_seq44_1_VE1000.json,http://54.235.29.9/FacialAge/BNav_EC2/DepthDuration/MX_fS_VE_MTurk/MX_fS_HTML.html#276,276,1536,730,1536,864,1-8-2024,14-47-16,12,VR_target_stimuli/s3_1x_5_385.png,1000,1x,5.0,4.0,3957,1005,meters,jsons/MX_seq44_1_VE1000.json,339547,660741,30,Woman
12,974388,final-intermixed-textured,v2,jsons/MX_seq44_1_VE1000.json,http://54.235.29.9/FacialAge/BNav_EC2/DepthDuration/MX_fS_VE_MTurk/MX_fS_HTML.html#276,276,1536,730,1536,864,1-8-2024,14-47-16,13,VR_target_stimuli/s1_1.3x_1.7_261_BC.png,1000,1.3x,1.7,2.0,5396,988,meters,jsons/MX_seq44_1_VE1000.json,339547,660741,30,Woman
13,974388,final-intermixed-textured,v2,jsons/MX_seq44_1_VE1000.json,http://54.235.29.9/FacialAge/BNav_EC2/DepthDuration/MX_fS_VE_MTurk/MX_fS_HTML.html#276,276,1536,730,1536,864,1-8-2024,14-47-16,14,VR_target_stimuli/s11_1x_5_361_BC.png,1000,1x,5.0,4.0,3815,1003,meters,jsons/MX_seq44_1_VE1000.json,339547,660741,30,Woman
14,974388,final-intermixed-textured,v2,jsons/MX_seq44_1_VE1000.json,http://54.235.29.9/FacialAge/BNav_EC2/DepthDuration/MX_fS_VE_MTurk/MX_fS_HTML.html#276,276,1536,730,1536,864,1-8-2024,14-47-16,15,VR_target_stimuli/s2_0.75x_2.7_384.png,1000,0.75x,2.7,3.0,4172,1005,meters,jsons/MX_seq44_1_VE1000.json,339547,660741,30,Woman
15,974388,final-intermixed-textured,v2,jsons/MX_seq44_1_VE1000.json,http://54.235.29.9/FacialAge/BNav_EC2/DepthDuration/MX_fS_VE_MTurk/MX_fS_HTML.html#276,276,1536,730,1536,864,1-8-2024,14-47-16,16,VR_target_stimuli/s6_1.3x_2.1_298_BC.png,1000,1.3x,2.1,2.5,5159,993,meters,jsons/MX_seq44_1_VE1000.json,339547,660741,30,Woman
16,974388,final-intermixed-textured,v2,jsons/MX_seq44_1_VE1000.json,http://54.235.29.9/FacialAge/BNav_EC2/DepthDuration/MX_fS_VE_MTurk/MX_fS_HTML.html#276,276,1536,730,1536,864,1-8-2024,14-47-16,17,catch_stimuli/c1.png,1000,,,0.0,3919,1008,meters,jsons/MX_seq44_1_VE1000.json,339547,660741,30,Woman
17,974388,final-intermixed-textured,v2,jsons/MX_seq44_1_VE1000.json,http://54.235.29.9/FacialAge/BNav_EC2/DepthDuration/MX_fS_VE_MTurk/MX_fS_HTML.html#276,276,1536,730,1536,864,1-8-2024,14-47-16,18,VR_target_stimuli/s0_1.3x_2.6_356.png,1000,1.3x,2.6,2.0,3454,995,meters,jsons/MX_seq44_1_VE1000.json,339547,660741,30,Woman
18,974388,final-intermixed-textured,v2,jsons/MX_seq44_1_VE1000.json,http://54.235.29.9/FacialAge/BNav_EC2/DepthDuration/MX_fS_VE_MTurk/MX_fS_HTML.html#276,276,1536,730,1536,864,1-8-2024,14-47-16,19,VR_target_stimuli/s34_1x_2.8_283.png,1000,1x,2.8,4.0,4089,995,meters,jsons/MX_seq44_1_VE1000.json,339547,660741,30,Woman
19,974388,final-intermixed-textured,v2,jsons/MX_seq44_1_VE1000.json,http://54.235.29.9/FacialAge/BNav_EC2/DepthDuration/MX_fS_VE_MTurk/MX_fS_HTML.html#276,276,1536,730,1536,864,1-8-2024,14-47-16,20,VR_target_stimuli/s13_0.75x_2.4_308_BC.png,1000,0.75x,2.4,3.5,4579,1008,meters,jsons/MX_seq44_1_VE1000.json,339547,660741,30,Woman
20,974388,final-intermixed-textured,v2,jsons/MX_seq44_1_VE1000.json,http://54.235.29.9/FacialAge/BNav_EC2/DepthDuration/MX_fS_VE_MTurk/MX_fS_HTML.html#276,276,1536,730,1536,864,1-8-2024,14-47-16,21,VR_target_stimuli/s14_1x_ 3.83_357_BC.png,1000,1x,3.83,3.0,4208,1003,meters,jsons/MX_seq44_1_VE1000.json,339547,660741,30,Woman
21,974388,final-intermixed-textured,v2,jsons/MX_seq44_1_VE1000.json,http://54.235.29.9/FacialAge/BNav_EC2/DepthDuration/MX_fS_VE_MTurk/MX_fS_HTML.html#276,276,1536,730,1536,864,1-8-2024,14-47-16,22,VR_target_stimuli/s47_1.3x_3.45_373_BC.png,1000,1.3x,3.45,2.0,3755,1000,meters,jsons/MX_seq44_1_VE1000.json,339547,660741,30,Woman
22,974388,final-intermixed-textured,v2,jsons/MX_seq44_1_VE1000.json,http://54.235.29.9/FacialAge/BNav_EC2/DepthDuration/MX_fS_VE_MTurk/MX_fS_HTML.html#276,276,1536,730,1536,864,1-8-2024,14-47-16,23,VR_target_stimuli/s29_0.75x_1.3_246.png,1000,0.75x,1.3,1.5,5726,1001,meters,jsons/MX_seq44_1_VE1000.json,339547,660741,30,Woman
23,974388,final-intermixed-textured,v2,jsons/MX_seq44_1_VE1000.json,http://54.235.29.9/FacialAge/BNav_EC2/DepthDuration/MX_fS_VE_MTurk/MX_fS_HTML.html#276,276,1536,730,1536,864,1-8-2024,14-47-16,24,VR_target_stimuli/s28_1.3x_3.2_365.png,1000,1.3x,3.2,3.5,8102,995,meters,jsons/MX_seq44_1_VE1000.json,339547,660741,30,Woman
24,974388,final-intermixed-textured,v2,jsons/MX_seq44_1_VE1000.json,http://54.235.29.9/FacialAge/BNav_EC2/DepthDuration/MX_fS_VE_MTurk/MX_fS_HTML.html#276,276,1536,730,1536,864,1-8-2024,14-47-16,25,VR_target_stimuli/s48_1x_2.55_256.png,1000,1x,2.55,2.5,9752,999,meters,jsons/MX_seq44_1_VE1000.json,339547,660741,30,Woman
25,974388,final-intermixed-textured,v2,jsons/MX_seq44_1_VE1000.json,http://54.235.29.9/FacialAge/BNav_EC2/DepthDuration/MX_fS_VE_MTurk/MX_fS_HTML.html#276,276,1536,730,1536,864,1-8-2024,14-47-16,26,catch_stimuli/c2.png,1000,,,0.0,4189,997,meters,jsons/MX_seq44_1_VE1000.json,339547,660741,30,Woman
26,974388,final-intermixed-textured,v2,jsons/MX_seq44_1_VE1000.json,http://54.235.29.9/FacialAge/BNav_EC2/DepthDuration/MX_fS_VE_MTurk/MX_fS_HTML.html#276,276,1536,730,1536,864,1-8-2024,14-47-16,27,VR_target_stimuli/s19_0.75x_1.21_257_BC.png,1000,0.75x,1.21,1.0,3886,1002,meters,jsons/MX_seq44_1_VE1000.json,339547,660741,30,Woman
27,974388,final-intermixed-textured,v2,jsons/MX_seq44_1_VE1000.json,http://54.235.29.9/FacialAge/BNav_EC2/DepthDuration/MX_fS_VE_MTurk/MX_fS_HTML.html#276,276,1536,730,1536,864,1-8-2024,14-47-16,28,VR_target_stimuli/s21_0.75x_4.22_374_BC.png,1000,0.75x,4.22,5.0,5718,1005,meters,jsons/MX_seq44_1_VE1000.json,339547,660741,30,Woman
28,974388,final-intermixed-textured,v2,jsons/MX_seq44_1_VE1000.json,http://54.235.29.9/FacialAge/BNav_EC2/DepthDuration/MX_fS_VE_MTurk/MX_fS_HTML.html#276,276,1536,730,1536,864,1-8-2024,14-47-16,29,VR_target_stimuli/s8_1.3x_3.1_345.png,1000,1.3x,3.1,2.5,9366,987,meters,jsons/MX_seq44_1_VE1000.json,339547,660741,30,Woman
29,974388,final-intermixed-textured,v2,jsons/MX_seq44_1_VE1000.json,http://54.235.29.9/FacialAge/BNav_EC2/DepthDuration/MX_fS_VE_MTurk/MX_fS_HTML.html#276,276,1536,730,1536,864,1-8-2024,14-47-16,30,VR_target_stimuli/s27_1x_1.76_248.png,1000,1x,1.76,2.0,5101,995,meters,jsons/MX_seq44_1_VE1000.json,339547,660741,30,Woman
30,974388,final-intermixed-textured,v2,jsons/MX_seq44_1_VE1000.json,http://54.235.29.9/FacialAge/BNav_EC2/DepthDuration/MX_fS_VE_MTurk/MX_fS_HTML.html#276,276,1536,730,1536,864,1-8-2024,14-47-16,31,VR_target_stimuli/s15_0.75x_4.2_388.png,1000,0.75x,4.2,3.0,5483,1004,meters,jsons/MX_seq44_1_VE1000.json,339547,660741,30,Woman
31,974388,final-intermixed-textured,v2,jsons/MX_seq44_1_VE1000.json,http://54.235.29.9/FacialAge/BNav_EC2/DepthDuration/MX_fS_VE_MTurk/MX_fS_HTML.html#276,276,1536,730,1536,864,1-8-2024,14-47-16,32,VR_target_stimuli/s4_1x_1.4_313_BC.png,1000,1x,1.4,1.5,6237,990,meters,jsons/MX_seq44_1_VE1000.json,339547,660741,30,Woman
32,974388,final-intermixed-textured,v2,jsons/MX_seq44_1_VE1000.json,http://54.235.29.9/FacialAge/BNav_EC2/DepthDuration/MX_fS_VE_MTurk/MX_fS_HTML.html#276,276,1536,730,1536,864,1-8-2024,14-47-16,33,VR_target_stimuli/s35_1.3x_2_338_BC.png,1000,1.3x,2.0,2.0,5436,1004,meters,jsons/MX_seq44_1_VE1000.json,339547,660741,30,Woman
33,974388,final-intermixed-textured,v2,jsons/MX_seq44_1_VE1000.json,http://54.235.29.9/FacialAge/BNav_EC2/DepthDuration/MX_fS_VE_MTurk/MX_fS_HTML.html#276,276,1536,730,1536,864,1-8-2024,14-47-16,34,catch_stimuli/c3.png,1000,,,0.0,4238,1005,meters,jsons/MX_seq44_1_VE1000.json,339547,660741,30,Woman
34,974388,final-intermixed-textured,v2,jsons/MX_seq44_1_VE1000.json,http://54.235.29.9/FacialAge/BNav_EC2/DepthDuration/MX_fS_VE_MTurk/MX_fS_HTML.html#276,276,1536,730,1536,864,1-8-2024,14-47-16,35,VR_target_stimuli/s49_1x_4.67_341.png,1000,1x,4.67,4.0,8913,994,meters,jsons/MX_seq44_1_VE1000.json,339547,660741,30,Woman
35,974388,final-intermixed-textured,v2,jsons/MX_seq44_1_VE1000.json,http://54.235.29.9/FacialAge/BNav_EC2/DepthDuration/MX_fS_VE_MTurk/MX_fS_HTML.html#276,276,1536,730,1536,864,1-8-2024,14-47-16,36,VR_target_stimuli/s7_0.75x_1.5_253_BC.png,1000,0.75x,1.5,3.0,3473,999,meters,jsons/MX_seq44_1_VE1000.json,339547,660741,30,Woman
36,974388,final-intermixed-textured,v2,jsons/MX_seq44_1_VE1000.json,http://54.235.29.9/FacialAge/BNav_EC2/DepthDuration/MX_fS_VE_MTurk/MX_fS_HTML.html#276,276,1536,730,1536,864,1-8-2024,14-47-16,37,VR_target_stimuli/s20_1.3x_4.99_412_BC.png,1000,1.3x,4.99,4.0,4199,995,meters,jsons/MX_seq44_1_VE1000.json,339547,660741,30,Woman
37,974388,final-intermixed-textured,v2,jsons/MX_seq44_1_VE1000.json,http://54.235.29.9/FacialAge/BNav_EC2/DepthDuration/MX_fS_VE_MTurk/MX_fS_HTML.html#276,276,1536,730,1536,864,1-8-2024,14-47-16,38,VR_target_stimuli/s31_1.3x_4.96_342.png,1000,1.3x,4.96,3.0,4602,1000,meters,jsons/MX_seq44_1_VE1000.json,339547,660741,30,Woman
38,974388,final-intermixed-textured,v2,jsons/MX_seq44_1_VE1000.json,http://54.235.29.9/FacialAge/BNav_EC2/DepthDuration/MX_fS_VE_MTurk/MX_fS_HTML.html#276,276,1536,730,1536,864,1-8-2024,14-47-16,39,VR_target_stimuli/s33_1x_3.1_366_BC.png,1000,1x,3.1,4.0,5012,1001,meters,jsons/MX_seq44_1_VE1000.json,339547,660741,30,Woman
39,974388,final-intermixed-textured,v2,jsons/MX_seq44_1_VE1000.json,http://54.235.29.9/FacialAge/BNav_EC2/DepthDuration/MX_fS_VE_MTurk/MX_fS_HTML.html#276,276,1536,730,1536,864,1-8-2024,14-47-16,40,VR_target_stimuli/s52_0.75x_3.2_270.png,1000,0.75x,3.2,3.5,5132,993,meters,jsons/MX_seq44_1_VE1000.json,339547,660741,30,Woman
40,974388,final-intermixed-textured,v2,jsons/MX_seq44_1_VE1000.json,http://54.235.29.9/FacialAge/BNav_EC2/DepthDuration/MX_fS_VE_MTurk/MX_fS_HTML.html#276,276,1536,730,1536,864,1-8-2024,14-47-16,41,VR_target_stimuli/s32_1x_1.5_218.png,1000,1x,1.5,2.0,4717,996,meters,jsons/MX_seq44_1_VE1000.json,339547,660741,30,Woman
41,974388,final-intermixed-textured,v2,jsons/MX_seq44_1_VE1000.json,http://54.235.29.9/FacialAge/BNav_EC2/DepthDuration/MX_fS_VE_MTurk/MX_fS_HTML.html#276,276,1536,730,1536,864,1-8-2024,14-47-16,42,VR_target_stimuli/s18_1.3x_2.25_368.png,1000,1.3x,2.25,2.0,3641,1007,meters,jsons/MX_seq44_1_VE1000.json,339547,660741,30,Woman
42,974388,final-intermixed-textured,v2,jsons/MX_seq44_1_VE1000.json,http://54.235.29.9/FacialAge/BNav_EC2/DepthDuration/MX_fS_VE_MTurk/MX_fS_HTML.html#276,276,1536,730,1536,864,1-8-2024,14-47-16,43,VR_target_stimuli/s39_0.75x_1_205_BC.png,1000,0.75x,1.0,1.0,3679,1007,meters,jsons/MX_seq44_1_VE1000.json,339547,660741,30,Woman
43,974388,final-intermixed-textured,v2,jsons/MX_seq44_1_VE1000.json,http://54.235.29.9/FacialAge/BNav_EC2/DepthDuration/MX_fS_VE_MTurk/MX_fS_HTML.html#276,276,1536,730,1536,864,1-8-2024,14-47-16,44,VR_target_stimuli/s51_1.3x_3.64_479_BC.png,1000,1.3x,3.64,1.5,5965,1009,meters,jsons/MX_seq44_1_VE1000.json,339547,660741,30,Woman
44,974388,final-intermixed-textured,v2,jsons/MX_seq44_1_VE1000.json,http://54.235.29.9/FacialAge/BNav_EC2/DepthDuration/MX_fS_VE_MTurk/MX_fS_HTML.html#276,276,1536,730,1536,864,1-8-2024,14-47-16,45,catch_stimuli/c4.png,1000,,,0.0,3557,988,meters,jsons/MX_seq44_1_VE1000.json,339547,660741,30,Woman
45,974388,final-intermixed-textured,v2,jsons/MX_seq44_1_VE1000.json,http://54.235.29.9/FacialAge/BNav_EC2/DepthDuration/MX_fS_VE_MTurk/MX_fS_HTML.html#276,276,1536,730,1536,864,1-8-2024,14-47-16,46,VR_target_stimuli/s43_1x_2.2_354_BC.png,1000,1x,2.2,2.0,4755,1008,meters,jsons/MX_seq44_1_VE1000.json,339547,660741,30,Woman
46,974388,final-intermixed-textured,v2,jsons/MX_seq44_1_VE1000.json,http://54.235.29.9/FacialAge/BNav_EC2/DepthDuration/MX_fS_VE_MTurk/MX_fS_HTML.html#276,276,1536,730,1536,864,1-8-2024,14-47-16,47,VR_target_stimuli/s24_0.75x_3.3_344.png,1000,0.75x,3.3,3.0,4455,996,meters,jsons/MX_seq44_1_VE1000.json,339547,660741,30,Woman
47,974388,final-intermixed-textured,v2,jsons/MX_seq44_1_VE1000.json,http://54.235.29.9/FacialAge/BNav_EC2/DepthDuration/MX_fS_VE_MTurk/MX_fS_HTML.html#276,276,1536,730,1536,864,1-8-2024,14-47-16,48,VR_target_stimuli/s10_0.75x_2.7_321_BC.png,1000,0.75x,2.7,2.0,7914,1006,meters,jsons/MX_seq44_1_VE1000.json,339547,660741,30,Woman
48,974388,final-intermixed-textured,v2,jsons/MX_seq44_1_VE1000.json,http://54.235.29.9/FacialAge/BNav_EC2/DepthDuration/MX_fS_VE_MTurk/MX_fS_HTML.html#276,276,1536,730,1536,864,1-8-2024,14-47-16,49,VR_target_stimuli/s36_1.3x_4.1_442.png,1000,1.3x,4.1,2.5,5765,999,meters,jsons/MX_seq44_1_VE1000.json,339547,660741,30,Woman
49,974388,final-intermixed-textured,v2,jsons/MX_seq44_1_VE1000.json,http://54.235.29.9/FacialAge/BNav_EC2/DepthDuration/MX_fS_VE_MTurk/MX_fS_HTML.html#276,276,1536,730,1536,864,1-8-2024,14-47-16,50,VR_target_stimuli/s40_1x_1.2_319_BC.png,1000,1x,1.2,1.0,3319,1006,meters,jsons/MX_seq44_1_VE1000.json,339547,660741,30,Woman
50,974388,final-intermixed-textured,v2,jsons/MX_seq44_1_VE1000.json,http://54.235.29.9/FacialAge/BNav_EC2/DepthDuration/MX_fS_VE_MTurk/MX_fS_HTML.html#276,276,1536,730,1536,864,1-8-2024,14-47-16,51,VR_target_stimuli/s41_1.3x_2.1_294_BC.png,1000,1.3x,2.1,1.7,4604,1007,meters,jsons/MX_seq44_1_VE1000.json,339547,660741,30,Woman
51,974388,final-intermixed-textured,v2,jsons/MX_seq44_1_VE1000.json,http://54.235.29.9/FacialAge/BNav_EC2/DepthDuration/MX_fS_VE_MTurk/MX_fS_HTML.html#276,276,1536,730,1536,864,1-8-2024,14-47-16,52,VR_target_stimuli/s45_0.75x_3.5_362.png,1000,0.75x,3.5,2.0,4040,1003,meters,jsons/MX_seq44_1_VE1000.json,339547,660741,30,Woman
52,974388,final-intermixed-textured,v2,jsons/MX_seq44_1_VE1000.json,http://54.235.29.9/FacialAge/BNav_EC2/DepthDuration/MX_fS_VE_MTurk/MX_fS_HTML.html#276,276,1536,730,1536,864,1-8-2024,14-47-16,53,catch_stimuli/c5.png,1000,,,0.0,3796,1006,meters,jsons/MX_seq44_1_VE1000.json,339547,660741,30,Woman
53,974388,final-intermixed-textured,v2,jsons/MX_seq44_1_VE1000.json,http://54.235.29.9/FacialAge/BNav_EC2/DepthDuration/MX_fS_VE_MTurk/MX_fS_HTML.html#276,276,1536,730,1536,864,1-8-2024,14-47-16,54,VR_target_stimuli/s23_1x_3.65_353.png,1000,1x,3.65,2.0,5323,1002,meters,jsons/MX_seq44_1_VE1000.json,339547,660741,30,Woman
54,974388,final-intermixed-textured,v2,jsons/MX_seq44_1_VE1000.json,http://54.235.29.9/FacialAge/BNav_EC2/DepthDuration/MX_fS_VE_MTurk/MX_fS_HTML.html#276,276,1536,730,1536,864,1-8-2024,14-47-16,55,VR_target_stimuli/s26_0.75x_4_430_BC.png,1000,0.75x,4.0,2.0,3639,1003,meters,jsons/MX_seq44_1_VE1000.json,339547,660741,30,Woman
55,974388,final-intermixed-textured,v2,jsons/MX_seq44_1_VE1000.json,http://54.235.29.9/FacialAge/BNav_EC2/DepthDuration/MX_fS_VE_MTurk/MX_fS_HTML.html#276,276,1536,730,1536,864,1-8-2024,14-47-16,56,VR_target_stimuli/s12_1.3x_3.1_375_BC.png,1000,1.3x,3.1,2.5,4727,1004,meters,jsons/MX_seq44_1_VE1000.json,339547,660741,30,Woman
56,974388,final-intermixed-textured,v2,jsons/MX_seq44_1_VE1000.json,http://54.235.29.9/FacialAge/BNav_EC2/DepthDuration/MX_fS_VE_MTurk/MX_fS_HTML.html#276,276,1536,730,1536,864,1-8-2024,14-47-16,57,VR_target_stimuli/s30_1x_2.3_334_BC.png,1000,1x,2.3,2.0,3614,1005,meters,jsons/MX_seq44_1_VE1000.json,339547,660741,30,Woman
57,974388,final-intermixed-textured,v2,jsons/MX_seq44_1_VE1000.json,http://54.235.29.9/FacialAge/BNav_EC2/DepthDuration/MX_fS_VE_MTurk/MX_fS_HTML.html#276,276,1536,730,1536,864,1-8-2024,14-47-16,58,VR_target_stimuli/s16_1x_1_219.png,1000,1x,1.0,1.6,4953,1002,meters,jsons/MX_seq44_1_VE1000.json,339547,660741,30,Woman
58,974388,final-intermixed-textured,v2,jsons/MX_seq44_1_VE1000.json,http://54.235.29.9/FacialAge/BNav_EC2/DepthDuration/MX_fS_VE_MTurk/MX_fS_HTML.html#276,276,1536,730,1536,864,1-8-2024,14-47-16,59,VR_target_stimuli/s17_0.75x_1.8_285.png,1000,0.75x,1.8,1.6,6372,1005,meters,jsons/MX_seq44_1_VE1000.json,339547,660741,30,Woman
59,974388,final-intermixed-textured,v2,jsons/MX_seq44_1_VE1000.json,http://54.235.29.9/FacialAge/BNav_EC2/DepthDuration/MX_fS_VE_MTurk/MX_fS_HTML.html#276,276,1536,730,1536,864,1-8-2024,14-47-16,60,VR_target_stimuli/s5_1.3x_4_393.png,1000,1.3x,4.0,2.5,4985,1010,meters,jsons/MX_seq44_1_VE1000.json,339547,660741,30,Woman
