,subjID,experimentName,versionName,sequenceName,url,selected_row,windowWidth,windowHeight,screenWidth,screenHeight,startDate,startTime,trial,stimulus,duration,scale,actual_depth,depth_estimate,trial_RT,log_sceneDuration,unitSelection,seq_filepath,experimentTime,totalTime,age,gender
0,978356,final-intermixed-textured,v2,jsons/MX_seq47_2_VE1000_flipped.json,http://54.235.29.9/FacialAge/BNav_EC2/DepthDuration/MX_fS_VE_MTurk/MX_fS_HTML.html#247,247,1528,838,1536,960,1-8-2024,8-46-46,1,VR_target_stimuli/s42_1x_3.2_303_BC.png,1000,1x,3.2,8,6507,1006,feet,jsons/MX_seq47_2_VE1000_flipped.json,300674,406968,41,Woman
1,978356,final-intermixed-textured,v2,jsons/MX_seq47_2_VE1000_flipped.json,http://54.235.29.9/FacialAge/BNav_EC2/DepthDuration/MX_fS_VE_MTurk/MX_fS_HTML.html#247,247,1528,838,1536,960,1-8-2024,8-46-46,2,VR_target_stimuli/s25_1.3x_1.4_299_BC.png,1000,1.3x,1.4,8,5078,999,feet,jsons/MX_seq47_2_VE1000_flipped.json,300674,406968,41,Woman
2,978356,final-intermixed-textured,v2,jsons/MX_seq47_2_VE1000_flipped.json,http://54.235.29.9/FacialAge/BNav_EC2/DepthDuration/MX_fS_VE_MTurk/MX_fS_HTML.html#247,247,1528,838,1536,960,1-8-2024,8-46-46,3,VR_target_stimuli/s50_0.75x_4.53_517.png,1000,0.75x,4.53,9,5942,1006,feet,jsons/MX_seq47_2_VE1000_flipped.json,300674,406968,41,Woman
3,978356,final-intermixed-textured,v2,jsons/MX_seq47_2_VE1000_flipped.json,http://54.235.29.9/FacialAge/BNav_EC2/DepthDuration/MX_fS_VE_MTurk/MX_fS_HTML.html#247,247,1528,838,1536,960,1-8-2024,8-46-46,4,VR_target_stimuli/s53_1.3x_1.6_355.png,1000,1.3x,1.6,4,4695,1001,feet,jsons/MX_seq47_2_VE1000_flipped.json,300674,406968,41,Woman
4,978356,final-intermixed-textured,v2,jsons/MX_seq47_2_VE1000_flipped.json,http://54.235.29.9/FacialAge/BNav_EC2/DepthDuration/MX_fS_VE_MTurk/MX_fS_HTML.html#247,247,1528,838,1536,960,1-8-2024,8-46-46,5,VR_target_stimuli/s38_1x_3.55_353.png,1000,1x,3.55,8,4910,1002,feet,jsons/MX_seq47_2_VE1000_flipped.json,300674,406968,41,Woman
5,978356,final-intermixed-textured,v2,jsons/MX_seq47_2_VE1000_flipped.json,http://54.235.29.9/FacialAge/BNav_EC2/DepthDuration/MX_fS_VE_MTurk/MX_fS_HTML.html#247,247,1528,838,1536,960,1-8-2024,8-46-46,6,VR_target_stimuli/s9_0.75x_1.2_260_BC.png,1000,0.75x,1.2,4,4512,1007,feet,jsons/MX_seq47_2_VE1000_flipped.json,300674,406968,41,Woman
6,978356,final-intermixed-textured,v2,jsons/MX_seq47_2_VE1000_flipped.json,http://54.235.29.9/FacialAge/BNav_EC2/DepthDuration/MX_fS_VE_MTurk/MX_fS_HTML.html#247,247,1528,838,1536,960,1-8-2024,8-46-46,7,catch_stimuli/c0_BC.png,1000,,,0,4926,995,feet,jsons/MX_seq47_2_VE1000_flipped.json,300674,406968,41,Woman
7,978356,final-intermixed-textured,v2,jsons/MX_seq47_2_VE1000_flipped.json,http://54.235.29.9/FacialAge/BNav_EC2/DepthDuration/MX_fS_VE_MTurk/MX_fS_HTML.html#247,247,1528,838,1536,960,1-8-2024,8-46-46,8,VR_target_stimuli/s44_0.75x_4.4_314_BC.png,1000,0.75x,4.4,7,4953,999,feet,jsons/MX_seq47_2_VE1000_flipped.json,300674,406968,41,Woman
8,978356,final-intermixed-textured,v2,jsons/MX_seq47_2_VE1000_flipped.json,http://54.235.29.9/FacialAge/BNav_EC2/DepthDuration/MX_fS_VE_MTurk/MX_fS_HTML.html#247,247,1528,838,1536,960,1-8-2024,8-46-46,9,VR_target_stimuli/s3_1.3x_5_390_BC.png,1000,1.3x,5.0,8,4519,997,feet,jsons/MX_seq47_2_VE1000_flipped.json,300674,406968,41,Woman
9,978356,final-intermixed-textured,v2,jsons/MX_seq47_2_VE1000_flipped.json,http://54.235.29.9/FacialAge/BNav_EC2/DepthDuration/MX_fS_VE_MTurk/MX_fS_HTML.html#247,247,1528,838,1536,960,1-8-2024,8-46-46,10,VR_target_stimuli/s1_1x_1.7_262_BC.png,1000,1x,1.7,5,4382,1010,feet,jsons/MX_seq47_2_VE1000_flipped.json,300674,406968,41,Woman
10,978356,final-intermixed-textured,v2,jsons/MX_seq47_2_VE1000_flipped.json,http://54.235.29.9/FacialAge/BNav_EC2/DepthDuration/MX_fS_VE_MTurk/MX_fS_HTML.html#247,247,1528,838,1536,960,1-8-2024,8-46-46,11,VR_target_stimuli/s11_1.3x_5_363.png,1000,1.3x,5.0,8,4755,1002,feet,jsons/MX_seq47_2_VE1000_flipped.json,300674,406968,41,Woman
11,978356,final-intermixed-textured,v2,jsons/MX_seq47_2_VE1000_flipped.json,http://54.235.29.9/FacialAge/BNav_EC2/DepthDuration/MX_fS_VE_MTurk/MX_fS_HTML.html#247,247,1528,838,1536,960,1-8-2024,8-46-46,12,VR_target_stimuli/s2_0.75x_2.7_384.png,1000,0.75x,2.7,6,4382,1006,feet,jsons/MX_seq47_2_VE1000_flipped.json,300674,406968,41,Woman
12,978356,final-intermixed-textured,v2,jsons/MX_seq47_2_VE1000_flipped.json,http://54.235.29.9/FacialAge/BNav_EC2/DepthDuration/MX_fS_VE_MTurk/MX_fS_HTML.html#247,247,1528,838,1536,960,1-8-2024,8-46-46,13,VR_target_stimuli/s6_1x_2.1_293.png,1000,1x,2.1,5,4141,988,feet,jsons/MX_seq47_2_VE1000_flipped.json,300674,406968,41,Woman
13,978356,final-intermixed-textured,v2,jsons/MX_seq47_2_VE1000_flipped.json,http://54.235.29.9/FacialAge/BNav_EC2/DepthDuration/MX_fS_VE_MTurk/MX_fS_HTML.html#247,247,1528,838,1536,960,1-8-2024,8-46-46,14,VR_target_stimuli/s0_0.75x_2.6_345_BC.png,1000,0.75x,2.6,7,5138,1005,feet,jsons/MX_seq47_2_VE1000_flipped.json,300674,406968,41,Woman
14,978356,final-intermixed-textured,v2,jsons/MX_seq47_2_VE1000_flipped.json,http://54.235.29.9/FacialAge/BNav_EC2/DepthDuration/MX_fS_VE_MTurk/MX_fS_HTML.html#247,247,1528,838,1536,960,1-8-2024,8-46-46,15,VR_target_stimuli/s34_1.3x_2.8_294.png,1000,1.3x,2.8,6,4429,992,feet,jsons/MX_seq47_2_VE1000_flipped.json,300674,406968,41,Woman
15,978356,final-intermixed-textured,v2,jsons/MX_seq47_2_VE1000_flipped.json,http://54.235.29.9/FacialAge/BNav_EC2/DepthDuration/MX_fS_VE_MTurk/MX_fS_HTML.html#247,247,1528,838,1536,960,1-8-2024,8-46-46,16,VR_target_stimuli/s13_1x_2.4_310.png,1000,1x,2.4,6,4126,1007,feet,jsons/MX_seq47_2_VE1000_flipped.json,300674,406968,41,Woman
16,978356,final-intermixed-textured,v2,jsons/MX_seq47_2_VE1000_flipped.json,http://54.235.29.9/FacialAge/BNav_EC2/DepthDuration/MX_fS_VE_MTurk/MX_fS_HTML.html#247,247,1528,838,1536,960,1-8-2024,8-46-46,17,catch_stimuli/c1_BC.png,1000,,,0,4038,1010,feet,jsons/MX_seq47_2_VE1000_flipped.json,300674,406968,41,Woman
17,978356,final-intermixed-textured,v2,jsons/MX_seq47_2_VE1000_flipped.json,http://54.235.29.9/FacialAge/BNav_EC2/DepthDuration/MX_fS_VE_MTurk/MX_fS_HTML.html#247,247,1528,838,1536,960,1-8-2024,8-46-46,18,VR_target_stimuli/s14_1x_ 3.83_357_BC.png,1000,1x,3.83,6,4555,988,feet,jsons/MX_seq47_2_VE1000_flipped.json,300674,406968,41,Woman
18,978356,final-intermixed-textured,v2,jsons/MX_seq47_2_VE1000_flipped.json,http://54.235.29.9/FacialAge/BNav_EC2/DepthDuration/MX_fS_VE_MTurk/MX_fS_HTML.html#247,247,1528,838,1536,960,1-8-2024,8-46-46,19,VR_target_stimuli/s47_0.75x_3.45_366.png,1000,0.75x,3.45,6,4184,1003,feet,jsons/MX_seq47_2_VE1000_flipped.json,300674,406968,41,Woman
19,978356,final-intermixed-textured,v2,jsons/MX_seq47_2_VE1000_flipped.json,http://54.235.29.9/FacialAge/BNav_EC2/DepthDuration/MX_fS_VE_MTurk/MX_fS_HTML.html#247,247,1528,838,1536,960,1-8-2024,8-46-46,20,VR_target_stimuli/s29_1.3x_1.3_253_BC.png,1000,1.3x,1.3,4,4793,1014,feet,jsons/MX_seq47_2_VE1000_flipped.json,300674,406968,41,Woman
20,978356,final-intermixed-textured,v2,jsons/MX_seq47_2_VE1000_flipped.json,http://54.235.29.9/FacialAge/BNav_EC2/DepthDuration/MX_fS_VE_MTurk/MX_fS_HTML.html#247,247,1528,838,1536,960,1-8-2024,8-46-46,21,VR_target_stimuli/s28_0.75x_3.2_357.png,1000,0.75x,3.2,6,4628,998,feet,jsons/MX_seq47_2_VE1000_flipped.json,300674,406968,41,Woman
21,978356,final-intermixed-textured,v2,jsons/MX_seq47_2_VE1000_flipped.json,http://54.235.29.9/FacialAge/BNav_EC2/DepthDuration/MX_fS_VE_MTurk/MX_fS_HTML.html#247,247,1528,838,1536,960,1-8-2024,8-46-46,22,VR_target_stimuli/s48_1x_2.55_256_BC.png,1000,1x,2.55,5,4513,1004,feet,jsons/MX_seq47_2_VE1000_flipped.json,300674,406968,41,Woman
22,978356,final-intermixed-textured,v2,jsons/MX_seq47_2_VE1000_flipped.json,http://54.235.29.9/FacialAge/BNav_EC2/DepthDuration/MX_fS_VE_MTurk/MX_fS_HTML.html#247,247,1528,838,1536,960,1-8-2024,8-46-46,23,VR_target_stimuli/s19_1.3x_1.21_270_BC.png,1000,1.3x,1.21,4,4595,1004,feet,jsons/MX_seq47_2_VE1000_flipped.json,300674,406968,41,Woman
23,978356,final-intermixed-textured,v2,jsons/MX_seq47_2_VE1000_flipped.json,http://54.235.29.9/FacialAge/BNav_EC2/DepthDuration/MX_fS_VE_MTurk/MX_fS_HTML.html#247,247,1528,838,1536,960,1-8-2024,8-46-46,24,VR_target_stimuli/s21_1x_4.22_379.png,1000,1x,4.22,10,4292,1004,feet,jsons/MX_seq47_2_VE1000_flipped.json,300674,406968,41,Woman
24,978356,final-intermixed-textured,v2,jsons/MX_seq47_2_VE1000_flipped.json,http://54.235.29.9/FacialAge/BNav_EC2/DepthDuration/MX_fS_VE_MTurk/MX_fS_HTML.html#247,247,1528,838,1536,960,1-8-2024,8-46-46,25,VR_target_stimuli/s8_0.75x_3.1_325_BC.png,1000,0.75x,3.1,7,4644,999,feet,jsons/MX_seq47_2_VE1000_flipped.json,300674,406968,41,Woman
25,978356,final-intermixed-textured,v2,jsons/MX_seq47_2_VE1000_flipped.json,http://54.235.29.9/FacialAge/BNav_EC2/DepthDuration/MX_fS_VE_MTurk/MX_fS_HTML.html#247,247,1528,838,1536,960,1-8-2024,8-46-46,26,catch_stimuli/c2_BC.png,1000,,,0,4426,1005,feet,jsons/MX_seq47_2_VE1000_flipped.json,300674,406968,41,Woman
26,978356,final-intermixed-textured,v2,jsons/MX_seq47_2_VE1000_flipped.json,http://54.235.29.9/FacialAge/BNav_EC2/DepthDuration/MX_fS_VE_MTurk/MX_fS_HTML.html#247,247,1528,838,1536,960,1-8-2024,8-46-46,27,VR_target_stimuli/s27_1.3x_1.76_250.png,1000,1.3x,1.76,4,4136,982,feet,jsons/MX_seq47_2_VE1000_flipped.json,300674,406968,41,Woman
27,978356,final-intermixed-textured,v2,jsons/MX_seq47_2_VE1000_flipped.json,http://54.235.29.9/FacialAge/BNav_EC2/DepthDuration/MX_fS_VE_MTurk/MX_fS_HTML.html#247,247,1528,838,1536,960,1-8-2024,8-46-46,28,VR_target_stimuli/s15_1.3x_4.2_389.png,1000,1.3x,4.2,8,4687,1001,feet,jsons/MX_seq47_2_VE1000_flipped.json,300674,406968,41,Woman
28,978356,final-intermixed-textured,v2,jsons/MX_seq47_2_VE1000_flipped.json,http://54.235.29.9/FacialAge/BNav_EC2/DepthDuration/MX_fS_VE_MTurk/MX_fS_HTML.html#247,247,1528,838,1536,960,1-8-2024,8-46-46,29,VR_target_stimuli/s4_1x_1.4_313.png,1000,1x,1.4,5,4205,1006,feet,jsons/MX_seq47_2_VE1000_flipped.json,300674,406968,41,Woman
29,978356,final-intermixed-textured,v2,jsons/MX_seq47_2_VE1000_flipped.json,http://54.235.29.9/FacialAge/BNav_EC2/DepthDuration/MX_fS_VE_MTurk/MX_fS_HTML.html#247,247,1528,838,1536,960,1-8-2024,8-46-46,30,VR_target_stimuli/s35_0.75x_2_323.png,1000,0.75x,2.0,6,4198,976,feet,jsons/MX_seq47_2_VE1000_flipped.json,300674,406968,41,Woman
30,978356,final-intermixed-textured,v2,jsons/MX_seq47_2_VE1000_flipped.json,http://54.235.29.9/FacialAge/BNav_EC2/DepthDuration/MX_fS_VE_MTurk/MX_fS_HTML.html#247,247,1528,838,1536,960,1-8-2024,8-46-46,31,VR_target_stimuli/s49_1.3x_4.67_354_BC.png,1000,1.3x,4.67,7,4649,1006,feet,jsons/MX_seq47_2_VE1000_flipped.json,300674,406968,41,Woman
31,978356,final-intermixed-textured,v2,jsons/MX_seq47_2_VE1000_flipped.json,http://54.235.29.9/FacialAge/BNav_EC2/DepthDuration/MX_fS_VE_MTurk/MX_fS_HTML.html#247,247,1528,838,1536,960,1-8-2024,8-46-46,32,VR_target_stimuli/s7_0.75x_1.5_253_BC.png,1000,0.75x,1.5,4,4049,1008,feet,jsons/MX_seq47_2_VE1000_flipped.json,300674,406968,41,Woman
32,978356,final-intermixed-textured,v2,jsons/MX_seq47_2_VE1000_flipped.json,http://54.235.29.9/FacialAge/BNav_EC2/DepthDuration/MX_fS_VE_MTurk/MX_fS_HTML.html#247,247,1528,838,1536,960,1-8-2024,8-46-46,33,VR_target_stimuli/s20_1x_4.99_398_BC.png,1000,1x,4.99,7,4476,997,feet,jsons/MX_seq47_2_VE1000_flipped.json,300674,406968,41,Woman
33,978356,final-intermixed-textured,v2,jsons/MX_seq47_2_VE1000_flipped.json,http://54.235.29.9/FacialAge/BNav_EC2/DepthDuration/MX_fS_VE_MTurk/MX_fS_HTML.html#247,247,1528,838,1536,960,1-8-2024,8-46-46,34,catch_stimuli/c3_BC.png,1000,,,0,4082,997,feet,jsons/MX_seq47_2_VE1000_flipped.json,300674,406968,41,Woman
34,978356,final-intermixed-textured,v2,jsons/MX_seq47_2_VE1000_flipped.json,http://54.235.29.9/FacialAge/BNav_EC2/DepthDuration/MX_fS_VE_MTurk/MX_fS_HTML.html#247,247,1528,838,1536,960,1-8-2024,8-46-46,35,VR_target_stimuli/s31_0.75x_4.96_329.png,1000,0.75x,4.96,7,4292,1027,feet,jsons/MX_seq47_2_VE1000_flipped.json,300674,406968,41,Woman
35,978356,final-intermixed-textured,v2,jsons/MX_seq47_2_VE1000_flipped.json,http://54.235.29.9/FacialAge/BNav_EC2/DepthDuration/MX_fS_VE_MTurk/MX_fS_HTML.html#247,247,1528,838,1536,960,1-8-2024,8-46-46,36,VR_target_stimuli/s33_1.3x_3.1_378_BC.png,1000,1.3x,3.1,6,4215,991,feet,jsons/MX_seq47_2_VE1000_flipped.json,300674,406968,41,Woman
36,978356,final-intermixed-textured,v2,jsons/MX_seq47_2_VE1000_flipped.json,http://54.235.29.9/FacialAge/BNav_EC2/DepthDuration/MX_fS_VE_MTurk/MX_fS_HTML.html#247,247,1528,838,1536,960,1-8-2024,8-46-46,37,VR_target_stimuli/s52_1x_3.2_275.png,1000,1x,3.2,9,4356,998,feet,jsons/MX_seq47_2_VE1000_flipped.json,300674,406968,41,Woman
37,978356,final-intermixed-textured,v2,jsons/MX_seq47_2_VE1000_flipped.json,http://54.235.29.9/FacialAge/BNav_EC2/DepthDuration/MX_fS_VE_MTurk/MX_fS_HTML.html#247,247,1528,838,1536,960,1-8-2024,8-46-46,38,VR_target_stimuli/s32_1x_1.5_218_BC.png,1000,1x,1.5,7,4557,989,feet,jsons/MX_seq47_2_VE1000_flipped.json,300674,406968,41,Woman
38,978356,final-intermixed-textured,v2,jsons/MX_seq47_2_VE1000_flipped.json,http://54.235.29.9/FacialAge/BNav_EC2/DepthDuration/MX_fS_VE_MTurk/MX_fS_HTML.html#247,247,1528,838,1536,960,1-8-2024,8-46-46,39,VR_target_stimuli/s18_0.75x_2.25_341_BC.png,1000,0.75x,2.25,6,4238,1003,feet,jsons/MX_seq47_2_VE1000_flipped.json,300674,406968,41,Woman
39,978356,final-intermixed-textured,v2,jsons/MX_seq47_2_VE1000_flipped.json,http://54.235.29.9/FacialAge/BNav_EC2/DepthDuration/MX_fS_VE_MTurk/MX_fS_HTML.html#247,247,1528,838,1536,960,1-8-2024,8-46-46,40,VR_target_stimuli/s39_1.3x_1_208.png,1000,1.3x,1.0,4,4599,1029,feet,jsons/MX_seq47_2_VE1000_flipped.json,300674,406968,41,Woman
40,978356,final-intermixed-textured,v2,jsons/MX_seq47_2_VE1000_flipped.json,http://54.235.29.9/FacialAge/BNav_EC2/DepthDuration/MX_fS_VE_MTurk/MX_fS_HTML.html#247,247,1528,838,1536,960,1-8-2024,8-46-46,41,VR_target_stimuli/s51_0.75x_3.64_460.png,1000,0.75x,3.64,6,4146,1004,feet,jsons/MX_seq47_2_VE1000_flipped.json,300674,406968,41,Woman
41,978356,final-intermixed-textured,v2,jsons/MX_seq47_2_VE1000_flipped.json,http://54.235.29.9/FacialAge/BNav_EC2/DepthDuration/MX_fS_VE_MTurk/MX_fS_HTML.html#247,247,1528,838,1536,960,1-8-2024,8-46-46,42,VR_target_stimuli/s43_1x_2.2_354_BC.png,1000,1x,2.2,7,4314,990,feet,jsons/MX_seq47_2_VE1000_flipped.json,300674,406968,41,Woman
42,978356,final-intermixed-textured,v2,jsons/MX_seq47_2_VE1000_flipped.json,http://54.235.29.9/FacialAge/BNav_EC2/DepthDuration/MX_fS_VE_MTurk/MX_fS_HTML.html#247,247,1528,838,1536,960,1-8-2024,8-46-46,43,VR_target_stimuli/s24_1.3x_3.3_352.png,1000,1.3x,3.3,8,4333,998,feet,jsons/MX_seq47_2_VE1000_flipped.json,300674,406968,41,Woman
43,978356,final-intermixed-textured,v2,jsons/MX_seq47_2_VE1000_flipped.json,http://54.235.29.9/FacialAge/BNav_EC2/DepthDuration/MX_fS_VE_MTurk/MX_fS_HTML.html#247,247,1528,838,1536,960,1-8-2024,8-46-46,44,VR_target_stimuli/s10_1x_2.7_324.png,1000,1x,2.7,7,5565,1010,feet,jsons/MX_seq47_2_VE1000_flipped.json,300674,406968,41,Woman
44,978356,final-intermixed-textured,v2,jsons/MX_seq47_2_VE1000_flipped.json,http://54.235.29.9/FacialAge/BNav_EC2/DepthDuration/MX_fS_VE_MTurk/MX_fS_HTML.html#247,247,1528,838,1536,960,1-8-2024,8-46-46,45,catch_stimuli/c4_BC.png,1000,,,0,4320,993,feet,jsons/MX_seq47_2_VE1000_flipped.json,300674,406968,41,Woman
45,978356,final-intermixed-textured,v2,jsons/MX_seq47_2_VE1000_flipped.json,http://54.235.29.9/FacialAge/BNav_EC2/DepthDuration/MX_fS_VE_MTurk/MX_fS_HTML.html#247,247,1528,838,1536,960,1-8-2024,8-46-46,46,VR_target_stimuli/s36_0.75x_4.1_407_BC.png,1000,0.75x,4.1,7,4621,1012,feet,jsons/MX_seq47_2_VE1000_flipped.json,300674,406968,41,Woman
46,978356,final-intermixed-textured,v2,jsons/MX_seq47_2_VE1000_flipped.json,http://54.235.29.9/FacialAge/BNav_EC2/DepthDuration/MX_fS_VE_MTurk/MX_fS_HTML.html#247,247,1528,838,1536,960,1-8-2024,8-46-46,47,VR_target_stimuli/s40_1.3x_1.2_332_BC.png,1000,1.3x,1.2,3,4123,1002,feet,jsons/MX_seq47_2_VE1000_flipped.json,300674,406968,41,Woman
47,978356,final-intermixed-textured,v2,jsons/MX_seq47_2_VE1000_flipped.json,http://54.235.29.9/FacialAge/BNav_EC2/DepthDuration/MX_fS_VE_MTurk/MX_fS_HTML.html#247,247,1528,838,1536,960,1-8-2024,8-46-46,48,VR_target_stimuli/s41_1.3x_2.1_294_BC.png,1000,1.3x,2.1,5,4053,1001,feet,jsons/MX_seq47_2_VE1000_flipped.json,300674,406968,41,Woman
48,978356,final-intermixed-textured,v2,jsons/MX_seq47_2_VE1000_flipped.json,http://54.235.29.9/FacialAge/BNav_EC2/DepthDuration/MX_fS_VE_MTurk/MX_fS_HTML.html#247,247,1528,838,1536,960,1-8-2024,8-46-46,49,VR_target_stimuli/s45_1x_3.5_368_BC.png,1000,1x,3.5,6,4371,997,feet,jsons/MX_seq47_2_VE1000_flipped.json,300674,406968,41,Woman
49,978356,final-intermixed-textured,v2,jsons/MX_seq47_2_VE1000_flipped.json,http://54.235.29.9/FacialAge/BNav_EC2/DepthDuration/MX_fS_VE_MTurk/MX_fS_HTML.html#247,247,1528,838,1536,960,1-8-2024,8-46-46,50,VR_target_stimuli/s23_0.75x_3.65_351.png,1000,0.75x,3.65,6,4317,1018,feet,jsons/MX_seq47_2_VE1000_flipped.json,300674,406968,41,Woman
50,978356,final-intermixed-textured,v2,jsons/MX_seq47_2_VE1000_flipped.json,http://54.235.29.9/FacialAge/BNav_EC2/DepthDuration/MX_fS_VE_MTurk/MX_fS_HTML.html#247,247,1528,838,1536,960,1-8-2024,8-46-46,51,VR_target_stimuli/s26_1x_4_433.png,1000,1x,4.0,7,4098,993,feet,jsons/MX_seq47_2_VE1000_flipped.json,300674,406968,41,Woman
51,978356,final-intermixed-textured,v2,jsons/MX_seq47_2_VE1000_flipped.json,http://54.235.29.9/FacialAge/BNav_EC2/DepthDuration/MX_fS_VE_MTurk/MX_fS_HTML.html#247,247,1528,838,1536,960,1-8-2024,8-46-46,52,VR_target_stimuli/s12_1.3x_3.1_375.png,1000,1.3x,3.1,6,4577,983,feet,jsons/MX_seq47_2_VE1000_flipped.json,300674,406968,41,Woman
52,978356,final-intermixed-textured,v2,jsons/MX_seq47_2_VE1000_flipped.json,http://54.235.29.9/FacialAge/BNav_EC2/DepthDuration/MX_fS_VE_MTurk/MX_fS_HTML.html#247,247,1528,838,1536,960,1-8-2024,8-46-46,53,catch_stimuli/c5_BC.png,1000,,,0,4223,1003,feet,jsons/MX_seq47_2_VE1000_flipped.json,300674,406968,41,Woman
53,978356,final-intermixed-textured,v2,jsons/MX_seq47_2_VE1000_flipped.json,http://54.235.29.9/FacialAge/BNav_EC2/DepthDuration/MX_fS_VE_MTurk/MX_fS_HTML.html#247,247,1528,838,1536,960,1-8-2024,8-46-46,54,VR_target_stimuli/s30_0.75x_2.3_332_BC.png,1000,0.75x,2.3,5,4383,1000,feet,jsons/MX_seq47_2_VE1000_flipped.json,300674,406968,41,Woman
54,978356,final-intermixed-textured,v2,jsons/MX_seq47_2_VE1000_flipped.json,http://54.235.29.9/FacialAge/BNav_EC2/DepthDuration/MX_fS_VE_MTurk/MX_fS_HTML.html#247,247,1528,838,1536,960,1-8-2024,8-46-46,55,VR_target_stimuli/s16_1.3x_1_223_BC.png,1000,1.3x,1.0,3,4064,1015,feet,jsons/MX_seq47_2_VE1000_flipped.json,300674,406968,41,Woman
55,978356,final-intermixed-textured,v2,jsons/MX_seq47_2_VE1000_flipped.json,http://54.235.29.9/FacialAge/BNav_EC2/DepthDuration/MX_fS_VE_MTurk/MX_fS_HTML.html#247,247,1528,838,1536,960,1-8-2024,8-46-46,56,VR_target_stimuli/s17_1x_1.8_291_BC.png,1000,1x,1.8,4,4314,1002,feet,jsons/MX_seq47_2_VE1000_flipped.json,300674,406968,41,Woman
56,978356,final-intermixed-textured,v2,jsons/MX_seq47_2_VE1000_flipped.json,http://54.235.29.9/FacialAge/BNav_EC2/DepthDuration/MX_fS_VE_MTurk/MX_fS_HTML.html#247,247,1528,838,1536,960,1-8-2024,8-46-46,57,VR_target_stimuli/s5_0.75x_4_375.png,1000,0.75x,4.0,8,4506,1013,feet,jsons/MX_seq47_2_VE1000_flipped.json,300674,406968,41,Woman
57,978356,final-intermixed-textured,v2,jsons/MX_seq47_2_VE1000_flipped.json,http://54.235.29.9/FacialAge/BNav_EC2/DepthDuration/MX_fS_VE_MTurk/MX_fS_HTML.html#247,247,1528,838,1536,960,1-8-2024,8-46-46,58,VR_target_stimuli/s37_0.75x_3.3_567_BC.png,1000,0.75x,3.3,6,4275,995,feet,jsons/MX_seq47_2_VE1000_flipped.json,300674,406968,41,Woman
58,978356,final-intermixed-textured,v2,jsons/MX_seq47_2_VE1000_flipped.json,http://54.235.29.9/FacialAge/BNav_EC2/DepthDuration/MX_fS_VE_MTurk/MX_fS_HTML.html#247,247,1528,838,1536,960,1-8-2024,8-46-46,59,VR_target_stimuli/s46_1.3x_2.42_354.png,1000,1.3x,2.42,6,4188,998,feet,jsons/MX_seq47_2_VE1000_flipped.json,300674,406968,41,Woman
59,978356,final-intermixed-textured,v2,jsons/MX_seq47_2_VE1000_flipped.json,http://54.235.29.9/FacialAge/BNav_EC2/DepthDuration/MX_fS_VE_MTurk/MX_fS_HTML.html#247,247,1528,838,1536,960,1-8-2024,8-46-46,60,VR_target_stimuli/s22_1x_4.29_354.png,1000,1x,4.29,10,4585,1027,feet,jsons/MX_seq47_2_VE1000_flipped.json,300674,406968,41,Woman
