,subjID,experimentName,versionName,sequenceName,url,selected_row,windowWidth,windowHeight,screenWidth,screenHeight,startDate,startTime,trial,stimulus,duration,scale,actual_depth,depth_estimate,trial_RT,log_sceneDuration,unitSelection,seq_filepath,experimentTime,totalTime,age,gender
0,986139,final-intermixed-textured,v2,jsons/MX_seq15_1_VE1000.json,http://54.235.29.9/FacialAge/BNav_EC2/DepthDuration/MX_fS_VE_MTurk/MX_fS_HTML.html#108,108,1920,1080,1920,1080,1-8-2024,14-58-23,1,VR_target_stimuli/s8_1.3x_3.1_345.png,1000,1.3x,3.1,8,5914,1007,meters,jsons/MX_seq15_1_VE1000.json,305670,457280,21,Man
1,986139,final-intermixed-textured,v2,jsons/MX_seq15_1_VE1000.json,http://54.235.29.9/FacialAge/BNav_EC2/DepthDuration/MX_fS_VE_MTurk/MX_fS_HTML.html#108,108,1920,1080,1920,1080,1-8-2024,14-58-23,2,VR_target_stimuli/s27_0.75x_1.76_243.png,1000,0.75x,1.76,9,5134,1013,meters,jsons/MX_seq15_1_VE1000.json,305670,457280,21,Man
2,986139,final-intermixed-textured,v2,jsons/MX_seq15_1_VE1000.json,http://54.235.29.9/FacialAge/BNav_EC2/DepthDuration/MX_fS_VE_MTurk/MX_fS_HTML.html#108,108,1920,1080,1920,1080,1-8-2024,14-58-23,3,VR_target_stimuli/s15_1x_4.2_390.png,1000,1x,4.2,10,4834,1010,meters,jsons/MX_seq15_1_VE1000.json,305670,457280,21,Man
3,986139,final-intermixed-textured,v2,jsons/MX_seq15_1_VE1000.json,http://54.235.29.9/FacialAge/BNav_EC2/DepthDuration/MX_fS_VE_MTurk/MX_fS_HTML.html#108,108,1920,1080,1920,1080,1-8-2024,14-58-23,4,VR_target_stimuli/s4_0.75x_1.4_301_BC.png,1000,0.75x,1.4,5,4551,995,meters,jsons/MX_seq15_1_VE1000.json,305670,457280,21,Man
4,986139,final-intermixed-textured,v2,jsons/MX_seq15_1_VE1000.json,http://54.235.29.9/FacialAge/BNav_EC2/DepthDuration/MX_fS_VE_MTurk/MX_fS_HTML.html#108,108,1920,1080,1920,1080,1-8-2024,14-58-23,5,VR_target_stimuli/s35_1.3x_2_338_BC.png,1000,1.3x,2.0,4,6009,1009,meters,jsons/MX_seq15_1_VE1000.json,305670,457280,21,Man
5,986139,final-intermixed-textured,v2,jsons/MX_seq15_1_VE1000.json,http://54.235.29.9/FacialAge/BNav_EC2/DepthDuration/MX_fS_VE_MTurk/MX_fS_HTML.html#108,108,1920,1080,1920,1080,1-8-2024,14-58-23,6,VR_target_stimuli/s49_1x_4.67_341_BC.png,1000,1x,4.67,7,5426,999,meters,jsons/MX_seq15_1_VE1000.json,305670,457280,21,Man
6,986139,final-intermixed-textured,v2,jsons/MX_seq15_1_VE1000.json,http://54.235.29.9/FacialAge/BNav_EC2/DepthDuration/MX_fS_VE_MTurk/MX_fS_HTML.html#108,108,1920,1080,1920,1080,1-8-2024,14-58-23,7,catch_stimuli/c0.png,1000,,,0,5159,999,meters,jsons/MX_seq15_1_VE1000.json,305670,457280,21,Man
7,986139,final-intermixed-textured,v2,jsons/MX_seq15_1_VE1000.json,http://54.235.29.9/FacialAge/BNav_EC2/DepthDuration/MX_fS_VE_MTurk/MX_fS_HTML.html#108,108,1920,1080,1920,1080,1-8-2024,14-58-23,8,VR_target_stimuli/s7_1x_1.5_255.png,1000,1x,1.5,6,4627,992,meters,jsons/MX_seq15_1_VE1000.json,305670,457280,21,Man
8,986139,final-intermixed-textured,v2,jsons/MX_seq15_1_VE1000.json,http://54.235.29.9/FacialAge/BNav_EC2/DepthDuration/MX_fS_VE_MTurk/MX_fS_HTML.html#108,108,1920,1080,1920,1080,1-8-2024,14-58-23,9,VR_target_stimuli/s20_0.75x_4.99_390.png,1000,0.75x,4.99,12,7352,992,meters,jsons/MX_seq15_1_VE1000.json,305670,457280,21,Man
9,986139,final-intermixed-textured,v2,jsons/MX_seq15_1_VE1000.json,http://54.235.29.9/FacialAge/BNav_EC2/DepthDuration/MX_fS_VE_MTurk/MX_fS_HTML.html#108,108,1920,1080,1920,1080,1-8-2024,14-58-23,10,VR_target_stimuli/s31_1.3x_4.96_342.png,1000,1.3x,4.96,5,8213,993,meters,jsons/MX_seq15_1_VE1000.json,305670,457280,21,Man
10,986139,final-intermixed-textured,v2,jsons/MX_seq15_1_VE1000.json,http://54.235.29.9/FacialAge/BNav_EC2/DepthDuration/MX_fS_VE_MTurk/MX_fS_HTML.html#108,108,1920,1080,1920,1080,1-8-2024,14-58-23,11,VR_target_stimuli/s33_0.75x_3.1_361_BC.png,1000,0.75x,3.1,10,4761,995,meters,jsons/MX_seq15_1_VE1000.json,305670,457280,21,Man
11,986139,final-intermixed-textured,v2,jsons/MX_seq15_1_VE1000.json,http://54.235.29.9/FacialAge/BNav_EC2/DepthDuration/MX_fS_VE_MTurk/MX_fS_HTML.html#108,108,1920,1080,1920,1080,1-8-2024,14-58-23,12,VR_target_stimuli/s52_1x_3.2_275_BC.png,1000,1x,3.2,11,4581,992,meters,jsons/MX_seq15_1_VE1000.json,305670,457280,21,Man
12,986139,final-intermixed-textured,v2,jsons/MX_seq15_1_VE1000.json,http://54.235.29.9/FacialAge/BNav_EC2/DepthDuration/MX_fS_VE_MTurk/MX_fS_HTML.html#108,108,1920,1080,1920,1080,1-8-2024,14-58-23,13,VR_target_stimuli/s32_1.3x_1.5_224_BC.png,1000,1.3x,1.5,7,5967,1008,meters,jsons/MX_seq15_1_VE1000.json,305670,457280,21,Man
13,986139,final-intermixed-textured,v2,jsons/MX_seq15_1_VE1000.json,http://54.235.29.9/FacialAge/BNav_EC2/DepthDuration/MX_fS_VE_MTurk/MX_fS_HTML.html#108,108,1920,1080,1920,1080,1-8-2024,14-58-23,14,VR_target_stimuli/s18_1x_2.25_353_BC.png,1000,1x,2.25,6,5563,1011,meters,jsons/MX_seq15_1_VE1000.json,305670,457280,21,Man
14,986139,final-intermixed-textured,v2,jsons/MX_seq15_1_VE1000.json,http://54.235.29.9/FacialAge/BNav_EC2/DepthDuration/MX_fS_VE_MTurk/MX_fS_HTML.html#108,108,1920,1080,1920,1080,1-8-2024,14-58-23,15,VR_target_stimuli/s39_0.75x_1_205_BC.png,1000,0.75x,1.0,4,4844,1014,meters,jsons/MX_seq15_1_VE1000.json,305670,457280,21,Man
15,986139,final-intermixed-textured,v2,jsons/MX_seq15_1_VE1000.json,http://54.235.29.9/FacialAge/BNav_EC2/DepthDuration/MX_fS_VE_MTurk/MX_fS_HTML.html#108,108,1920,1080,1920,1080,1-8-2024,14-58-23,16,VR_target_stimuli/s51_1.3x_3.64_479.png,1000,1.3x,3.64,5,4973,1010,meters,jsons/MX_seq15_1_VE1000.json,305670,457280,21,Man
16,986139,final-intermixed-textured,v2,jsons/MX_seq15_1_VE1000.json,http://54.235.29.9/FacialAge/BNav_EC2/DepthDuration/MX_fS_VE_MTurk/MX_fS_HTML.html#108,108,1920,1080,1920,1080,1-8-2024,14-58-23,17,catch_stimuli/c1.png,1000,,,0,4759,1011,meters,jsons/MX_seq15_1_VE1000.json,305670,457280,21,Man
17,986139,final-intermixed-textured,v2,jsons/MX_seq15_1_VE1000.json,http://54.235.29.9/FacialAge/BNav_EC2/DepthDuration/MX_fS_VE_MTurk/MX_fS_HTML.html#108,108,1920,1080,1920,1080,1-8-2024,14-58-23,18,VR_target_stimuli/s43_1.3x_2.2_363_BC.png,1000,1.3x,2.2,6,5776,1009,meters,jsons/MX_seq15_1_VE1000.json,305670,457280,21,Man
18,986139,final-intermixed-textured,v2,jsons/MX_seq15_1_VE1000.json,http://54.235.29.9/FacialAge/BNav_EC2/DepthDuration/MX_fS_VE_MTurk/MX_fS_HTML.html#108,108,1920,1080,1920,1080,1-8-2024,14-58-23,19,VR_target_stimuli/s24_1x_3.3_349.png,1000,1x,3.3,0,4774,1009,meters,jsons/MX_seq15_1_VE1000.json,305670,457280,21,Man
19,986139,final-intermixed-textured,v2,jsons/MX_seq15_1_VE1000.json,http://54.235.29.9/FacialAge/BNav_EC2/DepthDuration/MX_fS_VE_MTurk/MX_fS_HTML.html#108,108,1920,1080,1920,1080,1-8-2024,14-58-23,20,VR_target_stimuli/s10_0.75x_2.7_321.png,1000,0.75x,2.7,11,4834,1005,meters,jsons/MX_seq15_1_VE1000.json,305670,457280,21,Man
20,986139,final-intermixed-textured,v2,jsons/MX_seq15_1_VE1000.json,http://54.235.29.9/FacialAge/BNav_EC2/DepthDuration/MX_fS_VE_MTurk/MX_fS_HTML.html#108,108,1920,1080,1920,1080,1-8-2024,14-58-23,21,VR_target_stimuli/s36_1x_4.1_423_BC.png,1000,1x,4.1,11,4724,1012,meters,jsons/MX_seq15_1_VE1000.json,305670,457280,21,Man
21,986139,final-intermixed-textured,v2,jsons/MX_seq15_1_VE1000.json,http://54.235.29.9/FacialAge/BNav_EC2/DepthDuration/MX_fS_VE_MTurk/MX_fS_HTML.html#108,108,1920,1080,1920,1080,1-8-2024,14-58-23,22,VR_target_stimuli/s40_1.3x_1.2_332_BC.png,1000,1.3x,1.2,5,5742,1012,meters,jsons/MX_seq15_1_VE1000.json,305670,457280,21,Man
22,986139,final-intermixed-textured,v2,jsons/MX_seq15_1_VE1000.json,http://54.235.29.9/FacialAge/BNav_EC2/DepthDuration/MX_fS_VE_MTurk/MX_fS_HTML.html#108,108,1920,1080,1920,1080,1-8-2024,14-58-23,23,VR_target_stimuli/s41_0.75x_2.1_281.png,1000,0.75x,2.1,6,3997,1008,meters,jsons/MX_seq15_1_VE1000.json,305670,457280,21,Man
23,986139,final-intermixed-textured,v2,jsons/MX_seq15_1_VE1000.json,http://54.235.29.9/FacialAge/BNav_EC2/DepthDuration/MX_fS_VE_MTurk/MX_fS_HTML.html#108,108,1920,1080,1920,1080,1-8-2024,14-58-23,24,VR_target_stimuli/s45_1.3x_3.5_377.png,1000,1.3x,3.5,6,3286,1009,meters,jsons/MX_seq15_1_VE1000.json,305670,457280,21,Man
24,986139,final-intermixed-textured,v2,jsons/MX_seq15_1_VE1000.json,http://54.235.29.9/FacialAge/BNav_EC2/DepthDuration/MX_fS_VE_MTurk/MX_fS_HTML.html#108,108,1920,1080,1920,1080,1-8-2024,14-58-23,25,VR_target_stimuli/s23_1x_3.65_353.png,1000,1x,3.65,8,4019,1008,meters,jsons/MX_seq15_1_VE1000.json,305670,457280,21,Man
25,986139,final-intermixed-textured,v2,jsons/MX_seq15_1_VE1000.json,http://54.235.29.9/FacialAge/BNav_EC2/DepthDuration/MX_fS_VE_MTurk/MX_fS_HTML.html#108,108,1920,1080,1920,1080,1-8-2024,14-58-23,26,catch_stimuli/c2.png,1000,,,0,3876,992,meters,jsons/MX_seq15_1_VE1000.json,305670,457280,21,Man
26,986139,final-intermixed-textured,v2,jsons/MX_seq15_1_VE1000.json,http://54.235.29.9/FacialAge/BNav_EC2/DepthDuration/MX_fS_VE_MTurk/MX_fS_HTML.html#108,108,1920,1080,1920,1080,1-8-2024,14-58-23,27,VR_target_stimuli/s26_0.75x_4_430_BC.png,1000,0.75x,4.0,5,4848,1010,meters,jsons/MX_seq15_1_VE1000.json,305670,457280,21,Man
27,986139,final-intermixed-textured,v2,jsons/MX_seq15_1_VE1000.json,http://54.235.29.9/FacialAge/BNav_EC2/DepthDuration/MX_fS_VE_MTurk/MX_fS_HTML.html#108,108,1920,1080,1920,1080,1-8-2024,14-58-23,28,VR_target_stimuli/s12_0.75x_3.1_364.png,1000,0.75x,3.1,8,5036,994,meters,jsons/MX_seq15_1_VE1000.json,305670,457280,21,Man
28,986139,final-intermixed-textured,v2,jsons/MX_seq15_1_VE1000.json,http://54.235.29.9/FacialAge/BNav_EC2/DepthDuration/MX_fS_VE_MTurk/MX_fS_HTML.html#108,108,1920,1080,1920,1080,1-8-2024,14-58-23,29,VR_target_stimuli/s30_1.3x_2.3_337.png,1000,1.3x,2.3,5,4747,1005,meters,jsons/MX_seq15_1_VE1000.json,305670,457280,21,Man
29,986139,final-intermixed-textured,v2,jsons/MX_seq15_1_VE1000.json,http://54.235.29.9/FacialAge/BNav_EC2/DepthDuration/MX_fS_VE_MTurk/MX_fS_HTML.html#108,108,1920,1080,1920,1080,1-8-2024,14-58-23,30,VR_target_stimuli/s16_1x_1_219_BC.png,1000,1x,1.0,4,3666,998,meters,jsons/MX_seq15_1_VE1000.json,305670,457280,21,Man
30,986139,final-intermixed-textured,v2,jsons/MX_seq15_1_VE1000.json,http://54.235.29.9/FacialAge/BNav_EC2/DepthDuration/MX_fS_VE_MTurk/MX_fS_HTML.html#108,108,1920,1080,1920,1080,1-8-2024,14-58-23,31,VR_target_stimuli/s17_0.75x_1.8_285_BC.png,1000,0.75x,1.8,5,3184,1010,meters,jsons/MX_seq15_1_VE1000.json,305670,457280,21,Man
31,986139,final-intermixed-textured,v2,jsons/MX_seq15_1_VE1000.json,http://54.235.29.9/FacialAge/BNav_EC2/DepthDuration/MX_fS_VE_MTurk/MX_fS_HTML.html#108,108,1920,1080,1920,1080,1-8-2024,14-58-23,32,VR_target_stimuli/s5_1x_4_378.png,1000,1x,4.0,7,3415,1007,meters,jsons/MX_seq15_1_VE1000.json,305670,457280,21,Man
32,986139,final-intermixed-textured,v2,jsons/MX_seq15_1_VE1000.json,http://54.235.29.9/FacialAge/BNav_EC2/DepthDuration/MX_fS_VE_MTurk/MX_fS_HTML.html#108,108,1920,1080,1920,1080,1-8-2024,14-58-23,33,VR_target_stimuli/s37_1.3x_3.3_555_BC.png,1000,1.3x,3.3,6,6164,990,meters,jsons/MX_seq15_1_VE1000.json,305670,457280,21,Man
33,986139,final-intermixed-textured,v2,jsons/MX_seq15_1_VE1000.json,http://54.235.29.9/FacialAge/BNav_EC2/DepthDuration/MX_fS_VE_MTurk/MX_fS_HTML.html#108,108,1920,1080,1920,1080,1-8-2024,14-58-23,34,catch_stimuli/c3.png,1000,,,0,4809,1008,meters,jsons/MX_seq15_1_VE1000.json,305670,457280,21,Man
34,986139,final-intermixed-textured,v2,jsons/MX_seq15_1_VE1000.json,http://54.235.29.9/FacialAge/BNav_EC2/DepthDuration/MX_fS_VE_MTurk/MX_fS_HTML.html#108,108,1920,1080,1920,1080,1-8-2024,14-58-23,35,VR_target_stimuli/s46_1x_2.42_348.png,1000,1x,2.42,7,3581,1009,meters,jsons/MX_seq15_1_VE1000.json,305670,457280,21,Man
35,986139,final-intermixed-textured,v2,jsons/MX_seq15_1_VE1000.json,http://54.235.29.9/FacialAge/BNav_EC2/DepthDuration/MX_fS_VE_MTurk/MX_fS_HTML.html#108,108,1920,1080,1920,1080,1-8-2024,14-58-23,36,VR_target_stimuli/s22_0.75x_4.29_348.png,1000,0.75x,4.29,9,3550,991,meters,jsons/MX_seq15_1_VE1000.json,305670,457280,21,Man
36,986139,final-intermixed-textured,v2,jsons/MX_seq15_1_VE1000.json,http://54.235.29.9/FacialAge/BNav_EC2/DepthDuration/MX_fS_VE_MTurk/MX_fS_HTML.html#108,108,1920,1080,1920,1080,1-8-2024,14-58-23,37,VR_target_stimuli/s42_1.3x_3.2_305_BC.png,1000,1.3x,3.2,7,3182,996,meters,jsons/MX_seq15_1_VE1000.json,305670,457280,21,Man
37,986139,final-intermixed-textured,v2,jsons/MX_seq15_1_VE1000.json,http://54.235.29.9/FacialAge/BNav_EC2/DepthDuration/MX_fS_VE_MTurk/MX_fS_HTML.html#108,108,1920,1080,1920,1080,1-8-2024,14-58-23,38,VR_target_stimuli/s25_1.3x_1.4_299.png,1000,1.3x,1.4,6,4343,997,meters,jsons/MX_seq15_1_VE1000.json,305670,457280,21,Man
38,986139,final-intermixed-textured,v2,jsons/MX_seq15_1_VE1000.json,http://54.235.29.9/FacialAge/BNav_EC2/DepthDuration/MX_fS_VE_MTurk/MX_fS_HTML.html#108,108,1920,1080,1920,1080,1-8-2024,14-58-23,39,VR_target_stimuli/s50_1x_4.53_518_BC.png,1000,1x,4.53,7,4515,998,meters,jsons/MX_seq15_1_VE1000.json,305670,457280,21,Man
39,986139,final-intermixed-textured,v2,jsons/MX_seq15_1_VE1000.json,http://54.235.29.9/FacialAge/BNav_EC2/DepthDuration/MX_fS_VE_MTurk/MX_fS_HTML.html#108,108,1920,1080,1920,1080,1-8-2024,14-58-23,40,VR_target_stimuli/s53_0.75x_1.6_403_BC.png,1000,0.75x,1.6,4,3900,996,meters,jsons/MX_seq15_1_VE1000.json,305670,457280,21,Man
40,986139,final-intermixed-textured,v2,jsons/MX_seq15_1_VE1000.json,http://54.235.29.9/FacialAge/BNav_EC2/DepthDuration/MX_fS_VE_MTurk/MX_fS_HTML.html#108,108,1920,1080,1920,1080,1-8-2024,14-58-23,41,VR_target_stimuli/s38_1x_3.55_353.png,1000,1x,3.55,7,4061,994,meters,jsons/MX_seq15_1_VE1000.json,305670,457280,21,Man
41,986139,final-intermixed-textured,v2,jsons/MX_seq15_1_VE1000.json,http://54.235.29.9/FacialAge/BNav_EC2/DepthDuration/MX_fS_VE_MTurk/MX_fS_HTML.html#108,108,1920,1080,1920,1080,1-8-2024,14-58-23,42,VR_target_stimuli/s9_1.3x_1.2_276_BC.png,1000,1.3x,1.2,5,4245,1011,meters,jsons/MX_seq15_1_VE1000.json,305670,457280,21,Man
42,986139,final-intermixed-textured,v2,jsons/MX_seq15_1_VE1000.json,http://54.235.29.9/FacialAge/BNav_EC2/DepthDuration/MX_fS_VE_MTurk/MX_fS_HTML.html#108,108,1920,1080,1920,1080,1-8-2024,14-58-23,43,VR_target_stimuli/s44_0.75x_4.4_314.png,1000,0.75x,4.4,8,4246,1003,meters,jsons/MX_seq15_1_VE1000.json,305670,457280,21,Man
43,986139,final-intermixed-textured,v2,jsons/MX_seq15_1_VE1000.json,http://54.235.29.9/FacialAge/BNav_EC2/DepthDuration/MX_fS_VE_MTurk/MX_fS_HTML.html#108,108,1920,1080,1920,1080,1-8-2024,14-58-23,44,VR_target_stimuli/s3_1.3x_5_390.png,1000,1.3x,5.0,9,4102,998,meters,jsons/MX_seq15_1_VE1000.json,305670,457280,21,Man
44,986139,final-intermixed-textured,v2,jsons/MX_seq15_1_VE1000.json,http://54.235.29.9/FacialAge/BNav_EC2/DepthDuration/MX_fS_VE_MTurk/MX_fS_HTML.html#108,108,1920,1080,1920,1080,1-8-2024,14-58-23,45,catch_stimuli/c4.png,1000,,,0,4279,996,meters,jsons/MX_seq15_1_VE1000.json,305670,457280,21,Man
45,986139,final-intermixed-textured,v2,jsons/MX_seq15_1_VE1000.json,http://54.235.29.9/FacialAge/BNav_EC2/DepthDuration/MX_fS_VE_MTurk/MX_fS_HTML.html#108,108,1920,1080,1920,1080,1-8-2024,14-58-23,46,VR_target_stimuli/s1_1x_1.7_262_BC.png,1000,1x,1.7,0,4524,991,meters,jsons/MX_seq15_1_VE1000.json,305670,457280,21,Man
46,986139,final-intermixed-textured,v2,jsons/MX_seq15_1_VE1000.json,http://54.235.29.9/FacialAge/BNav_EC2/DepthDuration/MX_fS_VE_MTurk/MX_fS_HTML.html#108,108,1920,1080,1920,1080,1-8-2024,14-58-23,47,VR_target_stimuli/s11_0.75x_5_359_BC.png,1000,0.75x,5.0,9,4146,992,meters,jsons/MX_seq15_1_VE1000.json,305670,457280,21,Man
47,986139,final-intermixed-textured,v2,jsons/MX_seq15_1_VE1000.json,http://54.235.29.9/FacialAge/BNav_EC2/DepthDuration/MX_fS_VE_MTurk/MX_fS_HTML.html#108,108,1920,1080,1920,1080,1-8-2024,14-58-23,48,VR_target_stimuli/s2_0.75x_2.7_384_BC.png,1000,0.75x,2.7,9,5372,995,meters,jsons/MX_seq15_1_VE1000.json,305670,457280,21,Man
48,986139,final-intermixed-textured,v2,jsons/MX_seq15_1_VE1000.json,http://54.235.29.9/FacialAge/BNav_EC2/DepthDuration/MX_fS_VE_MTurk/MX_fS_HTML.html#108,108,1920,1080,1920,1080,1-8-2024,14-58-23,49,VR_target_stimuli/s6_1.3x_2.1_298_BC.png,1000,1.3x,2.1,7,5009,1000,meters,jsons/MX_seq15_1_VE1000.json,305670,457280,21,Man
49,986139,final-intermixed-textured,v2,jsons/MX_seq15_1_VE1000.json,http://54.235.29.9/FacialAge/BNav_EC2/DepthDuration/MX_fS_VE_MTurk/MX_fS_HTML.html#108,108,1920,1080,1920,1080,1-8-2024,14-58-23,50,VR_target_stimuli/s0_1x_2.6_351.png,1000,1x,2.6,7,3182,989,meters,jsons/MX_seq15_1_VE1000.json,305670,457280,21,Man
50,986139,final-intermixed-textured,v2,jsons/MX_seq15_1_VE1000.json,http://54.235.29.9/FacialAge/BNav_EC2/DepthDuration/MX_fS_VE_MTurk/MX_fS_HTML.html#108,108,1920,1080,1920,1080,1-8-2024,14-58-23,51,VR_target_stimuli/s34_1.3x_2.8_294.png,1000,1.3x,2.8,7,2817,990,meters,jsons/MX_seq15_1_VE1000.json,305670,457280,21,Man
51,986139,final-intermixed-textured,v2,jsons/MX_seq15_1_VE1000.json,http://54.235.29.9/FacialAge/BNav_EC2/DepthDuration/MX_fS_VE_MTurk/MX_fS_HTML.html#108,108,1920,1080,1920,1080,1-8-2024,14-58-23,52,VR_target_stimuli/s13_0.75x_2.4_308.png,1000,0.75x,2.4,6,3618,995,meters,jsons/MX_seq15_1_VE1000.json,305670,457280,21,Man
52,986139,final-intermixed-textured,v2,jsons/MX_seq15_1_VE1000.json,http://54.235.29.9/FacialAge/BNav_EC2/DepthDuration/MX_fS_VE_MTurk/MX_fS_HTML.html#108,108,1920,1080,1920,1080,1-8-2024,14-58-23,53,catch_stimuli/c5.png,1000,,,0,3411,994,meters,jsons/MX_seq15_1_VE1000.json,305670,457280,21,Man
53,986139,final-intermixed-textured,v2,jsons/MX_seq15_1_VE1000.json,http://54.235.29.9/FacialAge/BNav_EC2/DepthDuration/MX_fS_VE_MTurk/MX_fS_HTML.html#108,108,1920,1080,1920,1080,1-8-2024,14-58-23,54,VR_target_stimuli/s14_1x_ 3.83_357_BC.png,1000,1x,3.83,8,4568,1004,meters,jsons/MX_seq15_1_VE1000.json,305670,457280,21,Man
54,986139,final-intermixed-textured,v2,jsons/MX_seq15_1_VE1000.json,http://54.235.29.9/FacialAge/BNav_EC2/DepthDuration/MX_fS_VE_MTurk/MX_fS_HTML.html#108,108,1920,1080,1920,1080,1-8-2024,14-58-23,55,VR_target_stimuli/s47_0.75x_3.45_366.png,1000,0.75x,3.45,9,4518,993,meters,jsons/MX_seq15_1_VE1000.json,305670,457280,21,Man
55,986139,final-intermixed-textured,v2,jsons/MX_seq15_1_VE1000.json,http://54.235.29.9/FacialAge/BNav_EC2/DepthDuration/MX_fS_VE_MTurk/MX_fS_HTML.html#108,108,1920,1080,1920,1080,1-8-2024,14-58-23,56,VR_target_stimuli/s29_1.3x_1.3_253_BC.png,1000,1.3x,1.3,8,3666,994,meters,jsons/MX_seq15_1_VE1000.json,305670,457280,21,Man
56,986139,final-intermixed-textured,v2,jsons/MX_seq15_1_VE1000.json,http://54.235.29.9/FacialAge/BNav_EC2/DepthDuration/MX_fS_VE_MTurk/MX_fS_HTML.html#108,108,1920,1080,1920,1080,1-8-2024,14-58-23,57,VR_target_stimuli/s28_1x_3.2_362_BC.png,1000,1x,3.2,0,4812,994,meters,jsons/MX_seq15_1_VE1000.json,305670,457280,21,Man
57,986139,final-intermixed-textured,v2,jsons/MX_seq15_1_VE1000.json,http://54.235.29.9/FacialAge/BNav_EC2/DepthDuration/MX_fS_VE_MTurk/MX_fS_HTML.html#108,108,1920,1080,1920,1080,1-8-2024,14-58-23,58,VR_target_stimuli/s48_1x_2.55_256.png,1000,1x,2.55,8,4036,996,meters,jsons/MX_seq15_1_VE1000.json,305670,457280,21,Man
58,986139,final-intermixed-textured,v2,jsons/MX_seq15_1_VE1000.json,http://54.235.29.9/FacialAge/BNav_EC2/DepthDuration/MX_fS_VE_MTurk/MX_fS_HTML.html#108,108,1920,1080,1920,1080,1-8-2024,14-58-23,59,VR_target_stimuli/s19_0.75x_1.21_257_BC.png,1000,0.75x,1.21,6,4690,1002,meters,jsons/MX_seq15_1_VE1000.json,305670,457280,21,Man
59,986139,final-intermixed-textured,v2,jsons/MX_seq15_1_VE1000.json,http://54.235.29.9/FacialAge/BNav_EC2/DepthDuration/MX_fS_VE_MTurk/MX_fS_HTML.html#108,108,1920,1080,1920,1080,1-8-2024,14-58-23,60,VR_target_stimuli/s21_1.3x_4.22_384.png,1000,1.3x,4.22,9,3289,1013,meters,jsons/MX_seq15_1_VE1000.json,305670,457280,21,Man
