,subjID,experimentName,versionName,sequenceName,url,selected_row,windowWidth,windowHeight,screenWidth,screenHeight,startDate,startTime,trial,stimulus,duration,scale,actual_depth,depth_estimate,trial_RT,log_sceneDuration,unitSelection,seq_filepath,experimentTime,totalTime,age,gender
0,124044,final-intermixed-textured,v2,jsons/MX_seq40_0_VE125_flipped.json,http://54.235.29.9/FacialAge/BNav_EC2/DepthDuration/MX_fS_VE_MTurk/MX_fS_HTML.html#252,252,1440,837,1440,900,1-12-2024,20-39-6,1,VR_target_stimuli/s30_0.75x_2.3_332_BC.png,125,0.75x,2.3,3.0,5923,125,meters,jsons/MX_seq40_0_VE125_flipped.json,301185,654071,28,Woman
1,124044,final-intermixed-textured,v2,jsons/MX_seq40_0_VE125_flipped.json,http://54.235.29.9/FacialAge/BNav_EC2/DepthDuration/MX_fS_VE_MTurk/MX_fS_HTML.html#252,252,1440,837,1440,900,1-12-2024,20-39-6,2,VR_target_stimuli/s16_1x_1_219.png,125,1x,1.0,4.0,10059,125,meters,jsons/MX_seq40_0_VE125_flipped.json,301185,654071,28,Woman
2,124044,final-intermixed-textured,v2,jsons/MX_seq40_0_VE125_flipped.json,http://54.235.29.9/FacialAge/BNav_EC2/DepthDuration/MX_fS_VE_MTurk/MX_fS_HTML.html#252,252,1440,837,1440,900,1-12-2024,20-39-6,3,VR_target_stimuli/s17_1.3x_1.8_300.png,125,1.3x,1.8,2.0,4710,125,meters,jsons/MX_seq40_0_VE125_flipped.json,301185,654071,28,Woman
3,124044,final-intermixed-textured,v2,jsons/MX_seq40_0_VE125_flipped.json,http://54.235.29.9/FacialAge/BNav_EC2/DepthDuration/MX_fS_VE_MTurk/MX_fS_HTML.html#252,252,1440,837,1440,900,1-12-2024,20-39-6,4,VR_target_stimuli/s5_1x_4_378_BC.png,125,1x,4.0,5.0,13423,125,meters,jsons/MX_seq40_0_VE125_flipped.json,301185,654071,28,Woman
4,124044,final-intermixed-textured,v2,jsons/MX_seq40_0_VE125_flipped.json,http://54.235.29.9/FacialAge/BNav_EC2/DepthDuration/MX_fS_VE_MTurk/MX_fS_HTML.html#252,252,1440,837,1440,900,1-12-2024,20-39-6,5,VR_target_stimuli/s37_0.75x_3.3_567.png,125,0.75x,3.3,3.0,6970,126,meters,jsons/MX_seq40_0_VE125_flipped.json,301185,654071,28,Woman
5,124044,final-intermixed-textured,v2,jsons/MX_seq40_0_VE125_flipped.json,http://54.235.29.9/FacialAge/BNav_EC2/DepthDuration/MX_fS_VE_MTurk/MX_fS_HTML.html#252,252,1440,837,1440,900,1-12-2024,20-39-6,6,VR_target_stimuli/s46_1.3x_2.42_354_BC.png,125,1.3x,2.42,6.0,4146,125,meters,jsons/MX_seq40_0_VE125_flipped.json,301185,654071,28,Woman
6,124044,final-intermixed-textured,v2,jsons/MX_seq40_0_VE125_flipped.json,http://54.235.29.9/FacialAge/BNav_EC2/DepthDuration/MX_fS_VE_MTurk/MX_fS_HTML.html#252,252,1440,837,1440,900,1-12-2024,20-39-6,7,catch_stimuli/c0_BC.png,125,,,0.0,4167,126,meters,jsons/MX_seq40_0_VE125_flipped.json,301185,654071,28,Woman
7,124044,final-intermixed-textured,v2,jsons/MX_seq40_0_VE125_flipped.json,http://54.235.29.9/FacialAge/BNav_EC2/DepthDuration/MX_fS_VE_MTurk/MX_fS_HTML.html#252,252,1440,837,1440,900,1-12-2024,20-39-6,8,VR_target_stimuli/s22_1.3x_4.29_364_BC.png,125,1.3x,4.29,6.0,3018,124,meters,jsons/MX_seq40_0_VE125_flipped.json,301185,654071,28,Woman
8,124044,final-intermixed-textured,v2,jsons/MX_seq40_0_VE125_flipped.json,http://54.235.29.9/FacialAge/BNav_EC2/DepthDuration/MX_fS_VE_MTurk/MX_fS_HTML.html#252,252,1440,837,1440,900,1-12-2024,20-39-6,9,VR_target_stimuli/s42_1x_3.2_303.png,125,1x,3.2,4.0,6895,124,meters,jsons/MX_seq40_0_VE125_flipped.json,301185,654071,28,Woman
9,124044,final-intermixed-textured,v2,jsons/MX_seq40_0_VE125_flipped.json,http://54.235.29.9/FacialAge/BNav_EC2/DepthDuration/MX_fS_VE_MTurk/MX_fS_HTML.html#252,252,1440,837,1440,900,1-12-2024,20-39-6,10,VR_target_stimuli/s25_0.75x_1.4_281.png,125,0.75x,1.4,2.0,5552,125,meters,jsons/MX_seq40_0_VE125_flipped.json,301185,654071,28,Woman
10,124044,final-intermixed-textured,v2,jsons/MX_seq40_0_VE125_flipped.json,http://54.235.29.9/FacialAge/BNav_EC2/DepthDuration/MX_fS_VE_MTurk/MX_fS_HTML.html#252,252,1440,837,1440,900,1-12-2024,20-39-6,11,VR_target_stimuli/s50_1x_4.53_518_BC.png,125,1x,4.53,4.3,4618,124,meters,jsons/MX_seq40_0_VE125_flipped.json,301185,654071,28,Woman
11,124044,final-intermixed-textured,v2,jsons/MX_seq40_0_VE125_flipped.json,http://54.235.29.9/FacialAge/BNav_EC2/DepthDuration/MX_fS_VE_MTurk/MX_fS_HTML.html#252,252,1440,837,1440,900,1-12-2024,20-39-6,12,VR_target_stimuli/s53_1.3x_1.6_355.png,125,1.3x,1.6,1.5,6602,125,meters,jsons/MX_seq40_0_VE125_flipped.json,301185,654071,28,Woman
12,124044,final-intermixed-textured,v2,jsons/MX_seq40_0_VE125_flipped.json,http://54.235.29.9/FacialAge/BNav_EC2/DepthDuration/MX_fS_VE_MTurk/MX_fS_HTML.html#252,252,1440,837,1440,900,1-12-2024,20-39-6,13,VR_target_stimuli/s38_0.75x_3.55_346_BC.png,125,0.75x,3.55,5.0,4986,126,meters,jsons/MX_seq40_0_VE125_flipped.json,301185,654071,28,Woman
13,124044,final-intermixed-textured,v2,jsons/MX_seq40_0_VE125_flipped.json,http://54.235.29.9/FacialAge/BNav_EC2/DepthDuration/MX_fS_VE_MTurk/MX_fS_HTML.html#252,252,1440,837,1440,900,1-12-2024,20-39-6,14,VR_target_stimuli/s9_1.3x_1.2_276.png,125,1.3x,1.2,1.5,5755,125,meters,jsons/MX_seq40_0_VE125_flipped.json,301185,654071,28,Woman
14,124044,final-intermixed-textured,v2,jsons/MX_seq40_0_VE125_flipped.json,http://54.235.29.9/FacialAge/BNav_EC2/DepthDuration/MX_fS_VE_MTurk/MX_fS_HTML.html#252,252,1440,837,1440,900,1-12-2024,20-39-6,15,VR_target_stimuli/s44_1x_4.4_317.png,125,1x,4.4,5.5,7090,125,meters,jsons/MX_seq40_0_VE125_flipped.json,301185,654071,28,Woman
15,124044,final-intermixed-textured,v2,jsons/MX_seq40_0_VE125_flipped.json,http://54.235.29.9/FacialAge/BNav_EC2/DepthDuration/MX_fS_VE_MTurk/MX_fS_HTML.html#252,252,1440,837,1440,900,1-12-2024,20-39-6,16,VR_target_stimuli/s3_0.75x_5_381.png,125,0.75x,5.0,6.0,3169,125,meters,jsons/MX_seq40_0_VE125_flipped.json,301185,654071,28,Woman
16,124044,final-intermixed-textured,v2,jsons/MX_seq40_0_VE125_flipped.json,http://54.235.29.9/FacialAge/BNav_EC2/DepthDuration/MX_fS_VE_MTurk/MX_fS_HTML.html#252,252,1440,837,1440,900,1-12-2024,20-39-6,17,catch_stimuli/c1_BC.png,125,,,0.0,3062,125,meters,jsons/MX_seq40_0_VE125_flipped.json,301185,654071,28,Woman
17,124044,final-intermixed-textured,v2,jsons/MX_seq40_0_VE125_flipped.json,http://54.235.29.9/FacialAge/BNav_EC2/DepthDuration/MX_fS_VE_MTurk/MX_fS_HTML.html#252,252,1440,837,1440,900,1-12-2024,20-39-6,18,VR_target_stimuli/s1_0.75x_1.7_265_BC.png,125,0.75x,1.7,2.3,4896,125,meters,jsons/MX_seq40_0_VE125_flipped.json,301185,654071,28,Woman
18,124044,final-intermixed-textured,v2,jsons/MX_seq40_0_VE125_flipped.json,http://54.235.29.9/FacialAge/BNav_EC2/DepthDuration/MX_fS_VE_MTurk/MX_fS_HTML.html#252,252,1440,837,1440,900,1-12-2024,20-39-6,19,VR_target_stimuli/s11_1.3x_5_363_BC.png,125,1.3x,5.0,5.5,5138,124,meters,jsons/MX_seq40_0_VE125_flipped.json,301185,654071,28,Woman
19,124044,final-intermixed-textured,v2,jsons/MX_seq40_0_VE125_flipped.json,http://54.235.29.9/FacialAge/BNav_EC2/DepthDuration/MX_fS_VE_MTurk/MX_fS_HTML.html#252,252,1440,837,1440,900,1-12-2024,20-39-6,20,VR_target_stimuli/s2_1x_2.7_390_BC.png,125,1x,2.7,2.0,3205,125,meters,jsons/MX_seq40_0_VE125_flipped.json,301185,654071,28,Woman
20,124044,final-intermixed-textured,v2,jsons/MX_seq40_0_VE125_flipped.json,http://54.235.29.9/FacialAge/BNav_EC2/DepthDuration/MX_fS_VE_MTurk/MX_fS_HTML.html#252,252,1440,837,1440,900,1-12-2024,20-39-6,21,VR_target_stimuli/s6_1.3x_2.1_298_BC.png,125,1.3x,2.1,3.0,3266,124,meters,jsons/MX_seq40_0_VE125_flipped.json,301185,654071,28,Woman
21,124044,final-intermixed-textured,v2,jsons/MX_seq40_0_VE125_flipped.json,http://54.235.29.9/FacialAge/BNav_EC2/DepthDuration/MX_fS_VE_MTurk/MX_fS_HTML.html#252,252,1440,837,1440,900,1-12-2024,20-39-6,22,VR_target_stimuli/s0_0.75x_2.6_345.png,125,0.75x,2.6,3.5,6164,125,meters,jsons/MX_seq40_0_VE125_flipped.json,301185,654071,28,Woman
22,124044,final-intermixed-textured,v2,jsons/MX_seq40_0_VE125_flipped.json,http://54.235.29.9/FacialAge/BNav_EC2/DepthDuration/MX_fS_VE_MTurk/MX_fS_HTML.html#252,252,1440,837,1440,900,1-12-2024,20-39-6,23,VR_target_stimuli/s34_1x_2.8_283_BC.png,125,1x,2.8,4.0,3591,126,meters,jsons/MX_seq40_0_VE125_flipped.json,301185,654071,28,Woman
23,124044,final-intermixed-textured,v2,jsons/MX_seq40_0_VE125_flipped.json,http://54.235.29.9/FacialAge/BNav_EC2/DepthDuration/MX_fS_VE_MTurk/MX_fS_HTML.html#252,252,1440,837,1440,900,1-12-2024,20-39-6,24,VR_target_stimuli/s13_0.75x_2.4_308_BC.png,125,0.75x,2.4,4.0,3180,125,meters,jsons/MX_seq40_0_VE125_flipped.json,301185,654071,28,Woman
24,124044,final-intermixed-textured,v2,jsons/MX_seq40_0_VE125_flipped.json,http://54.235.29.9/FacialAge/BNav_EC2/DepthDuration/MX_fS_VE_MTurk/MX_fS_HTML.html#252,252,1440,837,1440,900,1-12-2024,20-39-6,25,VR_target_stimuli/s14_1.3x_3.83_359.png,125,1.3x,3.83,5.0,3800,125,meters,jsons/MX_seq40_0_VE125_flipped.json,301185,654071,28,Woman
25,124044,final-intermixed-textured,v2,jsons/MX_seq40_0_VE125_flipped.json,http://54.235.29.9/FacialAge/BNav_EC2/DepthDuration/MX_fS_VE_MTurk/MX_fS_HTML.html#252,252,1440,837,1440,900,1-12-2024,20-39-6,26,catch_stimuli/c2_BC.png,125,,,0.0,3178,124,meters,jsons/MX_seq40_0_VE125_flipped.json,301185,654071,28,Woman
26,124044,final-intermixed-textured,v2,jsons/MX_seq40_0_VE125_flipped.json,http://54.235.29.9/FacialAge/BNav_EC2/DepthDuration/MX_fS_VE_MTurk/MX_fS_HTML.html#252,252,1440,837,1440,900,1-12-2024,20-39-6,27,VR_target_stimuli/s47_1x_3.45_370.png,125,1x,3.45,5.0,3458,126,meters,jsons/MX_seq40_0_VE125_flipped.json,301185,654071,28,Woman
27,124044,final-intermixed-textured,v2,jsons/MX_seq40_0_VE125_flipped.json,http://54.235.29.9/FacialAge/BNav_EC2/DepthDuration/MX_fS_VE_MTurk/MX_fS_HTML.html#252,252,1440,837,1440,900,1-12-2024,20-39-6,28,VR_target_stimuli/s29_1x_1.3_250_BC.png,125,1x,1.3,3.5,4144,125,meters,jsons/MX_seq40_0_VE125_flipped.json,301185,654071,28,Woman
28,124044,final-intermixed-textured,v2,jsons/MX_seq40_0_VE125_flipped.json,http://54.235.29.9/FacialAge/BNav_EC2/DepthDuration/MX_fS_VE_MTurk/MX_fS_HTML.html#252,252,1440,837,1440,900,1-12-2024,20-39-6,29,VR_target_stimuli/s28_0.75x_3.2_357_BC.png,125,0.75x,3.2,5.0,2637,125,meters,jsons/MX_seq40_0_VE125_flipped.json,301185,654071,28,Woman
29,124044,final-intermixed-textured,v2,jsons/MX_seq40_0_VE125_flipped.json,http://54.235.29.9/FacialAge/BNav_EC2/DepthDuration/MX_fS_VE_MTurk/MX_fS_HTML.html#252,252,1440,837,1440,900,1-12-2024,20-39-6,30,VR_target_stimuli/s48_1.3x_2.55_255_BC.png,125,1.3x,2.55,6.0,3576,125,meters,jsons/MX_seq40_0_VE125_flipped.json,301185,654071,28,Woman
30,124044,final-intermixed-textured,v2,jsons/MX_seq40_0_VE125_flipped.json,http://54.235.29.9/FacialAge/BNav_EC2/DepthDuration/MX_fS_VE_MTurk/MX_fS_HTML.html#252,252,1440,837,1440,900,1-12-2024,20-39-6,31,VR_target_stimuli/s19_1x_1.21_263.png,125,1x,1.21,3.5,6701,126,meters,jsons/MX_seq40_0_VE125_flipped.json,301185,654071,28,Woman
31,124044,final-intermixed-textured,v2,jsons/MX_seq40_0_VE125_flipped.json,http://54.235.29.9/FacialAge/BNav_EC2/DepthDuration/MX_fS_VE_MTurk/MX_fS_HTML.html#252,252,1440,837,1440,900,1-12-2024,20-39-6,32,VR_target_stimuli/s21_1.3x_4.22_384.png,125,1.3x,4.22,4.0,4770,126,meters,jsons/MX_seq40_0_VE125_flipped.json,301185,654071,28,Woman
32,124044,final-intermixed-textured,v2,jsons/MX_seq40_0_VE125_flipped.json,http://54.235.29.9/FacialAge/BNav_EC2/DepthDuration/MX_fS_VE_MTurk/MX_fS_HTML.html#252,252,1440,837,1440,900,1-12-2024,20-39-6,33,VR_target_stimuli/s8_0.75x_3.1_325.png,125,0.75x,3.1,6.0,3331,125,meters,jsons/MX_seq40_0_VE125_flipped.json,301185,654071,28,Woman
33,124044,final-intermixed-textured,v2,jsons/MX_seq40_0_VE125_flipped.json,http://54.235.29.9/FacialAge/BNav_EC2/DepthDuration/MX_fS_VE_MTurk/MX_fS_HTML.html#252,252,1440,837,1440,900,1-12-2024,20-39-6,34,catch_stimuli/c3_BC.png,125,,,0.0,3347,126,meters,jsons/MX_seq40_0_VE125_flipped.json,301185,654071,28,Woman
34,124044,final-intermixed-textured,v2,jsons/MX_seq40_0_VE125_flipped.json,http://54.235.29.9/FacialAge/BNav_EC2/DepthDuration/MX_fS_VE_MTurk/MX_fS_HTML.html#252,252,1440,837,1440,900,1-12-2024,20-39-6,35,VR_target_stimuli/s27_1.3x_1.76_250_BC.png,125,1.3x,1.76,4.0,5747,126,meters,jsons/MX_seq40_0_VE125_flipped.json,301185,654071,28,Woman
35,124044,final-intermixed-textured,v2,jsons/MX_seq40_0_VE125_flipped.json,http://54.235.29.9/FacialAge/BNav_EC2/DepthDuration/MX_fS_VE_MTurk/MX_fS_HTML.html#252,252,1440,837,1440,900,1-12-2024,20-39-6,36,VR_target_stimuli/s15_1x_4.2_390_BC.png,125,1x,4.2,6.0,3031,126,meters,jsons/MX_seq40_0_VE125_flipped.json,301185,654071,28,Woman
36,124044,final-intermixed-textured,v2,jsons/MX_seq40_0_VE125_flipped.json,http://54.235.29.9/FacialAge/BNav_EC2/DepthDuration/MX_fS_VE_MTurk/MX_fS_HTML.html#252,252,1440,837,1440,900,1-12-2024,20-39-6,37,VR_target_stimuli/s4_0.75x_1.4_301_BC.png,125,0.75x,1.4,3.0,3187,125,meters,jsons/MX_seq40_0_VE125_flipped.json,301185,654071,28,Woman
37,124044,final-intermixed-textured,v2,jsons/MX_seq40_0_VE125_flipped.json,http://54.235.29.9/FacialAge/BNav_EC2/DepthDuration/MX_fS_VE_MTurk/MX_fS_HTML.html#252,252,1440,837,1440,900,1-12-2024,20-39-6,38,VR_target_stimuli/s35_0.75x_2_323.png,125,0.75x,2.0,3.5,4913,124,meters,jsons/MX_seq40_0_VE125_flipped.json,301185,654071,28,Woman
38,124044,final-intermixed-textured,v2,jsons/MX_seq40_0_VE125_flipped.json,http://54.235.29.9/FacialAge/BNav_EC2/DepthDuration/MX_fS_VE_MTurk/MX_fS_HTML.html#252,252,1440,837,1440,900,1-12-2024,20-39-6,39,VR_target_stimuli/s49_1.3x_4.67_354.png,125,1.3x,4.67,0.0,4288,125,meters,jsons/MX_seq40_0_VE125_flipped.json,301185,654071,28,Woman
39,124044,final-intermixed-textured,v2,jsons/MX_seq40_0_VE125_flipped.json,http://54.235.29.9/FacialAge/BNav_EC2/DepthDuration/MX_fS_VE_MTurk/MX_fS_HTML.html#252,252,1440,837,1440,900,1-12-2024,20-39-6,40,VR_target_stimuli/s7_1x_1.5_255.png,125,1x,1.5,3.0,3727,125,meters,jsons/MX_seq40_0_VE125_flipped.json,301185,654071,28,Woman
40,124044,final-intermixed-textured,v2,jsons/MX_seq40_0_VE125_flipped.json,http://54.235.29.9/FacialAge/BNav_EC2/DepthDuration/MX_fS_VE_MTurk/MX_fS_HTML.html#252,252,1440,837,1440,900,1-12-2024,20-39-6,41,VR_target_stimuli/s20_1.3x_4.99_412_BC.png,125,1.3x,4.99,6.0,3615,124,meters,jsons/MX_seq40_0_VE125_flipped.json,301185,654071,28,Woman
41,124044,final-intermixed-textured,v2,jsons/MX_seq40_0_VE125_flipped.json,http://54.235.29.9/FacialAge/BNav_EC2/DepthDuration/MX_fS_VE_MTurk/MX_fS_HTML.html#252,252,1440,837,1440,900,1-12-2024,20-39-6,42,VR_target_stimuli/s31_0.75x_4.96_329.png,125,0.75x,4.96,6.5,5685,125,meters,jsons/MX_seq40_0_VE125_flipped.json,301185,654071,28,Woman
42,124044,final-intermixed-textured,v2,jsons/MX_seq40_0_VE125_flipped.json,http://54.235.29.9/FacialAge/BNav_EC2/DepthDuration/MX_fS_VE_MTurk/MX_fS_HTML.html#252,252,1440,837,1440,900,1-12-2024,20-39-6,43,VR_target_stimuli/s33_1x_3.1_366.png,125,1x,3.1,6.0,3362,125,meters,jsons/MX_seq40_0_VE125_flipped.json,301185,654071,28,Woman
43,124044,final-intermixed-textured,v2,jsons/MX_seq40_0_VE125_flipped.json,http://54.235.29.9/FacialAge/BNav_EC2/DepthDuration/MX_fS_VE_MTurk/MX_fS_HTML.html#252,252,1440,837,1440,900,1-12-2024,20-39-6,44,VR_target_stimuli/s52_0.75x_3.2_270_BC.png,125,0.75x,3.2,6.0,2706,125,meters,jsons/MX_seq40_0_VE125_flipped.json,301185,654071,28,Woman
44,124044,final-intermixed-textured,v2,jsons/MX_seq40_0_VE125_flipped.json,http://54.235.29.9/FacialAge/BNav_EC2/DepthDuration/MX_fS_VE_MTurk/MX_fS_HTML.html#252,252,1440,837,1440,900,1-12-2024,20-39-6,45,catch_stimuli/c4_BC.png,125,,,0.0,3862,126,meters,jsons/MX_seq40_0_VE125_flipped.json,301185,654071,28,Woman
45,124044,final-intermixed-textured,v2,jsons/MX_seq40_0_VE125_flipped.json,http://54.235.29.9/FacialAge/BNav_EC2/DepthDuration/MX_fS_VE_MTurk/MX_fS_HTML.html#252,252,1440,837,1440,900,1-12-2024,20-39-6,46,VR_target_stimuli/s32_1.3x_1.5_224.png,125,1.3x,1.5,5.0,4280,125,meters,jsons/MX_seq40_0_VE125_flipped.json,301185,654071,28,Woman
46,124044,final-intermixed-textured,v2,jsons/MX_seq40_0_VE125_flipped.json,http://54.235.29.9/FacialAge/BNav_EC2/DepthDuration/MX_fS_VE_MTurk/MX_fS_HTML.html#252,252,1440,837,1440,900,1-12-2024,20-39-6,47,VR_target_stimuli/s18_1x_2.25_353_BC.png,125,1x,2.25,3.5,7056,125,meters,jsons/MX_seq40_0_VE125_flipped.json,301185,654071,28,Woman
47,124044,final-intermixed-textured,v2,jsons/MX_seq40_0_VE125_flipped.json,http://54.235.29.9/FacialAge/BNav_EC2/DepthDuration/MX_fS_VE_MTurk/MX_fS_HTML.html#252,252,1440,837,1440,900,1-12-2024,20-39-6,48,VR_target_stimuli/s39_1x_1_207.png,125,1x,1.0,2.0,2806,125,meters,jsons/MX_seq40_0_VE125_flipped.json,301185,654071,28,Woman
48,124044,final-intermixed-textured,v2,jsons/MX_seq40_0_VE125_flipped.json,http://54.235.29.9/FacialAge/BNav_EC2/DepthDuration/MX_fS_VE_MTurk/MX_fS_HTML.html#252,252,1440,837,1440,900,1-12-2024,20-39-6,49,VR_target_stimuli/s51_0.75x_3.64_460.png,125,0.75x,3.64,4.5,3872,125,meters,jsons/MX_seq40_0_VE125_flipped.json,301185,654071,28,Woman
49,124044,final-intermixed-textured,v2,jsons/MX_seq40_0_VE125_flipped.json,http://54.235.29.9/FacialAge/BNav_EC2/DepthDuration/MX_fS_VE_MTurk/MX_fS_HTML.html#252,252,1440,837,1440,900,1-12-2024,20-39-6,50,VR_target_stimuli/s43_1.3x_2.2_363.png,125,1.3x,2.2,5.5,3710,125,meters,jsons/MX_seq40_0_VE125_flipped.json,301185,654071,28,Woman
50,124044,final-intermixed-textured,v2,jsons/MX_seq40_0_VE125_flipped.json,http://54.235.29.9/FacialAge/BNav_EC2/DepthDuration/MX_fS_VE_MTurk/MX_fS_HTML.html#252,252,1440,837,1440,900,1-12-2024,20-39-6,51,VR_target_stimuli/s24_0.75x_3.3_344_BC.png,125,0.75x,3.3,6.5,3406,124,meters,jsons/MX_seq40_0_VE125_flipped.json,301185,654071,28,Woman
51,124044,final-intermixed-textured,v2,jsons/MX_seq40_0_VE125_flipped.json,http://54.235.29.9/FacialAge/BNav_EC2/DepthDuration/MX_fS_VE_MTurk/MX_fS_HTML.html#252,252,1440,837,1440,900,1-12-2024,20-39-6,52,VR_target_stimuli/s10_1x_2.7_324_BC.png,125,1x,2.7,4.5,5586,125,meters,jsons/MX_seq40_0_VE125_flipped.json,301185,654071,28,Woman
52,124044,final-intermixed-textured,v2,jsons/MX_seq40_0_VE125_flipped.json,http://54.235.29.9/FacialAge/BNav_EC2/DepthDuration/MX_fS_VE_MTurk/MX_fS_HTML.html#252,252,1440,837,1440,900,1-12-2024,20-39-6,53,catch_stimuli/c5_BC.png,125,,,0.0,2862,125,meters,jsons/MX_seq40_0_VE125_flipped.json,301185,654071,28,Woman
53,124044,final-intermixed-textured,v2,jsons/MX_seq40_0_VE125_flipped.json,http://54.235.29.9/FacialAge/BNav_EC2/DepthDuration/MX_fS_VE_MTurk/MX_fS_HTML.html#252,252,1440,837,1440,900,1-12-2024,20-39-6,54,VR_target_stimuli/s36_1.3x_4.1_442_BC.png,125,1.3x,4.1,6.5,4745,125,meters,jsons/MX_seq40_0_VE125_flipped.json,301185,654071,28,Woman
54,124044,final-intermixed-textured,v2,jsons/MX_seq40_0_VE125_flipped.json,http://54.235.29.9/FacialAge/BNav_EC2/DepthDuration/MX_fS_VE_MTurk/MX_fS_HTML.html#252,252,1440,837,1440,900,1-12-2024,20-39-6,55,VR_target_stimuli/s40_1x_1.2_319.png,125,1x,1.2,3.0,2748,125,meters,jsons/MX_seq40_0_VE125_flipped.json,301185,654071,28,Woman
55,124044,final-intermixed-textured,v2,jsons/MX_seq40_0_VE125_flipped.json,http://54.235.29.9/FacialAge/BNav_EC2/DepthDuration/MX_fS_VE_MTurk/MX_fS_HTML.html#252,252,1440,837,1440,900,1-12-2024,20-39-6,56,VR_target_stimuli/s41_0.75x_2.1_281_BC.png,125,0.75x,2.1,4.5,3190,125,meters,jsons/MX_seq40_0_VE125_flipped.json,301185,654071,28,Woman
56,124044,final-intermixed-textured,v2,jsons/MX_seq40_0_VE125_flipped.json,http://54.235.29.9/FacialAge/BNav_EC2/DepthDuration/MX_fS_VE_MTurk/MX_fS_HTML.html#252,252,1440,837,1440,900,1-12-2024,20-39-6,57,VR_target_stimuli/s45_1.3x_3.5_377.png,125,1.3x,3.5,5.0,3343,126,meters,jsons/MX_seq40_0_VE125_flipped.json,301185,654071,28,Woman
57,124044,final-intermixed-textured,v2,jsons/MX_seq40_0_VE125_flipped.json,http://54.235.29.9/FacialAge/BNav_EC2/DepthDuration/MX_fS_VE_MTurk/MX_fS_HTML.html#252,252,1440,837,1440,900,1-12-2024,20-39-6,58,VR_target_stimuli/s23_1.3x_3.65_354_BC.png,125,1.3x,3.65,6.5,5306,124,meters,jsons/MX_seq40_0_VE125_flipped.json,301185,654071,28,Woman
58,124044,final-intermixed-textured,v2,jsons/MX_seq40_0_VE125_flipped.json,http://54.235.29.9/FacialAge/BNav_EC2/DepthDuration/MX_fS_VE_MTurk/MX_fS_HTML.html#252,252,1440,837,1440,900,1-12-2024,20-39-6,59,VR_target_stimuli/s26_1x_4_433_BC.png,125,1x,4.0,7.0,2821,125,meters,jsons/MX_seq40_0_VE125_flipped.json,301185,654071,28,Woman
59,124044,final-intermixed-textured,v2,jsons/MX_seq40_0_VE125_flipped.json,http://54.235.29.9/FacialAge/BNav_EC2/DepthDuration/MX_fS_VE_MTurk/MX_fS_HTML.html#252,252,1440,837,1440,900,1-12-2024,20-39-6,60,VR_target_stimuli/s12_0.75x_3.1_364.png,125,0.75x,3.1,6.0,2709,125,meters,jsons/MX_seq40_0_VE125_flipped.json,301185,654071,28,Woman
