,subjID,experimentName,versionName,sequenceName,url,selected_row,windowWidth,windowHeight,screenWidth,screenHeight,startDate,startTime,trial,stimulus,duration,scale,actual_depth,depth_estimate,trial_RT,log_sceneDuration,unitSelection,seq_filepath,experimentTime,totalTime,age,gender
0,127045,final-intermixed-textured,v2,jsons/MX_seq29_2_VE125.json,http://54.235.29.9/FacialAge/BNav_EC2/DepthDuration/MX_fS_VE_MTurk/MX_fS_HTML.html#57,57,1280,585,1280,720,1-13-2024,0-48-46,1,VR_target_stimuli/s51_1x_3.64_461.png,125,1x,3.64,2.0,3601,131,meters,jsons/MX_seq29_2_VE125.json,191218,312038,25,Woman
1,127045,final-intermixed-textured,v2,jsons/MX_seq29_2_VE125.json,http://54.235.29.9/FacialAge/BNav_EC2/DepthDuration/MX_fS_VE_MTurk/MX_fS_HTML.html#57,57,1280,585,1280,720,1-13-2024,0-48-46,2,VR_target_stimuli/s43_1.3x_2.2_363_BC.png,125,1.3x,2.2,1.5,6253,120,meters,jsons/MX_seq29_2_VE125.json,191218,312038,25,Woman
2,127045,final-intermixed-textured,v2,jsons/MX_seq29_2_VE125.json,http://54.235.29.9/FacialAge/BNav_EC2/DepthDuration/MX_fS_VE_MTurk/MX_fS_HTML.html#57,57,1280,585,1280,720,1-13-2024,0-48-46,3,VR_target_stimuli/s24_0.75x_3.3_344.png,125,0.75x,3.3,2.0,4083,132,meters,jsons/MX_seq29_2_VE125.json,191218,312038,25,Woman
3,127045,final-intermixed-textured,v2,jsons/MX_seq29_2_VE125.json,http://54.235.29.9/FacialAge/BNav_EC2/DepthDuration/MX_fS_VE_MTurk/MX_fS_HTML.html#57,57,1280,585,1280,720,1-13-2024,0-48-46,4,VR_target_stimuli/s10_1.3x_2.7_325.png,125,1.3x,2.7,2.0,4393,114,meters,jsons/MX_seq29_2_VE125.json,191218,312038,25,Woman
4,127045,final-intermixed-textured,v2,jsons/MX_seq29_2_VE125.json,http://54.235.29.9/FacialAge/BNav_EC2/DepthDuration/MX_fS_VE_MTurk/MX_fS_HTML.html#57,57,1280,585,1280,720,1-13-2024,0-48-46,5,VR_target_stimuli/s36_1x_4.1_423_BC.png,125,1x,4.1,3.0,2500,121,meters,jsons/MX_seq29_2_VE125.json,191218,312038,25,Woman
5,127045,final-intermixed-textured,v2,jsons/MX_seq29_2_VE125.json,http://54.235.29.9/FacialAge/BNav_EC2/DepthDuration/MX_fS_VE_MTurk/MX_fS_HTML.html#57,57,1280,585,1280,720,1-13-2024,0-48-46,6,VR_target_stimuli/s40_0.75x_1.2_308_BC.png,125,0.75x,1.2,1.0,2465,117,meters,jsons/MX_seq29_2_VE125.json,191218,312038,25,Woman
6,127045,final-intermixed-textured,v2,jsons/MX_seq29_2_VE125.json,http://54.235.29.9/FacialAge/BNav_EC2/DepthDuration/MX_fS_VE_MTurk/MX_fS_HTML.html#57,57,1280,585,1280,720,1-13-2024,0-48-46,7,catch_stimuli/c0.png,125,,,0.0,3555,131,meters,jsons/MX_seq29_2_VE125.json,191218,312038,25,Woman
7,127045,final-intermixed-textured,v2,jsons/MX_seq29_2_VE125.json,http://54.235.29.9/FacialAge/BNav_EC2/DepthDuration/MX_fS_VE_MTurk/MX_fS_HTML.html#57,57,1280,585,1280,720,1-13-2024,0-48-46,8,VR_target_stimuli/s41_0.75x_2.1_281.png,125,0.75x,2.1,1.5,4536,123,meters,jsons/MX_seq29_2_VE125.json,191218,312038,25,Woman
8,127045,final-intermixed-textured,v2,jsons/MX_seq29_2_VE125.json,http://54.235.29.9/FacialAge/BNav_EC2/DepthDuration/MX_fS_VE_MTurk/MX_fS_HTML.html#57,57,1280,585,1280,720,1-13-2024,0-48-46,9,VR_target_stimuli/s45_1.3x_3.5_377_BC.png,125,1.3x,3.5,2.0,2992,123,meters,jsons/MX_seq29_2_VE125.json,191218,312038,25,Woman
9,127045,final-intermixed-textured,v2,jsons/MX_seq29_2_VE125.json,http://54.235.29.9/FacialAge/BNav_EC2/DepthDuration/MX_fS_VE_MTurk/MX_fS_HTML.html#57,57,1280,585,1280,720,1-13-2024,0-48-46,10,VR_target_stimuli/s23_1x_3.65_353.png,125,1x,3.65,1.0,3283,118,meters,jsons/MX_seq29_2_VE125.json,191218,312038,25,Woman
10,127045,final-intermixed-textured,v2,jsons/MX_seq29_2_VE125.json,http://54.235.29.9/FacialAge/BNav_EC2/DepthDuration/MX_fS_VE_MTurk/MX_fS_HTML.html#57,57,1280,585,1280,720,1-13-2024,0-48-46,11,VR_target_stimuli/s26_1.3x_4_441.png,125,1.3x,4.0,1.25,4598,127,meters,jsons/MX_seq29_2_VE125.json,191218,312038,25,Woman
11,127045,final-intermixed-textured,v2,jsons/MX_seq29_2_VE125.json,http://54.235.29.9/FacialAge/BNav_EC2/DepthDuration/MX_fS_VE_MTurk/MX_fS_HTML.html#57,57,1280,585,1280,720,1-13-2024,0-48-46,12,VR_target_stimuli/s12_0.75x_3.1_364_BC.png,125,0.75x,3.1,1.5,7103,121,meters,jsons/MX_seq29_2_VE125.json,191218,312038,25,Woman
12,127045,final-intermixed-textured,v2,jsons/MX_seq29_2_VE125.json,http://54.235.29.9/FacialAge/BNav_EC2/DepthDuration/MX_fS_VE_MTurk/MX_fS_HTML.html#57,57,1280,585,1280,720,1-13-2024,0-48-46,13,VR_target_stimuli/s30_1x_2.3_334_BC.png,125,1x,2.3,2.0,3217,119,meters,jsons/MX_seq29_2_VE125.json,191218,312038,25,Woman
13,127045,final-intermixed-textured,v2,jsons/MX_seq29_2_VE125.json,http://54.235.29.9/FacialAge/BNav_EC2/DepthDuration/MX_fS_VE_MTurk/MX_fS_HTML.html#57,57,1280,585,1280,720,1-13-2024,0-48-46,14,VR_target_stimuli/s16_0.75x_1_217_BC.png,125,0.75x,1.0,1.0,3411,118,meters,jsons/MX_seq29_2_VE125.json,191218,312038,25,Woman
14,127045,final-intermixed-textured,v2,jsons/MX_seq29_2_VE125.json,http://54.235.29.9/FacialAge/BNav_EC2/DepthDuration/MX_fS_VE_MTurk/MX_fS_HTML.html#57,57,1280,585,1280,720,1-13-2024,0-48-46,15,VR_target_stimuli/s17_1.3x_1.8_300.png,125,1.3x,1.8,1.5,4151,123,meters,jsons/MX_seq29_2_VE125.json,191218,312038,25,Woman
15,127045,final-intermixed-textured,v2,jsons/MX_seq29_2_VE125.json,http://54.235.29.9/FacialAge/BNav_EC2/DepthDuration/MX_fS_VE_MTurk/MX_fS_HTML.html#57,57,1280,585,1280,720,1-13-2024,0-48-46,16,VR_target_stimuli/s5_1x_4_378_BC.png,125,1x,4.0,3.0,2042,136,meters,jsons/MX_seq29_2_VE125.json,191218,312038,25,Woman
16,127045,final-intermixed-textured,v2,jsons/MX_seq29_2_VE125.json,http://54.235.29.9/FacialAge/BNav_EC2/DepthDuration/MX_fS_VE_MTurk/MX_fS_HTML.html#57,57,1280,585,1280,720,1-13-2024,0-48-46,17,catch_stimuli/c1.png,125,,,0.0,2921,129,meters,jsons/MX_seq29_2_VE125.json,191218,312038,25,Woman
17,127045,final-intermixed-textured,v2,jsons/MX_seq29_2_VE125.json,http://54.235.29.9/FacialAge/BNav_EC2/DepthDuration/MX_fS_VE_MTurk/MX_fS_HTML.html#57,57,1280,585,1280,720,1-13-2024,0-48-46,18,VR_target_stimuli/s37_1x_3.3_563.png,125,1x,3.3,1.0,2260,112,meters,jsons/MX_seq29_2_VE125.json,191218,312038,25,Woman
18,127045,final-intermixed-textured,v2,jsons/MX_seq29_2_VE125.json,http://54.235.29.9/FacialAge/BNav_EC2/DepthDuration/MX_fS_VE_MTurk/MX_fS_HTML.html#57,57,1280,585,1280,720,1-13-2024,0-48-46,19,VR_target_stimuli/s46_0.75x_2.42_343.png,125,0.75x,2.42,1.5,2244,124,meters,jsons/MX_seq29_2_VE125.json,191218,312038,25,Woman
19,127045,final-intermixed-textured,v2,jsons/MX_seq29_2_VE125.json,http://54.235.29.9/FacialAge/BNav_EC2/DepthDuration/MX_fS_VE_MTurk/MX_fS_HTML.html#57,57,1280,585,1280,720,1-13-2024,0-48-46,20,VR_target_stimuli/s22_1.3x_4.29_364_BC.png,125,1.3x,4.29,2.5,2796,117,meters,jsons/MX_seq29_2_VE125.json,191218,312038,25,Woman
20,127045,final-intermixed-textured,v2,jsons/MX_seq29_2_VE125.json,http://54.235.29.9/FacialAge/BNav_EC2/DepthDuration/MX_fS_VE_MTurk/MX_fS_HTML.html#57,57,1280,585,1280,720,1-13-2024,0-48-46,21,VR_target_stimuli/s42_0.75x_3.2_301_BC.png,125,0.75x,3.2,3.0,4675,132,meters,jsons/MX_seq29_2_VE125.json,191218,312038,25,Woman
21,127045,final-intermixed-textured,v2,jsons/MX_seq29_2_VE125.json,http://54.235.29.9/FacialAge/BNav_EC2/DepthDuration/MX_fS_VE_MTurk/MX_fS_HTML.html#57,57,1280,585,1280,720,1-13-2024,0-48-46,22,VR_target_stimuli/s25_1x_1.4_290.png,125,1x,1.4,1.0,1865,124,meters,jsons/MX_seq29_2_VE125.json,191218,312038,25,Woman
22,127045,final-intermixed-textured,v2,jsons/MX_seq29_2_VE125.json,http://54.235.29.9/FacialAge/BNav_EC2/DepthDuration/MX_fS_VE_MTurk/MX_fS_HTML.html#57,57,1280,585,1280,720,1-13-2024,0-48-46,23,VR_target_stimuli/s50_1.3x_4.53_518.png,125,1.3x,4.53,2.0,2107,116,meters,jsons/MX_seq29_2_VE125.json,191218,312038,25,Woman
23,127045,final-intermixed-textured,v2,jsons/MX_seq29_2_VE125.json,http://54.235.29.9/FacialAge/BNav_EC2/DepthDuration/MX_fS_VE_MTurk/MX_fS_HTML.html#57,57,1280,585,1280,720,1-13-2024,0-48-46,24,VR_target_stimuli/s53_1x_1.6_387_BC.png,125,1x,1.6,0.5,2582,126,meters,jsons/MX_seq29_2_VE125.json,191218,312038,25,Woman
24,127045,final-intermixed-textured,v2,jsons/MX_seq29_2_VE125.json,http://54.235.29.9/FacialAge/BNav_EC2/DepthDuration/MX_fS_VE_MTurk/MX_fS_HTML.html#57,57,1280,585,1280,720,1-13-2024,0-48-46,25,VR_target_stimuli/s38_0.75x_3.55_346.png,125,0.75x,3.55,1.0,1790,128,meters,jsons/MX_seq29_2_VE125.json,191218,312038,25,Woman
25,127045,final-intermixed-textured,v2,jsons/MX_seq29_2_VE125.json,http://54.235.29.9/FacialAge/BNav_EC2/DepthDuration/MX_fS_VE_MTurk/MX_fS_HTML.html#57,57,1280,585,1280,720,1-13-2024,0-48-46,26,catch_stimuli/c2.png,125,,,0.0,2198,133,meters,jsons/MX_seq29_2_VE125.json,191218,312038,25,Woman
26,127045,final-intermixed-textured,v2,jsons/MX_seq29_2_VE125.json,http://54.235.29.9/FacialAge/BNav_EC2/DepthDuration/MX_fS_VE_MTurk/MX_fS_HTML.html#57,57,1280,585,1280,720,1-13-2024,0-48-46,27,VR_target_stimuli/s9_1.3x_1.2_276_BC.png,125,1.3x,1.2,0.5,3670,131,meters,jsons/MX_seq29_2_VE125.json,191218,312038,25,Woman
27,127045,final-intermixed-textured,v2,jsons/MX_seq29_2_VE125.json,http://54.235.29.9/FacialAge/BNav_EC2/DepthDuration/MX_fS_VE_MTurk/MX_fS_HTML.html#57,57,1280,585,1280,720,1-13-2024,0-48-46,28,VR_target_stimuli/s44_1.3x_4.4_325.png,125,1.3x,4.4,1.0,2798,117,meters,jsons/MX_seq29_2_VE125.json,191218,312038,25,Woman
28,127045,final-intermixed-textured,v2,jsons/MX_seq29_2_VE125.json,http://54.235.29.9/FacialAge/BNav_EC2/DepthDuration/MX_fS_VE_MTurk/MX_fS_HTML.html#57,57,1280,585,1280,720,1-13-2024,0-48-46,29,VR_target_stimuli/s3_1x_5_385_BC.png,125,1x,5.0,2.0,1952,118,meters,jsons/MX_seq29_2_VE125.json,191218,312038,25,Woman
29,127045,final-intermixed-textured,v2,jsons/MX_seq29_2_VE125.json,http://54.235.29.9/FacialAge/BNav_EC2/DepthDuration/MX_fS_VE_MTurk/MX_fS_HTML.html#57,57,1280,585,1280,720,1-13-2024,0-48-46,30,VR_target_stimuli/s1_0.75x_1.7_265_BC.png,125,0.75x,1.7,1.0,2086,123,meters,jsons/MX_seq29_2_VE125.json,191218,312038,25,Woman
30,127045,final-intermixed-textured,v2,jsons/MX_seq29_2_VE125.json,http://54.235.29.9/FacialAge/BNav_EC2/DepthDuration/MX_fS_VE_MTurk/MX_fS_HTML.html#57,57,1280,585,1280,720,1-13-2024,0-48-46,31,VR_target_stimuli/s11_1.3x_5_363_BC.png,125,1.3x,5.0,1.5,2481,136,meters,jsons/MX_seq29_2_VE125.json,191218,312038,25,Woman
31,127045,final-intermixed-textured,v2,jsons/MX_seq29_2_VE125.json,http://54.235.29.9/FacialAge/BNav_EC2/DepthDuration/MX_fS_VE_MTurk/MX_fS_HTML.html#57,57,1280,585,1280,720,1-13-2024,0-48-46,32,VR_target_stimuli/s2_0.75x_2.7_384.png,125,0.75x,2.7,2.0,1698,127,meters,jsons/MX_seq29_2_VE125.json,191218,312038,25,Woman
32,127045,final-intermixed-textured,v2,jsons/MX_seq29_2_VE125.json,http://54.235.29.9/FacialAge/BNav_EC2/DepthDuration/MX_fS_VE_MTurk/MX_fS_HTML.html#57,57,1280,585,1280,720,1-13-2024,0-48-46,33,VR_target_stimuli/s6_1x_2.1_293.png,125,1x,2.1,1.0,1438,127,meters,jsons/MX_seq29_2_VE125.json,191218,312038,25,Woman
33,127045,final-intermixed-textured,v2,jsons/MX_seq29_2_VE125.json,http://54.235.29.9/FacialAge/BNav_EC2/DepthDuration/MX_fS_VE_MTurk/MX_fS_HTML.html#57,57,1280,585,1280,720,1-13-2024,0-48-46,34,catch_stimuli/c3.png,125,,,0.0,2134,133,meters,jsons/MX_seq29_2_VE125.json,191218,312038,25,Woman
34,127045,final-intermixed-textured,v2,jsons/MX_seq29_2_VE125.json,http://54.235.29.9/FacialAge/BNav_EC2/DepthDuration/MX_fS_VE_MTurk/MX_fS_HTML.html#57,57,1280,585,1280,720,1-13-2024,0-48-46,35,VR_target_stimuli/s0_0.75x_2.6_345_BC.png,125,0.75x,2.6,2.0,1429,117,meters,jsons/MX_seq29_2_VE125.json,191218,312038,25,Woman
35,127045,final-intermixed-textured,v2,jsons/MX_seq29_2_VE125.json,http://54.235.29.9/FacialAge/BNav_EC2/DepthDuration/MX_fS_VE_MTurk/MX_fS_HTML.html#57,57,1280,585,1280,720,1-13-2024,0-48-46,36,VR_target_stimuli/s34_1.3x_2.8_294.png,125,1.3x,2.8,1.5,2579,115,meters,jsons/MX_seq29_2_VE125.json,191218,312038,25,Woman
36,127045,final-intermixed-textured,v2,jsons/MX_seq29_2_VE125.json,http://54.235.29.9/FacialAge/BNav_EC2/DepthDuration/MX_fS_VE_MTurk/MX_fS_HTML.html#57,57,1280,585,1280,720,1-13-2024,0-48-46,37,VR_target_stimuli/s13_1x_2.4_310.png,125,1x,2.4,2.0,1821,117,meters,jsons/MX_seq29_2_VE125.json,191218,312038,25,Woman
37,127045,final-intermixed-textured,v2,jsons/MX_seq29_2_VE125.json,http://54.235.29.9/FacialAge/BNav_EC2/DepthDuration/MX_fS_VE_MTurk/MX_fS_HTML.html#57,57,1280,585,1280,720,1-13-2024,0-48-46,38,VR_target_stimuli/s14_1x_ 3.83_357_BC.png,125,1x,3.83,3.0,1584,117,meters,jsons/MX_seq29_2_VE125.json,191218,312038,25,Woman
38,127045,final-intermixed-textured,v2,jsons/MX_seq29_2_VE125.json,http://54.235.29.9/FacialAge/BNav_EC2/DepthDuration/MX_fS_VE_MTurk/MX_fS_HTML.html#57,57,1280,585,1280,720,1-13-2024,0-48-46,39,VR_target_stimuli/s47_0.75x_3.45_366.png,125,0.75x,3.45,2.0,2196,125,meters,jsons/MX_seq29_2_VE125.json,191218,312038,25,Woman
39,127045,final-intermixed-textured,v2,jsons/MX_seq29_2_VE125.json,http://54.235.29.9/FacialAge/BNav_EC2/DepthDuration/MX_fS_VE_MTurk/MX_fS_HTML.html#57,57,1280,585,1280,720,1-13-2024,0-48-46,40,VR_target_stimuli/s29_1.3x_1.3_253_BC.png,125,1.3x,1.3,1.0,1349,122,meters,jsons/MX_seq29_2_VE125.json,191218,312038,25,Woman
40,127045,final-intermixed-textured,v2,jsons/MX_seq29_2_VE125.json,http://54.235.29.9/FacialAge/BNav_EC2/DepthDuration/MX_fS_VE_MTurk/MX_fS_HTML.html#57,57,1280,585,1280,720,1-13-2024,0-48-46,41,VR_target_stimuli/s28_0.75x_3.2_357_BC.png,125,0.75x,3.2,2.0,2630,118,meters,jsons/MX_seq29_2_VE125.json,191218,312038,25,Woman
41,127045,final-intermixed-textured,v2,jsons/MX_seq29_2_VE125.json,http://54.235.29.9/FacialAge/BNav_EC2/DepthDuration/MX_fS_VE_MTurk/MX_fS_HTML.html#57,57,1280,585,1280,720,1-13-2024,0-48-46,42,VR_target_stimuli/s48_1x_2.55_256_BC.png,125,1x,2.55,2.0,1416,127,meters,jsons/MX_seq29_2_VE125.json,191218,312038,25,Woman
42,127045,final-intermixed-textured,v2,jsons/MX_seq29_2_VE125.json,http://54.235.29.9/FacialAge/BNav_EC2/DepthDuration/MX_fS_VE_MTurk/MX_fS_HTML.html#57,57,1280,585,1280,720,1-13-2024,0-48-46,43,VR_target_stimuli/s19_1.3x_1.21_270.png,125,1.3x,1.21,1.0,1168,118,meters,jsons/MX_seq29_2_VE125.json,191218,312038,25,Woman
43,127045,final-intermixed-textured,v2,jsons/MX_seq29_2_VE125.json,http://54.235.29.9/FacialAge/BNav_EC2/DepthDuration/MX_fS_VE_MTurk/MX_fS_HTML.html#57,57,1280,585,1280,720,1-13-2024,0-48-46,44,VR_target_stimuli/s21_1x_4.22_379.png,125,1x,4.22,4.0,2139,119,meters,jsons/MX_seq29_2_VE125.json,191218,312038,25,Woman
44,127045,final-intermixed-textured,v2,jsons/MX_seq29_2_VE125.json,http://54.235.29.9/FacialAge/BNav_EC2/DepthDuration/MX_fS_VE_MTurk/MX_fS_HTML.html#57,57,1280,585,1280,720,1-13-2024,0-48-46,45,catch_stimuli/c4.png,125,,,0.0,2452,123,meters,jsons/MX_seq29_2_VE125.json,191218,312038,25,Woman
45,127045,final-intermixed-textured,v2,jsons/MX_seq29_2_VE125.json,http://54.235.29.9/FacialAge/BNav_EC2/DepthDuration/MX_fS_VE_MTurk/MX_fS_HTML.html#57,57,1280,585,1280,720,1-13-2024,0-48-46,46,VR_target_stimuli/s8_0.75x_3.1_325.png,125,0.75x,3.1,3.0,1918,127,meters,jsons/MX_seq29_2_VE125.json,191218,312038,25,Woman
46,127045,final-intermixed-textured,v2,jsons/MX_seq29_2_VE125.json,http://54.235.29.9/FacialAge/BNav_EC2/DepthDuration/MX_fS_VE_MTurk/MX_fS_HTML.html#57,57,1280,585,1280,720,1-13-2024,0-48-46,47,VR_target_stimuli/s27_1.3x_1.76_250_BC.png,125,1.3x,1.76,2.0,1381,130,meters,jsons/MX_seq29_2_VE125.json,191218,312038,25,Woman
47,127045,final-intermixed-textured,v2,jsons/MX_seq29_2_VE125.json,http://54.235.29.9/FacialAge/BNav_EC2/DepthDuration/MX_fS_VE_MTurk/MX_fS_HTML.html#57,57,1280,585,1280,720,1-13-2024,0-48-46,48,VR_target_stimuli/s15_1.3x_4.2_389.png,125,1.3x,4.2,3.0,1474,113,meters,jsons/MX_seq29_2_VE125.json,191218,312038,25,Woman
48,127045,final-intermixed-textured,v2,jsons/MX_seq29_2_VE125.json,http://54.235.29.9/FacialAge/BNav_EC2/DepthDuration/MX_fS_VE_MTurk/MX_fS_HTML.html#57,57,1280,585,1280,720,1-13-2024,0-48-46,49,VR_target_stimuli/s4_1x_1.4_313.png,125,1x,1.4,1.0,2156,133,meters,jsons/MX_seq29_2_VE125.json,191218,312038,25,Woman
49,127045,final-intermixed-textured,v2,jsons/MX_seq29_2_VE125.json,http://54.235.29.9/FacialAge/BNav_EC2/DepthDuration/MX_fS_VE_MTurk/MX_fS_HTML.html#57,57,1280,585,1280,720,1-13-2024,0-48-46,50,VR_target_stimuli/s35_0.75x_2_323.png,125,0.75x,2.0,1.25,6472,133,meters,jsons/MX_seq29_2_VE125.json,191218,312038,25,Woman
50,127045,final-intermixed-textured,v2,jsons/MX_seq29_2_VE125.json,http://54.235.29.9/FacialAge/BNav_EC2/DepthDuration/MX_fS_VE_MTurk/MX_fS_HTML.html#57,57,1280,585,1280,720,1-13-2024,0-48-46,51,VR_target_stimuli/s49_1x_4.67_341_BC.png,125,1x,4.67,3.0,1775,123,meters,jsons/MX_seq29_2_VE125.json,191218,312038,25,Woman
51,127045,final-intermixed-textured,v2,jsons/MX_seq29_2_VE125.json,http://54.235.29.9/FacialAge/BNav_EC2/DepthDuration/MX_fS_VE_MTurk/MX_fS_HTML.html#57,57,1280,585,1280,720,1-13-2024,0-48-46,52,VR_target_stimuli/s7_1.3x_1.5_256_BC.png,125,1.3x,1.5,2.0,1395,126,meters,jsons/MX_seq29_2_VE125.json,191218,312038,25,Woman
52,127045,final-intermixed-textured,v2,jsons/MX_seq29_2_VE125.json,http://54.235.29.9/FacialAge/BNav_EC2/DepthDuration/MX_fS_VE_MTurk/MX_fS_HTML.html#57,57,1280,585,1280,720,1-13-2024,0-48-46,53,catch_stimuli/c5.png,125,,,0.0,1986,119,meters,jsons/MX_seq29_2_VE125.json,191218,312038,25,Woman
53,127045,final-intermixed-textured,v2,jsons/MX_seq29_2_VE125.json,http://54.235.29.9/FacialAge/BNav_EC2/DepthDuration/MX_fS_VE_MTurk/MX_fS_HTML.html#57,57,1280,585,1280,720,1-13-2024,0-48-46,54,VR_target_stimuli/s20_0.75x_4.99_390_BC.png,125,0.75x,4.99,2.0,3008,120,meters,jsons/MX_seq29_2_VE125.json,191218,312038,25,Woman
54,127045,final-intermixed-textured,v2,jsons/MX_seq29_2_VE125.json,http://54.235.29.9/FacialAge/BNav_EC2/DepthDuration/MX_fS_VE_MTurk/MX_fS_HTML.html#57,57,1280,585,1280,720,1-13-2024,0-48-46,55,VR_target_stimuli/s31_1.3x_4.96_342.png,125,1.3x,4.96,1.5,3222,125,meters,jsons/MX_seq29_2_VE125.json,191218,312038,25,Woman
55,127045,final-intermixed-textured,v2,jsons/MX_seq29_2_VE125.json,http://54.235.29.9/FacialAge/BNav_EC2/DepthDuration/MX_fS_VE_MTurk/MX_fS_HTML.html#57,57,1280,585,1280,720,1-13-2024,0-48-46,56,VR_target_stimuli/s33_1x_3.1_366.png,125,1x,3.1,2.0,1690,131,meters,jsons/MX_seq29_2_VE125.json,191218,312038,25,Woman
56,127045,final-intermixed-textured,v2,jsons/MX_seq29_2_VE125.json,http://54.235.29.9/FacialAge/BNav_EC2/DepthDuration/MX_fS_VE_MTurk/MX_fS_HTML.html#57,57,1280,585,1280,720,1-13-2024,0-48-46,57,VR_target_stimuli/s52_0.75x_3.2_270.png,125,0.75x,3.2,3.0,1585,126,meters,jsons/MX_seq29_2_VE125.json,191218,312038,25,Woman
57,127045,final-intermixed-textured,v2,jsons/MX_seq29_2_VE125.json,http://54.235.29.9/FacialAge/BNav_EC2/DepthDuration/MX_fS_VE_MTurk/MX_fS_HTML.html#57,57,1280,585,1280,720,1-13-2024,0-48-46,58,VR_target_stimuli/s32_0.75x_1.5_213_BC.png,125,0.75x,1.5,2.0,3216,130,meters,jsons/MX_seq29_2_VE125.json,191218,312038,25,Woman
58,127045,final-intermixed-textured,v2,jsons/MX_seq29_2_VE125.json,http://54.235.29.9/FacialAge/BNav_EC2/DepthDuration/MX_fS_VE_MTurk/MX_fS_HTML.html#57,57,1280,585,1280,720,1-13-2024,0-48-46,59,VR_target_stimuli/s18_1.3x_2.25_368_BC.png,125,1.3x,2.25,1.0,1448,110,meters,jsons/MX_seq29_2_VE125.json,191218,312038,25,Woman
59,127045,final-intermixed-textured,v2,jsons/MX_seq29_2_VE125.json,http://54.235.29.9/FacialAge/BNav_EC2/DepthDuration/MX_fS_VE_MTurk/MX_fS_HTML.html#57,57,1280,585,1280,720,1-13-2024,0-48-46,60,VR_target_stimuli/s39_1x_1_207_BC.png,125,1x,1.0,1.0,1348,117,meters,jsons/MX_seq29_2_VE125.json,191218,312038,25,Woman
