,subjID,experimentName,versionName,sequenceName,url,selected_row,windowWidth,windowHeight,screenWidth,screenHeight,startDate,startTime,trial,stimulus,duration,scale,actual_depth,depth_estimate,trial_RT,log_sceneDuration,unitSelection,seq_filepath,experimentTime,totalTime,age,gender
0,130973,final-intermixed-textured,v2,jsons/MX_seq8_1_VE125.json,http://54.235.29.9/FacialAge/BNav_EC2/DepthDuration/MX_fS_VE_MTurk/MX_fS_HTML.html#6,6,1920,1080,1920,1080,1-12-2024,12-15-36,1,VR_target_stimuli/s14_1.3x_3.83_359_BC.png,125,1.3x,3.83,4.0,4319,121,meters,jsons/MX_seq8_1_VE125.json,255996,673266,25,Woman
1,130973,final-intermixed-textured,v2,jsons/MX_seq8_1_VE125.json,http://54.235.29.9/FacialAge/BNav_EC2/DepthDuration/MX_fS_VE_MTurk/MX_fS_HTML.html#6,6,1920,1080,1920,1080,1-12-2024,12-15-36,2,VR_target_stimuli/s47_0.75x_3.45_366_BC.png,125,0.75x,3.45,3.0,3755,123,meters,jsons/MX_seq8_1_VE125.json,255996,673266,25,Woman
2,130973,final-intermixed-textured,v2,jsons/MX_seq8_1_VE125.json,http://54.235.29.9/FacialAge/BNav_EC2/DepthDuration/MX_fS_VE_MTurk/MX_fS_HTML.html#6,6,1920,1080,1920,1080,1-12-2024,12-15-36,3,VR_target_stimuli/s29_1x_1.3_250_BC.png,125,1x,1.3,1.5,4686,123,meters,jsons/MX_seq8_1_VE125.json,255996,673266,25,Woman
3,130973,final-intermixed-textured,v2,jsons/MX_seq8_1_VE125.json,http://54.235.29.9/FacialAge/BNav_EC2/DepthDuration/MX_fS_VE_MTurk/MX_fS_HTML.html#6,6,1920,1080,1920,1080,1-12-2024,12-15-36,4,VR_target_stimuli/s28_0.75x_3.2_357.png,125,0.75x,3.2,2.5,6358,123,meters,jsons/MX_seq8_1_VE125.json,255996,673266,25,Woman
4,130973,final-intermixed-textured,v2,jsons/MX_seq8_1_VE125.json,http://54.235.29.9/FacialAge/BNav_EC2/DepthDuration/MX_fS_VE_MTurk/MX_fS_HTML.html#6,6,1920,1080,1920,1080,1-12-2024,12-15-36,5,VR_target_stimuli/s48_1.3x_2.55_255.png,125,1.3x,2.55,1.5,8066,124,meters,jsons/MX_seq8_1_VE125.json,255996,673266,25,Woman
5,130973,final-intermixed-textured,v2,jsons/MX_seq8_1_VE125.json,http://54.235.29.9/FacialAge/BNav_EC2/DepthDuration/MX_fS_VE_MTurk/MX_fS_HTML.html#6,6,1920,1080,1920,1080,1-12-2024,12-15-36,6,VR_target_stimuli/s19_1x_1.21_263.png,125,1x,1.21,1.0,2787,124,meters,jsons/MX_seq8_1_VE125.json,255996,673266,25,Woman
6,130973,final-intermixed-textured,v2,jsons/MX_seq8_1_VE125.json,http://54.235.29.9/FacialAge/BNav_EC2/DepthDuration/MX_fS_VE_MTurk/MX_fS_HTML.html#6,6,1920,1080,1920,1080,1-12-2024,12-15-36,7,catch_stimuli/c0.png,125,,,0.0,2818,126,meters,jsons/MX_seq8_1_VE125.json,255996,673266,25,Woman
7,130973,final-intermixed-textured,v2,jsons/MX_seq8_1_VE125.json,http://54.235.29.9/FacialAge/BNav_EC2/DepthDuration/MX_fS_VE_MTurk/MX_fS_HTML.html#6,6,1920,1080,1920,1080,1-12-2024,12-15-36,8,VR_target_stimuli/s21_1x_4.22_379.png,125,1x,4.22,3.0,3981,123,meters,jsons/MX_seq8_1_VE125.json,255996,673266,25,Woman
8,130973,final-intermixed-textured,v2,jsons/MX_seq8_1_VE125.json,http://54.235.29.9/FacialAge/BNav_EC2/DepthDuration/MX_fS_VE_MTurk/MX_fS_HTML.html#6,6,1920,1080,1920,1080,1-12-2024,12-15-36,9,VR_target_stimuli/s8_0.75x_3.1_325.png,125,0.75x,3.1,3.5,5997,122,meters,jsons/MX_seq8_1_VE125.json,255996,673266,25,Woman
9,130973,final-intermixed-textured,v2,jsons/MX_seq8_1_VE125.json,http://54.235.29.9/FacialAge/BNav_EC2/DepthDuration/MX_fS_VE_MTurk/MX_fS_HTML.html#6,6,1920,1080,1920,1080,1-12-2024,12-15-36,10,VR_target_stimuli/s27_1.3x_1.76_250.png,125,1.3x,1.76,2.0,2893,123,meters,jsons/MX_seq8_1_VE125.json,255996,673266,25,Woman
10,130973,final-intermixed-textured,v2,jsons/MX_seq8_1_VE125.json,http://54.235.29.9/FacialAge/BNav_EC2/DepthDuration/MX_fS_VE_MTurk/MX_fS_HTML.html#6,6,1920,1080,1920,1080,1-12-2024,12-15-36,11,VR_target_stimuli/s15_0.75x_4.2_388_BC.png,125,0.75x,4.2,3.0,3866,136,meters,jsons/MX_seq8_1_VE125.json,255996,673266,25,Woman
11,130973,final-intermixed-textured,v2,jsons/MX_seq8_1_VE125.json,http://54.235.29.9/FacialAge/BNav_EC2/DepthDuration/MX_fS_VE_MTurk/MX_fS_HTML.html#6,6,1920,1080,1920,1080,1-12-2024,12-15-36,12,VR_target_stimuli/s4_1x_1.4_313_BC.png,125,1x,1.4,2.0,5687,122,meters,jsons/MX_seq8_1_VE125.json,255996,673266,25,Woman
12,130973,final-intermixed-textured,v2,jsons/MX_seq8_1_VE125.json,http://54.235.29.9/FacialAge/BNav_EC2/DepthDuration/MX_fS_VE_MTurk/MX_fS_HTML.html#6,6,1920,1080,1920,1080,1-12-2024,12-15-36,13,VR_target_stimuli/s35_1.3x_2_338_BC.png,125,1.3x,2.0,2.5,4236,123,meters,jsons/MX_seq8_1_VE125.json,255996,673266,25,Woman
13,130973,final-intermixed-textured,v2,jsons/MX_seq8_1_VE125.json,http://54.235.29.9/FacialAge/BNav_EC2/DepthDuration/MX_fS_VE_MTurk/MX_fS_HTML.html#6,6,1920,1080,1920,1080,1-12-2024,12-15-36,14,VR_target_stimuli/s49_1x_4.67_341.png,125,1x,4.67,3.0,5737,122,meters,jsons/MX_seq8_1_VE125.json,255996,673266,25,Woman
14,130973,final-intermixed-textured,v2,jsons/MX_seq8_1_VE125.json,http://54.235.29.9/FacialAge/BNav_EC2/DepthDuration/MX_fS_VE_MTurk/MX_fS_HTML.html#6,6,1920,1080,1920,1080,1-12-2024,12-15-36,15,VR_target_stimuli/s7_0.75x_1.5_253.png,125,0.75x,1.5,2.0,7156,123,meters,jsons/MX_seq8_1_VE125.json,255996,673266,25,Woman
15,130973,final-intermixed-textured,v2,jsons/MX_seq8_1_VE125.json,http://54.235.29.9/FacialAge/BNav_EC2/DepthDuration/MX_fS_VE_MTurk/MX_fS_HTML.html#6,6,1920,1080,1920,1080,1-12-2024,12-15-36,16,VR_target_stimuli/s20_1.3x_4.99_412_BC.png,125,1.3x,4.99,2.0,4451,140,meters,jsons/MX_seq8_1_VE125.json,255996,673266,25,Woman
16,130973,final-intermixed-textured,v2,jsons/MX_seq8_1_VE125.json,http://54.235.29.9/FacialAge/BNav_EC2/DepthDuration/MX_fS_VE_MTurk/MX_fS_HTML.html#6,6,1920,1080,1920,1080,1-12-2024,12-15-36,17,catch_stimuli/c1.png,125,,,0.0,3283,138,meters,jsons/MX_seq8_1_VE125.json,255996,673266,25,Woman
17,130973,final-intermixed-textured,v2,jsons/MX_seq8_1_VE125.json,http://54.235.29.9/FacialAge/BNav_EC2/DepthDuration/MX_fS_VE_MTurk/MX_fS_HTML.html#6,6,1920,1080,1920,1080,1-12-2024,12-15-36,18,VR_target_stimuli/s31_1.3x_4.96_342.png,125,1.3x,4.96,1.5,4530,123,meters,jsons/MX_seq8_1_VE125.json,255996,673266,25,Woman
18,130973,final-intermixed-textured,v2,jsons/MX_seq8_1_VE125.json,http://54.235.29.9/FacialAge/BNav_EC2/DepthDuration/MX_fS_VE_MTurk/MX_fS_HTML.html#6,6,1920,1080,1920,1080,1-12-2024,12-15-36,19,VR_target_stimuli/s33_1x_3.1_366_BC.png,125,1x,3.1,3.0,4546,123,meters,jsons/MX_seq8_1_VE125.json,255996,673266,25,Woman
19,130973,final-intermixed-textured,v2,jsons/MX_seq8_1_VE125.json,http://54.235.29.9/FacialAge/BNav_EC2/DepthDuration/MX_fS_VE_MTurk/MX_fS_HTML.html#6,6,1920,1080,1920,1080,1-12-2024,12-15-36,20,VR_target_stimuli/s52_0.75x_3.2_270_BC.png,125,0.75x,3.2,4.0,3273,124,meters,jsons/MX_seq8_1_VE125.json,255996,673266,25,Woman
20,130973,final-intermixed-textured,v2,jsons/MX_seq8_1_VE125.json,http://54.235.29.9/FacialAge/BNav_EC2/DepthDuration/MX_fS_VE_MTurk/MX_fS_HTML.html#6,6,1920,1080,1920,1080,1-12-2024,12-15-36,21,VR_target_stimuli/s32_1x_1.5_218_BC.png,125,1x,1.5,1.0,2873,123,meters,jsons/MX_seq8_1_VE125.json,255996,673266,25,Woman
21,130973,final-intermixed-textured,v2,jsons/MX_seq8_1_VE125.json,http://54.235.29.9/FacialAge/BNav_EC2/DepthDuration/MX_fS_VE_MTurk/MX_fS_HTML.html#6,6,1920,1080,1920,1080,1-12-2024,12-15-36,22,VR_target_stimuli/s18_1.3x_2.25_368_BC.png,125,1.3x,2.25,1.0,2615,138,meters,jsons/MX_seq8_1_VE125.json,255996,673266,25,Woman
22,130973,final-intermixed-textured,v2,jsons/MX_seq8_1_VE125.json,http://54.235.29.9/FacialAge/BNav_EC2/DepthDuration/MX_fS_VE_MTurk/MX_fS_HTML.html#6,6,1920,1080,1920,1080,1-12-2024,12-15-36,23,VR_target_stimuli/s39_0.75x_1_205.png,125,0.75x,1.0,0.5,3805,124,meters,jsons/MX_seq8_1_VE125.json,255996,673266,25,Woman
23,130973,final-intermixed-textured,v2,jsons/MX_seq8_1_VE125.json,http://54.235.29.9/FacialAge/BNav_EC2/DepthDuration/MX_fS_VE_MTurk/MX_fS_HTML.html#6,6,1920,1080,1920,1080,1-12-2024,12-15-36,24,VR_target_stimuli/s51_1.3x_3.64_479.png,125,1.3x,3.64,2.0,2739,124,meters,jsons/MX_seq8_1_VE125.json,255996,673266,25,Woman
24,130973,final-intermixed-textured,v2,jsons/MX_seq8_1_VE125.json,http://54.235.29.9/FacialAge/BNav_EC2/DepthDuration/MX_fS_VE_MTurk/MX_fS_HTML.html#6,6,1920,1080,1920,1080,1-12-2024,12-15-36,25,VR_target_stimuli/s43_1x_2.2_354.png,125,1x,2.2,2.5,3294,124,meters,jsons/MX_seq8_1_VE125.json,255996,673266,25,Woman
25,130973,final-intermixed-textured,v2,jsons/MX_seq8_1_VE125.json,http://54.235.29.9/FacialAge/BNav_EC2/DepthDuration/MX_fS_VE_MTurk/MX_fS_HTML.html#6,6,1920,1080,1920,1080,1-12-2024,12-15-36,26,catch_stimuli/c2.png,125,,,0.0,2481,123,meters,jsons/MX_seq8_1_VE125.json,255996,673266,25,Woman
26,130973,final-intermixed-textured,v2,jsons/MX_seq8_1_VE125.json,http://54.235.29.9/FacialAge/BNav_EC2/DepthDuration/MX_fS_VE_MTurk/MX_fS_HTML.html#6,6,1920,1080,1920,1080,1-12-2024,12-15-36,27,VR_target_stimuli/s24_0.75x_3.3_344_BC.png,125,0.75x,3.3,1.5,5739,123,meters,jsons/MX_seq8_1_VE125.json,255996,673266,25,Woman
27,130973,final-intermixed-textured,v2,jsons/MX_seq8_1_VE125.json,http://54.235.29.9/FacialAge/BNav_EC2/DepthDuration/MX_fS_VE_MTurk/MX_fS_HTML.html#6,6,1920,1080,1920,1080,1-12-2024,12-15-36,28,VR_target_stimuli/s10_0.75x_2.7_321.png,125,0.75x,2.7,2.0,3566,122,meters,jsons/MX_seq8_1_VE125.json,255996,673266,25,Woman
28,130973,final-intermixed-textured,v2,jsons/MX_seq8_1_VE125.json,http://54.235.29.9/FacialAge/BNav_EC2/DepthDuration/MX_fS_VE_MTurk/MX_fS_HTML.html#6,6,1920,1080,1920,1080,1-12-2024,12-15-36,29,VR_target_stimuli/s36_1.3x_4.1_442_BC.png,125,1.3x,4.1,2.0,3147,123,meters,jsons/MX_seq8_1_VE125.json,255996,673266,25,Woman
29,130973,final-intermixed-textured,v2,jsons/MX_seq8_1_VE125.json,http://54.235.29.9/FacialAge/BNav_EC2/DepthDuration/MX_fS_VE_MTurk/MX_fS_HTML.html#6,6,1920,1080,1920,1080,1-12-2024,12-15-36,30,VR_target_stimuli/s40_1x_1.2_319_BC.png,125,1x,1.2,1.5,4708,124,meters,jsons/MX_seq8_1_VE125.json,255996,673266,25,Woman
30,130973,final-intermixed-textured,v2,jsons/MX_seq8_1_VE125.json,http://54.235.29.9/FacialAge/BNav_EC2/DepthDuration/MX_fS_VE_MTurk/MX_fS_HTML.html#6,6,1920,1080,1920,1080,1-12-2024,12-15-36,31,VR_target_stimuli/s41_0.75x_2.1_281_BC.png,125,0.75x,2.1,2.5,4379,125,meters,jsons/MX_seq8_1_VE125.json,255996,673266,25,Woman
31,130973,final-intermixed-textured,v2,jsons/MX_seq8_1_VE125.json,http://54.235.29.9/FacialAge/BNav_EC2/DepthDuration/MX_fS_VE_MTurk/MX_fS_HTML.html#6,6,1920,1080,1920,1080,1-12-2024,12-15-36,32,VR_target_stimuli/s45_1x_3.5_368.png,125,1x,3.5,2.0,3711,124,meters,jsons/MX_seq8_1_VE125.json,255996,673266,25,Woman
32,130973,final-intermixed-textured,v2,jsons/MX_seq8_1_VE125.json,http://54.235.29.9/FacialAge/BNav_EC2/DepthDuration/MX_fS_VE_MTurk/MX_fS_HTML.html#6,6,1920,1080,1920,1080,1-12-2024,12-15-36,33,VR_target_stimuli/s23_1.3x_3.65_354.png,125,1.3x,3.65,2.0,3255,123,meters,jsons/MX_seq8_1_VE125.json,255996,673266,25,Woman
33,130973,final-intermixed-textured,v2,jsons/MX_seq8_1_VE125.json,http://54.235.29.9/FacialAge/BNav_EC2/DepthDuration/MX_fS_VE_MTurk/MX_fS_HTML.html#6,6,1920,1080,1920,1080,1-12-2024,12-15-36,34,catch_stimuli/c3.png,125,,,0.0,3067,137,meters,jsons/MX_seq8_1_VE125.json,255996,673266,25,Woman
34,130973,final-intermixed-textured,v2,jsons/MX_seq8_1_VE125.json,http://54.235.29.9/FacialAge/BNav_EC2/DepthDuration/MX_fS_VE_MTurk/MX_fS_HTML.html#6,6,1920,1080,1920,1080,1-12-2024,12-15-36,35,VR_target_stimuli/s26_1x_4_433.png,125,1x,4.0,2.5,4156,121,meters,jsons/MX_seq8_1_VE125.json,255996,673266,25,Woman
35,130973,final-intermixed-textured,v2,jsons/MX_seq8_1_VE125.json,http://54.235.29.9/FacialAge/BNav_EC2/DepthDuration/MX_fS_VE_MTurk/MX_fS_HTML.html#6,6,1920,1080,1920,1080,1-12-2024,12-15-36,36,VR_target_stimuli/s12_0.75x_3.1_364_BC.png,125,0.75x,3.1,2.0,2718,123,meters,jsons/MX_seq8_1_VE125.json,255996,673266,25,Woman
36,130973,final-intermixed-textured,v2,jsons/MX_seq8_1_VE125.json,http://54.235.29.9/FacialAge/BNav_EC2/DepthDuration/MX_fS_VE_MTurk/MX_fS_HTML.html#6,6,1920,1080,1920,1080,1-12-2024,12-15-36,37,VR_target_stimuli/s30_1.3x_2.3_337.png,125,1.3x,2.3,1.5,3151,136,meters,jsons/MX_seq8_1_VE125.json,255996,673266,25,Woman
37,130973,final-intermixed-textured,v2,jsons/MX_seq8_1_VE125.json,http://54.235.29.9/FacialAge/BNav_EC2/DepthDuration/MX_fS_VE_MTurk/MX_fS_HTML.html#6,6,1920,1080,1920,1080,1-12-2024,12-15-36,38,VR_target_stimuli/s16_1.3x_1_223_BC.png,125,1.3x,1.0,0.5,4088,123,meters,jsons/MX_seq8_1_VE125.json,255996,673266,25,Woman
38,130973,final-intermixed-textured,v2,jsons/MX_seq8_1_VE125.json,http://54.235.29.9/FacialAge/BNav_EC2/DepthDuration/MX_fS_VE_MTurk/MX_fS_HTML.html#6,6,1920,1080,1920,1080,1-12-2024,12-15-36,39,VR_target_stimuli/s17_1x_1.8_291_BC.png,125,1x,1.8,1.0,2163,124,meters,jsons/MX_seq8_1_VE125.json,255996,673266,25,Woman
39,130973,final-intermixed-textured,v2,jsons/MX_seq8_1_VE125.json,http://54.235.29.9/FacialAge/BNav_EC2/DepthDuration/MX_fS_VE_MTurk/MX_fS_HTML.html#6,6,1920,1080,1920,1080,1-12-2024,12-15-36,40,VR_target_stimuli/s5_0.75x_4_375.png,125,0.75x,4.0,2.5,2838,124,meters,jsons/MX_seq8_1_VE125.json,255996,673266,25,Woman
40,130973,final-intermixed-textured,v2,jsons/MX_seq8_1_VE125.json,http://54.235.29.9/FacialAge/BNav_EC2/DepthDuration/MX_fS_VE_MTurk/MX_fS_HTML.html#6,6,1920,1080,1920,1080,1-12-2024,12-15-36,41,VR_target_stimuli/s37_1x_3.3_563_BC.png,125,1x,3.3,1.0,4847,123,meters,jsons/MX_seq8_1_VE125.json,255996,673266,25,Woman
41,130973,final-intermixed-textured,v2,jsons/MX_seq8_1_VE125.json,http://54.235.29.9/FacialAge/BNav_EC2/DepthDuration/MX_fS_VE_MTurk/MX_fS_HTML.html#6,6,1920,1080,1920,1080,1-12-2024,12-15-36,42,VR_target_stimuli/s46_1.3x_2.42_354.png,125,1.3x,2.42,1.5,3310,123,meters,jsons/MX_seq8_1_VE125.json,255996,673266,25,Woman
42,130973,final-intermixed-textured,v2,jsons/MX_seq8_1_VE125.json,http://54.235.29.9/FacialAge/BNav_EC2/DepthDuration/MX_fS_VE_MTurk/MX_fS_HTML.html#6,6,1920,1080,1920,1080,1-12-2024,12-15-36,43,VR_target_stimuli/s22_0.75x_4.29_348.png,125,0.75x,4.29,2.5,4462,122,meters,jsons/MX_seq8_1_VE125.json,255996,673266,25,Woman
43,130973,final-intermixed-textured,v2,jsons/MX_seq8_1_VE125.json,http://54.235.29.9/FacialAge/BNav_EC2/DepthDuration/MX_fS_VE_MTurk/MX_fS_HTML.html#6,6,1920,1080,1920,1080,1-12-2024,12-15-36,44,VR_target_stimuli/s42_1.3x_3.2_305_BC.png,125,1.3x,3.2,2.5,3265,122,meters,jsons/MX_seq8_1_VE125.json,255996,673266,25,Woman
44,130973,final-intermixed-textured,v2,jsons/MX_seq8_1_VE125.json,http://54.235.29.9/FacialAge/BNav_EC2/DepthDuration/MX_fS_VE_MTurk/MX_fS_HTML.html#6,6,1920,1080,1920,1080,1-12-2024,12-15-36,45,catch_stimuli/c4.png,125,,,0.0,2294,138,meters,jsons/MX_seq8_1_VE125.json,255996,673266,25,Woman
45,130973,final-intermixed-textured,v2,jsons/MX_seq8_1_VE125.json,http://54.235.29.9/FacialAge/BNav_EC2/DepthDuration/MX_fS_VE_MTurk/MX_fS_HTML.html#6,6,1920,1080,1920,1080,1-12-2024,12-15-36,46,VR_target_stimuli/s25_1x_1.4_290.png,125,1x,1.4,1.0,1828,123,meters,jsons/MX_seq8_1_VE125.json,255996,673266,25,Woman
46,130973,final-intermixed-textured,v2,jsons/MX_seq8_1_VE125.json,http://54.235.29.9/FacialAge/BNav_EC2/DepthDuration/MX_fS_VE_MTurk/MX_fS_HTML.html#6,6,1920,1080,1920,1080,1-12-2024,12-15-36,47,VR_target_stimuli/s50_0.75x_4.53_517_BC.png,125,0.75x,4.53,2.0,4321,123,meters,jsons/MX_seq8_1_VE125.json,255996,673266,25,Woman
47,130973,final-intermixed-textured,v2,jsons/MX_seq8_1_VE125.json,http://54.235.29.9/FacialAge/BNav_EC2/DepthDuration/MX_fS_VE_MTurk/MX_fS_HTML.html#6,6,1920,1080,1920,1080,1-12-2024,12-15-36,48,VR_target_stimuli/s53_0.75x_1.6_403.png,125,0.75x,1.6,1.0,2336,122,meters,jsons/MX_seq8_1_VE125.json,255996,673266,25,Woman
48,130973,final-intermixed-textured,v2,jsons/MX_seq8_1_VE125.json,http://54.235.29.9/FacialAge/BNav_EC2/DepthDuration/MX_fS_VE_MTurk/MX_fS_HTML.html#6,6,1920,1080,1920,1080,1-12-2024,12-15-36,49,VR_target_stimuli/s38_1.3x_3.55_358_BC.png,125,1.3x,3.55,2.5,5068,138,meters,jsons/MX_seq8_1_VE125.json,255996,673266,25,Woman
49,130973,final-intermixed-textured,v2,jsons/MX_seq8_1_VE125.json,http://54.235.29.9/FacialAge/BNav_EC2/DepthDuration/MX_fS_VE_MTurk/MX_fS_HTML.html#6,6,1920,1080,1920,1080,1-12-2024,12-15-36,50,VR_target_stimuli/s9_1x_1.2_263.png,125,1x,1.2,0.5,4389,140,meters,jsons/MX_seq8_1_VE125.json,255996,673266,25,Woman
50,130973,final-intermixed-textured,v2,jsons/MX_seq8_1_VE125.json,http://54.235.29.9/FacialAge/BNav_EC2/DepthDuration/MX_fS_VE_MTurk/MX_fS_HTML.html#6,6,1920,1080,1920,1080,1-12-2024,12-15-36,51,VR_target_stimuli/s44_1.3x_4.4_325.png,125,1.3x,4.4,1.5,3548,124,meters,jsons/MX_seq8_1_VE125.json,255996,673266,25,Woman
51,130973,final-intermixed-textured,v2,jsons/MX_seq8_1_VE125.json,http://54.235.29.9/FacialAge/BNav_EC2/DepthDuration/MX_fS_VE_MTurk/MX_fS_HTML.html#6,6,1920,1080,1920,1080,1-12-2024,12-15-36,52,VR_target_stimuli/s3_0.75x_5_381_BC.png,125,0.75x,5.0,3.0,2367,137,meters,jsons/MX_seq8_1_VE125.json,255996,673266,25,Woman
52,130973,final-intermixed-textured,v2,jsons/MX_seq8_1_VE125.json,http://54.235.29.9/FacialAge/BNav_EC2/DepthDuration/MX_fS_VE_MTurk/MX_fS_HTML.html#6,6,1920,1080,1920,1080,1-12-2024,12-15-36,53,catch_stimuli/c5.png,125,,,0.0,2371,123,meters,jsons/MX_seq8_1_VE125.json,255996,673266,25,Woman
53,130973,final-intermixed-textured,v2,jsons/MX_seq8_1_VE125.json,http://54.235.29.9/FacialAge/BNav_EC2/DepthDuration/MX_fS_VE_MTurk/MX_fS_HTML.html#6,6,1920,1080,1920,1080,1-12-2024,12-15-36,54,VR_target_stimuli/s1_1x_1.7_262_BC.png,125,1x,1.7,1.0,2512,138,meters,jsons/MX_seq8_1_VE125.json,255996,673266,25,Woman
54,130973,final-intermixed-textured,v2,jsons/MX_seq8_1_VE125.json,http://54.235.29.9/FacialAge/BNav_EC2/DepthDuration/MX_fS_VE_MTurk/MX_fS_HTML.html#6,6,1920,1080,1920,1080,1-12-2024,12-15-36,55,VR_target_stimuli/s11_0.75x_5_359.png,125,0.75x,5.0,3.0,1994,124,meters,jsons/MX_seq8_1_VE125.json,255996,673266,25,Woman
55,130973,final-intermixed-textured,v2,jsons/MX_seq8_1_VE125.json,http://54.235.29.9/FacialAge/BNav_EC2/DepthDuration/MX_fS_VE_MTurk/MX_fS_HTML.html#6,6,1920,1080,1920,1080,1-12-2024,12-15-36,56,VR_target_stimuli/s2_1.3x_2.7_397_BC.png,125,1.3x,2.7,1.0,2268,123,meters,jsons/MX_seq8_1_VE125.json,255996,673266,25,Woman
56,130973,final-intermixed-textured,v2,jsons/MX_seq8_1_VE125.json,http://54.235.29.9/FacialAge/BNav_EC2/DepthDuration/MX_fS_VE_MTurk/MX_fS_HTML.html#6,6,1920,1080,1920,1080,1-12-2024,12-15-36,57,VR_target_stimuli/s6_1x_2.1_293_BC.png,125,1x,2.1,2.0,2000,123,meters,jsons/MX_seq8_1_VE125.json,255996,673266,25,Woman
57,130973,final-intermixed-textured,v2,jsons/MX_seq8_1_VE125.json,http://54.235.29.9/FacialAge/BNav_EC2/DepthDuration/MX_fS_VE_MTurk/MX_fS_HTML.html#6,6,1920,1080,1920,1080,1-12-2024,12-15-36,58,VR_target_stimuli/s0_1x_2.6_351.png,125,1x,2.6,2.0,2267,123,meters,jsons/MX_seq8_1_VE125.json,255996,673266,25,Woman
58,130973,final-intermixed-textured,v2,jsons/MX_seq8_1_VE125.json,http://54.235.29.9/FacialAge/BNav_EC2/DepthDuration/MX_fS_VE_MTurk/MX_fS_HTML.html#6,6,1920,1080,1920,1080,1-12-2024,12-15-36,59,VR_target_stimuli/s34_0.75x_2.8_269_BC.png,125,0.75x,2.8,2.5,2959,122,meters,jsons/MX_seq8_1_VE125.json,255996,673266,25,Woman
59,130973,final-intermixed-textured,v2,jsons/MX_seq8_1_VE125.json,http://54.235.29.9/FacialAge/BNav_EC2/DepthDuration/MX_fS_VE_MTurk/MX_fS_HTML.html#6,6,1920,1080,1920,1080,1-12-2024,12-15-36,60,VR_target_stimuli/s13_1.3x_2.4_313.png,125,1.3x,2.4,1.5,6215,123,meters,jsons/MX_seq8_1_VE125.json,255996,673266,25,Woman
