,subjID,experimentName,versionName,sequenceName,url,selected_row,windowWidth,windowHeight,screenWidth,screenHeight,startDate,startTime,trial,stimulus,duration,scale,actual_depth,depth_estimate,trial_RT,log_sceneDuration,unitSelection,seq_filepath,experimentTime,totalTime,age,gender
0,149786,final-intermixed-textured,v2,jsons/MX_seq2_0_VE125_flipped.json,http://54.235.29.9/FacialAge/BNav_EC2/DepthDuration/MX_fS_VE_MTurk/MX_fS_HTML.html#201,201,1708,854,1708,960,1-12-2024,21-40-43,1,VR_target_stimuli/s11_0.75x_5_359.png,125,0.75x,5.0,4.0,3283,126,meters,jsons/MX_seq2_0_VE125_flipped.json,210365,365063,22,Woman
1,149786,final-intermixed-textured,v2,jsons/MX_seq2_0_VE125_flipped.json,http://54.235.29.9/FacialAge/BNav_EC2/DepthDuration/MX_fS_VE_MTurk/MX_fS_HTML.html#201,201,1708,854,1708,960,1-12-2024,21-40-43,2,VR_target_stimuli/s2_1x_2.7_390_BC.png,125,1x,2.7,4.0,1967,125,meters,jsons/MX_seq2_0_VE125_flipped.json,210365,365063,22,Woman
2,149786,final-intermixed-textured,v2,jsons/MX_seq2_0_VE125_flipped.json,http://54.235.29.9/FacialAge/BNav_EC2/DepthDuration/MX_fS_VE_MTurk/MX_fS_HTML.html#201,201,1708,854,1708,960,1-12-2024,21-40-43,3,VR_target_stimuli/s6_1.3x_2.1_298.png,125,1.3x,2.1,2.0,2680,124,meters,jsons/MX_seq2_0_VE125_flipped.json,210365,365063,22,Woman
3,149786,final-intermixed-textured,v2,jsons/MX_seq2_0_VE125_flipped.json,http://54.235.29.9/FacialAge/BNav_EC2/DepthDuration/MX_fS_VE_MTurk/MX_fS_HTML.html#201,201,1708,854,1708,960,1-12-2024,21-40-43,4,VR_target_stimuli/s0_1x_2.6_351.png,125,1x,2.6,1.5,5123,124,meters,jsons/MX_seq2_0_VE125_flipped.json,210365,365063,22,Woman
4,149786,final-intermixed-textured,v2,jsons/MX_seq2_0_VE125_flipped.json,http://54.235.29.9/FacialAge/BNav_EC2/DepthDuration/MX_fS_VE_MTurk/MX_fS_HTML.html#201,201,1708,854,1708,960,1-12-2024,21-40-43,5,VR_target_stimuli/s34_0.75x_2.8_269_BC.png,125,0.75x,2.8,3.0,2196,79,meters,jsons/MX_seq2_0_VE125_flipped.json,210365,365063,22,Woman
5,149786,final-intermixed-textured,v2,jsons/MX_seq2_0_VE125_flipped.json,http://54.235.29.9/FacialAge/BNav_EC2/DepthDuration/MX_fS_VE_MTurk/MX_fS_HTML.html#201,201,1708,854,1708,960,1-12-2024,21-40-43,6,VR_target_stimuli/s13_1.3x_2.4_313_BC.png,125,1.3x,2.4,1.5,4029,125,meters,jsons/MX_seq2_0_VE125_flipped.json,210365,365063,22,Woman
6,149786,final-intermixed-textured,v2,jsons/MX_seq2_0_VE125_flipped.json,http://54.235.29.9/FacialAge/BNav_EC2/DepthDuration/MX_fS_VE_MTurk/MX_fS_HTML.html#201,201,1708,854,1708,960,1-12-2024,21-40-43,7,catch_stimuli/c0_BC.png,125,,,0.0,2403,124,meters,jsons/MX_seq2_0_VE125_flipped.json,210365,365063,22,Woman
7,149786,final-intermixed-textured,v2,jsons/MX_seq2_0_VE125_flipped.json,http://54.235.29.9/FacialAge/BNav_EC2/DepthDuration/MX_fS_VE_MTurk/MX_fS_HTML.html#201,201,1708,854,1708,960,1-12-2024,21-40-43,8,VR_target_stimuli/s14_1.3x_3.83_359_BC.png,125,1.3x,3.83,3.0,3905,124,meters,jsons/MX_seq2_0_VE125_flipped.json,210365,365063,22,Woman
8,149786,final-intermixed-textured,v2,jsons/MX_seq2_0_VE125_flipped.json,http://54.235.29.9/FacialAge/BNav_EC2/DepthDuration/MX_fS_VE_MTurk/MX_fS_HTML.html#201,201,1708,854,1708,960,1-12-2024,21-40-43,9,VR_target_stimuli/s47_1x_3.45_370.png,125,1x,3.45,3.0,3273,113,meters,jsons/MX_seq2_0_VE125_flipped.json,210365,365063,22,Woman
9,149786,final-intermixed-textured,v2,jsons/MX_seq2_0_VE125_flipped.json,http://54.235.29.9/FacialAge/BNav_EC2/DepthDuration/MX_fS_VE_MTurk/MX_fS_HTML.html#201,201,1708,854,1708,960,1-12-2024,21-40-43,10,VR_target_stimuli/s29_0.75x_1.3_246.png,125,0.75x,1.3,1.0,2148,125,meters,jsons/MX_seq2_0_VE125_flipped.json,210365,365063,22,Woman
10,149786,final-intermixed-textured,v2,jsons/MX_seq2_0_VE125_flipped.json,http://54.235.29.9/FacialAge/BNav_EC2/DepthDuration/MX_fS_VE_MTurk/MX_fS_HTML.html#201,201,1708,854,1708,960,1-12-2024,21-40-43,11,VR_target_stimuli/s28_1x_3.2_362_BC.png,125,1x,3.2,2.0,2851,123,meters,jsons/MX_seq2_0_VE125_flipped.json,210365,365063,22,Woman
11,149786,final-intermixed-textured,v2,jsons/MX_seq2_0_VE125_flipped.json,http://54.235.29.9/FacialAge/BNav_EC2/DepthDuration/MX_fS_VE_MTurk/MX_fS_HTML.html#201,201,1708,854,1708,960,1-12-2024,21-40-43,12,VR_target_stimuli/s48_1.3x_2.55_255.png,125,1.3x,2.55,3.0,3585,122,meters,jsons/MX_seq2_0_VE125_flipped.json,210365,365063,22,Woman
12,149786,final-intermixed-textured,v2,jsons/MX_seq2_0_VE125_flipped.json,http://54.235.29.9/FacialAge/BNav_EC2/DepthDuration/MX_fS_VE_MTurk/MX_fS_HTML.html#201,201,1708,854,1708,960,1-12-2024,21-40-43,13,VR_target_stimuli/s19_0.75x_1.21_257_BC.png,125,0.75x,1.21,1.5,4802,127,meters,jsons/MX_seq2_0_VE125_flipped.json,210365,365063,22,Woman
13,149786,final-intermixed-textured,v2,jsons/MX_seq2_0_VE125_flipped.json,http://54.235.29.9/FacialAge/BNav_EC2/DepthDuration/MX_fS_VE_MTurk/MX_fS_HTML.html#201,201,1708,854,1708,960,1-12-2024,21-40-43,14,VR_target_stimuli/s21_1.3x_4.22_384.png,125,1.3x,4.22,4.0,3692,131,meters,jsons/MX_seq2_0_VE125_flipped.json,210365,365063,22,Woman
14,149786,final-intermixed-textured,v2,jsons/MX_seq2_0_VE125_flipped.json,http://54.235.29.9/FacialAge/BNav_EC2/DepthDuration/MX_fS_VE_MTurk/MX_fS_HTML.html#201,201,1708,854,1708,960,1-12-2024,21-40-43,15,VR_target_stimuli/s8_1x_3.1_332_BC.png,125,1x,3.1,3.0,2418,122,meters,jsons/MX_seq2_0_VE125_flipped.json,210365,365063,22,Woman
15,149786,final-intermixed-textured,v2,jsons/MX_seq2_0_VE125_flipped.json,http://54.235.29.9/FacialAge/BNav_EC2/DepthDuration/MX_fS_VE_MTurk/MX_fS_HTML.html#201,201,1708,854,1708,960,1-12-2024,21-40-43,16,VR_target_stimuli/s27_0.75x_1.76_243.png,125,0.75x,1.76,2.0,3492,122,meters,jsons/MX_seq2_0_VE125_flipped.json,210365,365063,22,Woman
16,149786,final-intermixed-textured,v2,jsons/MX_seq2_0_VE125_flipped.json,http://54.235.29.9/FacialAge/BNav_EC2/DepthDuration/MX_fS_VE_MTurk/MX_fS_HTML.html#201,201,1708,854,1708,960,1-12-2024,21-40-43,17,catch_stimuli/c1_BC.png,125,,,0.0,2966,125,meters,jsons/MX_seq2_0_VE125_flipped.json,210365,365063,22,Woman
17,149786,final-intermixed-textured,v2,jsons/MX_seq2_0_VE125_flipped.json,http://54.235.29.9/FacialAge/BNav_EC2/DepthDuration/MX_fS_VE_MTurk/MX_fS_HTML.html#201,201,1708,854,1708,960,1-12-2024,21-40-43,18,VR_target_stimuli/s15_0.75x_4.2_388_BC.png,125,0.75x,4.2,2.0,2335,125,meters,jsons/MX_seq2_0_VE125_flipped.json,210365,365063,22,Woman
18,149786,final-intermixed-textured,v2,jsons/MX_seq2_0_VE125_flipped.json,http://54.235.29.9/FacialAge/BNav_EC2/DepthDuration/MX_fS_VE_MTurk/MX_fS_HTML.html#201,201,1708,854,1708,960,1-12-2024,21-40-43,19,VR_target_stimuli/s4_1.3x_1.4_328_BC.png,125,1.3x,1.4,2.0,2814,124,meters,jsons/MX_seq2_0_VE125_flipped.json,210365,365063,22,Woman
19,149786,final-intermixed-textured,v2,jsons/MX_seq2_0_VE125_flipped.json,http://54.235.29.9/FacialAge/BNav_EC2/DepthDuration/MX_fS_VE_MTurk/MX_fS_HTML.html#201,201,1708,854,1708,960,1-12-2024,21-40-43,20,VR_target_stimuli/s35_1x_2_331.png,125,1x,2.0,2.0,1723,124,meters,jsons/MX_seq2_0_VE125_flipped.json,210365,365063,22,Woman
20,149786,final-intermixed-textured,v2,jsons/MX_seq2_0_VE125_flipped.json,http://54.235.29.9/FacialAge/BNav_EC2/DepthDuration/MX_fS_VE_MTurk/MX_fS_HTML.html#201,201,1708,854,1708,960,1-12-2024,21-40-43,21,VR_target_stimuli/s49_1.3x_4.67_354.png,125,1.3x,4.67,3.0,1705,124,meters,jsons/MX_seq2_0_VE125_flipped.json,210365,365063,22,Woman
21,149786,final-intermixed-textured,v2,jsons/MX_seq2_0_VE125_flipped.json,http://54.235.29.9/FacialAge/BNav_EC2/DepthDuration/MX_fS_VE_MTurk/MX_fS_HTML.html#201,201,1708,854,1708,960,1-12-2024,21-40-43,22,VR_target_stimuli/s7_0.75x_1.5_253.png,125,0.75x,1.5,2.0,1741,125,meters,jsons/MX_seq2_0_VE125_flipped.json,210365,365063,22,Woman
22,149786,final-intermixed-textured,v2,jsons/MX_seq2_0_VE125_flipped.json,http://54.235.29.9/FacialAge/BNav_EC2/DepthDuration/MX_fS_VE_MTurk/MX_fS_HTML.html#201,201,1708,854,1708,960,1-12-2024,21-40-43,23,VR_target_stimuli/s20_1x_4.99_398_BC.png,125,1x,4.99,3.0,1571,124,meters,jsons/MX_seq2_0_VE125_flipped.json,210365,365063,22,Woman
23,149786,final-intermixed-textured,v2,jsons/MX_seq2_0_VE125_flipped.json,http://54.235.29.9/FacialAge/BNav_EC2/DepthDuration/MX_fS_VE_MTurk/MX_fS_HTML.html#201,201,1708,854,1708,960,1-12-2024,21-40-43,24,VR_target_stimuli/s31_0.75x_4.96_329_BC.png,125,0.75x,4.96,3.0,1403,124,meters,jsons/MX_seq2_0_VE125_flipped.json,210365,365063,22,Woman
24,149786,final-intermixed-textured,v2,jsons/MX_seq2_0_VE125_flipped.json,http://54.235.29.9/FacialAge/BNav_EC2/DepthDuration/MX_fS_VE_MTurk/MX_fS_HTML.html#201,201,1708,854,1708,960,1-12-2024,21-40-43,25,VR_target_stimuli/s33_1.3x_3.1_378_BC.png,125,1.3x,3.1,3.0,1699,125,meters,jsons/MX_seq2_0_VE125_flipped.json,210365,365063,22,Woman
25,149786,final-intermixed-textured,v2,jsons/MX_seq2_0_VE125_flipped.json,http://54.235.29.9/FacialAge/BNav_EC2/DepthDuration/MX_fS_VE_MTurk/MX_fS_HTML.html#201,201,1708,854,1708,960,1-12-2024,21-40-43,26,catch_stimuli/c2_BC.png,125,,,0.0,2186,125,meters,jsons/MX_seq2_0_VE125_flipped.json,210365,365063,22,Woman
26,149786,final-intermixed-textured,v2,jsons/MX_seq2_0_VE125_flipped.json,http://54.235.29.9/FacialAge/BNav_EC2/DepthDuration/MX_fS_VE_MTurk/MX_fS_HTML.html#201,201,1708,854,1708,960,1-12-2024,21-40-43,27,VR_target_stimuli/s52_1x_3.2_275.png,125,1x,3.2,2.0,1653,125,meters,jsons/MX_seq2_0_VE125_flipped.json,210365,365063,22,Woman
27,149786,final-intermixed-textured,v2,jsons/MX_seq2_0_VE125_flipped.json,http://54.235.29.9/FacialAge/BNav_EC2/DepthDuration/MX_fS_VE_MTurk/MX_fS_HTML.html#201,201,1708,854,1708,960,1-12-2024,21-40-43,28,VR_target_stimuli/s32_1x_1.5_218.png,125,1x,1.5,3.0,1667,85,meters,jsons/MX_seq2_0_VE125_flipped.json,210365,365063,22,Woman
28,149786,final-intermixed-textured,v2,jsons/MX_seq2_0_VE125_flipped.json,http://54.235.29.9/FacialAge/BNav_EC2/DepthDuration/MX_fS_VE_MTurk/MX_fS_HTML.html#201,201,1708,854,1708,960,1-12-2024,21-40-43,29,VR_target_stimuli/s18_0.75x_2.25_341_BC.png,125,0.75x,2.25,1.5,2876,125,meters,jsons/MX_seq2_0_VE125_flipped.json,210365,365063,22,Woman
29,149786,final-intermixed-textured,v2,jsons/MX_seq2_0_VE125_flipped.json,http://54.235.29.9/FacialAge/BNav_EC2/DepthDuration/MX_fS_VE_MTurk/MX_fS_HTML.html#201,201,1708,854,1708,960,1-12-2024,21-40-43,30,VR_target_stimuli/s39_1.3x_1_208.png,125,1.3x,1.0,2.0,2372,124,meters,jsons/MX_seq2_0_VE125_flipped.json,210365,365063,22,Woman
30,149786,final-intermixed-textured,v2,jsons/MX_seq2_0_VE125_flipped.json,http://54.235.29.9/FacialAge/BNav_EC2/DepthDuration/MX_fS_VE_MTurk/MX_fS_HTML.html#201,201,1708,854,1708,960,1-12-2024,21-40-43,31,VR_target_stimuli/s51_1x_3.64_461_BC.png,125,1x,3.64,2.0,1822,125,meters,jsons/MX_seq2_0_VE125_flipped.json,210365,365063,22,Woman
31,149786,final-intermixed-textured,v2,jsons/MX_seq2_0_VE125_flipped.json,http://54.235.29.9/FacialAge/BNav_EC2/DepthDuration/MX_fS_VE_MTurk/MX_fS_HTML.html#201,201,1708,854,1708,960,1-12-2024,21-40-43,32,VR_target_stimuli/s43_1.3x_2.2_363_BC.png,125,1.3x,2.2,2.5,4249,123,meters,jsons/MX_seq2_0_VE125_flipped.json,210365,365063,22,Woman
32,149786,final-intermixed-textured,v2,jsons/MX_seq2_0_VE125_flipped.json,http://54.235.29.9/FacialAge/BNav_EC2/DepthDuration/MX_fS_VE_MTurk/MX_fS_HTML.html#201,201,1708,854,1708,960,1-12-2024,21-40-43,33,VR_target_stimuli/s24_0.75x_3.3_344.png,125,0.75x,3.3,3.0,2029,125,meters,jsons/MX_seq2_0_VE125_flipped.json,210365,365063,22,Woman
33,149786,final-intermixed-textured,v2,jsons/MX_seq2_0_VE125_flipped.json,http://54.235.29.9/FacialAge/BNav_EC2/DepthDuration/MX_fS_VE_MTurk/MX_fS_HTML.html#201,201,1708,854,1708,960,1-12-2024,21-40-43,34,catch_stimuli/c3_BC.png,125,,,0.0,2415,128,meters,jsons/MX_seq2_0_VE125_flipped.json,210365,365063,22,Woman
34,149786,final-intermixed-textured,v2,jsons/MX_seq2_0_VE125_flipped.json,http://54.235.29.9/FacialAge/BNav_EC2/DepthDuration/MX_fS_VE_MTurk/MX_fS_HTML.html#201,201,1708,854,1708,960,1-12-2024,21-40-43,35,VR_target_stimuli/s10_1.3x_2.7_325.png,125,1.3x,2.7,2.0,1901,122,meters,jsons/MX_seq2_0_VE125_flipped.json,210365,365063,22,Woman
35,149786,final-intermixed-textured,v2,jsons/MX_seq2_0_VE125_flipped.json,http://54.235.29.9/FacialAge/BNav_EC2/DepthDuration/MX_fS_VE_MTurk/MX_fS_HTML.html#201,201,1708,854,1708,960,1-12-2024,21-40-43,36,VR_target_stimuli/s36_1x_4.1_423.png,125,1x,4.1,3.0,6097,125,meters,jsons/MX_seq2_0_VE125_flipped.json,210365,365063,22,Woman
36,149786,final-intermixed-textured,v2,jsons/MX_seq2_0_VE125_flipped.json,http://54.235.29.9/FacialAge/BNav_EC2/DepthDuration/MX_fS_VE_MTurk/MX_fS_HTML.html#201,201,1708,854,1708,960,1-12-2024,21-40-43,37,VR_target_stimuli/s40_0.75x_1.2_308_BC.png,125,0.75x,1.2,2.0,1878,123,meters,jsons/MX_seq2_0_VE125_flipped.json,210365,365063,22,Woman
37,149786,final-intermixed-textured,v2,jsons/MX_seq2_0_VE125_flipped.json,http://54.235.29.9/FacialAge/BNav_EC2/DepthDuration/MX_fS_VE_MTurk/MX_fS_HTML.html#201,201,1708,854,1708,960,1-12-2024,21-40-43,38,VR_target_stimuli/s41_0.75x_2.1_281.png,125,0.75x,2.1,2.0,1838,117,meters,jsons/MX_seq2_0_VE125_flipped.json,210365,365063,22,Woman
38,149786,final-intermixed-textured,v2,jsons/MX_seq2_0_VE125_flipped.json,http://54.235.29.9/FacialAge/BNav_EC2/DepthDuration/MX_fS_VE_MTurk/MX_fS_HTML.html#201,201,1708,854,1708,960,1-12-2024,21-40-43,39,VR_target_stimuli/s45_1.3x_3.5_377_BC.png,125,1.3x,3.5,2.0,3274,124,meters,jsons/MX_seq2_0_VE125_flipped.json,210365,365063,22,Woman
39,149786,final-intermixed-textured,v2,jsons/MX_seq2_0_VE125_flipped.json,http://54.235.29.9/FacialAge/BNav_EC2/DepthDuration/MX_fS_VE_MTurk/MX_fS_HTML.html#201,201,1708,854,1708,960,1-12-2024,21-40-43,40,VR_target_stimuli/s23_1x_3.65_353_BC.png,125,1x,3.65,2.0,2658,124,meters,jsons/MX_seq2_0_VE125_flipped.json,210365,365063,22,Woman
40,149786,final-intermixed-textured,v2,jsons/MX_seq2_0_VE125_flipped.json,http://54.235.29.9/FacialAge/BNav_EC2/DepthDuration/MX_fS_VE_MTurk/MX_fS_HTML.html#201,201,1708,854,1708,960,1-12-2024,21-40-43,41,VR_target_stimuli/s26_1.3x_4_441_BC.png,125,1.3x,4.0,1.5,5005,123,meters,jsons/MX_seq2_0_VE125_flipped.json,210365,365063,22,Woman
41,149786,final-intermixed-textured,v2,jsons/MX_seq2_0_VE125_flipped.json,http://54.235.29.9/FacialAge/BNav_EC2/DepthDuration/MX_fS_VE_MTurk/MX_fS_HTML.html#201,201,1708,854,1708,960,1-12-2024,21-40-43,42,VR_target_stimuli/s12_0.75x_3.1_364_BC.png,125,0.75x,3.1,2.0,2122,123,meters,jsons/MX_seq2_0_VE125_flipped.json,210365,365063,22,Woman
42,149786,final-intermixed-textured,v2,jsons/MX_seq2_0_VE125_flipped.json,http://54.235.29.9/FacialAge/BNav_EC2/DepthDuration/MX_fS_VE_MTurk/MX_fS_HTML.html#201,201,1708,854,1708,960,1-12-2024,21-40-43,43,VR_target_stimuli/s30_1x_2.3_334_BC.png,125,1x,2.3,2.0,18461,123,meters,jsons/MX_seq2_0_VE125_flipped.json,210365,365063,22,Woman
43,149786,final-intermixed-textured,v2,jsons/MX_seq2_0_VE125_flipped.json,http://54.235.29.9/FacialAge/BNav_EC2/DepthDuration/MX_fS_VE_MTurk/MX_fS_HTML.html#201,201,1708,854,1708,960,1-12-2024,21-40-43,44,VR_target_stimuli/s16_0.75x_1_217.png,125,0.75x,1.0,2.0,2644,116,meters,jsons/MX_seq2_0_VE125_flipped.json,210365,365063,22,Woman
44,149786,final-intermixed-textured,v2,jsons/MX_seq2_0_VE125_flipped.json,http://54.235.29.9/FacialAge/BNav_EC2/DepthDuration/MX_fS_VE_MTurk/MX_fS_HTML.html#201,201,1708,854,1708,960,1-12-2024,21-40-43,45,catch_stimuli/c4_BC.png,125,,,2.0,2880,121,meters,jsons/MX_seq2_0_VE125_flipped.json,210365,365063,22,Woman
45,149786,final-intermixed-textured,v2,jsons/MX_seq2_0_VE125_flipped.json,http://54.235.29.9/FacialAge/BNav_EC2/DepthDuration/MX_fS_VE_MTurk/MX_fS_HTML.html#201,201,1708,854,1708,960,1-12-2024,21-40-43,46,VR_target_stimuli/s17_1.3x_1.8_300.png,125,1.3x,1.8,2.0,2890,124,meters,jsons/MX_seq2_0_VE125_flipped.json,210365,365063,22,Woman
46,149786,final-intermixed-textured,v2,jsons/MX_seq2_0_VE125_flipped.json,http://54.235.29.9/FacialAge/BNav_EC2/DepthDuration/MX_fS_VE_MTurk/MX_fS_HTML.html#201,201,1708,854,1708,960,1-12-2024,21-40-43,47,VR_target_stimuli/s5_1x_4_378.png,125,1x,4.0,4.0,5107,124,meters,jsons/MX_seq2_0_VE125_flipped.json,210365,365063,22,Woman
47,149786,final-intermixed-textured,v2,jsons/MX_seq2_0_VE125_flipped.json,http://54.235.29.9/FacialAge/BNav_EC2/DepthDuration/MX_fS_VE_MTurk/MX_fS_HTML.html#201,201,1708,854,1708,960,1-12-2024,21-40-43,48,VR_target_stimuli/s37_1x_3.3_563.png,125,1x,3.3,2.0,2307,127,meters,jsons/MX_seq2_0_VE125_flipped.json,210365,365063,22,Woman
48,149786,final-intermixed-textured,v2,jsons/MX_seq2_0_VE125_flipped.json,http://54.235.29.9/FacialAge/BNav_EC2/DepthDuration/MX_fS_VE_MTurk/MX_fS_HTML.html#201,201,1708,854,1708,960,1-12-2024,21-40-43,49,VR_target_stimuli/s46_0.75x_2.42_343.png,125,0.75x,2.42,0.0,3353,121,meters,jsons/MX_seq2_0_VE125_flipped.json,210365,365063,22,Woman
49,149786,final-intermixed-textured,v2,jsons/MX_seq2_0_VE125_flipped.json,http://54.235.29.9/FacialAge/BNav_EC2/DepthDuration/MX_fS_VE_MTurk/MX_fS_HTML.html#201,201,1708,854,1708,960,1-12-2024,21-40-43,50,VR_target_stimuli/s22_1.3x_4.29_364.png,125,1.3x,4.29,3.0,2155,124,meters,jsons/MX_seq2_0_VE125_flipped.json,210365,365063,22,Woman
50,149786,final-intermixed-textured,v2,jsons/MX_seq2_0_VE125_flipped.json,http://54.235.29.9/FacialAge/BNav_EC2/DepthDuration/MX_fS_VE_MTurk/MX_fS_HTML.html#201,201,1708,854,1708,960,1-12-2024,21-40-43,51,VR_target_stimuli/s42_0.75x_3.2_301_BC.png,125,0.75x,3.2,2.5,3317,113,meters,jsons/MX_seq2_0_VE125_flipped.json,210365,365063,22,Woman
51,149786,final-intermixed-textured,v2,jsons/MX_seq2_0_VE125_flipped.json,http://54.235.29.9/FacialAge/BNav_EC2/DepthDuration/MX_fS_VE_MTurk/MX_fS_HTML.html#201,201,1708,854,1708,960,1-12-2024,21-40-43,52,VR_target_stimuli/s25_1x_1.4_290_BC.png,125,1x,1.4,2.0,2522,124,meters,jsons/MX_seq2_0_VE125_flipped.json,210365,365063,22,Woman
52,149786,final-intermixed-textured,v2,jsons/MX_seq2_0_VE125_flipped.json,http://54.235.29.9/FacialAge/BNav_EC2/DepthDuration/MX_fS_VE_MTurk/MX_fS_HTML.html#201,201,1708,854,1708,960,1-12-2024,21-40-43,53,catch_stimuli/c5_BC.png,125,,,0.0,2539,124,meters,jsons/MX_seq2_0_VE125_flipped.json,210365,365063,22,Woman
53,149786,final-intermixed-textured,v2,jsons/MX_seq2_0_VE125_flipped.json,http://54.235.29.9/FacialAge/BNav_EC2/DepthDuration/MX_fS_VE_MTurk/MX_fS_HTML.html#201,201,1708,854,1708,960,1-12-2024,21-40-43,54,VR_target_stimuli/s50_1.3x_4.53_518_BC.png,125,1.3x,4.53,2.0,2828,125,meters,jsons/MX_seq2_0_VE125_flipped.json,210365,365063,22,Woman
54,149786,final-intermixed-textured,v2,jsons/MX_seq2_0_VE125_flipped.json,http://54.235.29.9/FacialAge/BNav_EC2/DepthDuration/MX_fS_VE_MTurk/MX_fS_HTML.html#201,201,1708,854,1708,960,1-12-2024,21-40-43,55,VR_target_stimuli/s53_1x_1.6_387_BC.png,125,1x,1.6,2.0,1875,124,meters,jsons/MX_seq2_0_VE125_flipped.json,210365,365063,22,Woman
55,149786,final-intermixed-textured,v2,jsons/MX_seq2_0_VE125_flipped.json,http://54.235.29.9/FacialAge/BNav_EC2/DepthDuration/MX_fS_VE_MTurk/MX_fS_HTML.html#201,201,1708,854,1708,960,1-12-2024,21-40-43,56,VR_target_stimuli/s38_0.75x_3.55_346.png,125,0.75x,3.55,4.0,2317,123,meters,jsons/MX_seq2_0_VE125_flipped.json,210365,365063,22,Woman
56,149786,final-intermixed-textured,v2,jsons/MX_seq2_0_VE125_flipped.json,http://54.235.29.9/FacialAge/BNav_EC2/DepthDuration/MX_fS_VE_MTurk/MX_fS_HTML.html#201,201,1708,854,1708,960,1-12-2024,21-40-43,57,VR_target_stimuli/s9_1.3x_1.2_276_BC.png,125,1.3x,1.2,2.0,2121,125,meters,jsons/MX_seq2_0_VE125_flipped.json,210365,365063,22,Woman
57,149786,final-intermixed-textured,v2,jsons/MX_seq2_0_VE125_flipped.json,http://54.235.29.9/FacialAge/BNav_EC2/DepthDuration/MX_fS_VE_MTurk/MX_fS_HTML.html#201,201,1708,854,1708,960,1-12-2024,21-40-43,58,VR_target_stimuli/s44_1.3x_4.4_325.png,125,1.3x,4.4,3.0,1882,121,meters,jsons/MX_seq2_0_VE125_flipped.json,210365,365063,22,Woman
58,149786,final-intermixed-textured,v2,jsons/MX_seq2_0_VE125_flipped.json,http://54.235.29.9/FacialAge/BNav_EC2/DepthDuration/MX_fS_VE_MTurk/MX_fS_HTML.html#201,201,1708,854,1708,960,1-12-2024,21-40-43,59,VR_target_stimuli/s3_1x_5_385.png,125,1x,5.0,0.0,2257,124,meters,jsons/MX_seq2_0_VE125_flipped.json,210365,365063,22,Woman
59,149786,final-intermixed-textured,v2,jsons/MX_seq2_0_VE125_flipped.json,http://54.235.29.9/FacialAge/BNav_EC2/DepthDuration/MX_fS_VE_MTurk/MX_fS_HTML.html#201,201,1708,854,1708,960,1-12-2024,21-40-43,60,VR_target_stimuli/s1_0.75x_1.7_265_BC.png,125,0.75x,1.7,1.5,2876,125,meters,jsons/MX_seq2_0_VE125_flipped.json,210365,365063,22,Woman
