,subjID,experimentName,versionName,sequenceName,url,selected_row,windowWidth,windowHeight,screenWidth,screenHeight,startDate,startTime,trial,stimulus,duration,scale,actual_depth,depth_estimate,trial_RT,log_sceneDuration,unitSelection,seq_filepath,experimentTime,totalTime,age,gender
0,151722,final-intermixed-textured,v2,jsons/MX_seq12_1_VE125_flipped.json,http://54.235.29.9/FacialAge/BNav_EC2/DepthDuration/MX_fS_VE_MTurk/MX_fS_HTML.html#73,73,1280,645,1280,800,1-12-2024,12-31-26,1,VR_target_stimuli/s48_1.3x_2.55_255_BC.png,125,1.3x,2.55,4,3148,120,meters,jsons/MX_seq12_1_VE125_flipped.json,191196,470595,23,Woman
1,151722,final-intermixed-textured,v2,jsons/MX_seq12_1_VE125_flipped.json,http://54.235.29.9/FacialAge/BNav_EC2/DepthDuration/MX_fS_VE_MTurk/MX_fS_HTML.html#73,73,1280,645,1280,800,1-12-2024,12-31-26,2,VR_target_stimuli/s19_0.75x_1.21_257_BC.png,125,0.75x,1.21,6,3008,124,meters,jsons/MX_seq12_1_VE125_flipped.json,191196,470595,23,Woman
2,151722,final-intermixed-textured,v2,jsons/MX_seq12_1_VE125_flipped.json,http://54.235.29.9/FacialAge/BNav_EC2/DepthDuration/MX_fS_VE_MTurk/MX_fS_HTML.html#73,73,1280,645,1280,800,1-12-2024,12-31-26,3,VR_target_stimuli/s21_1x_4.22_379.png,125,1x,4.22,9,4526,126,meters,jsons/MX_seq12_1_VE125_flipped.json,191196,470595,23,Woman
3,151722,final-intermixed-textured,v2,jsons/MX_seq12_1_VE125_flipped.json,http://54.235.29.9/FacialAge/BNav_EC2/DepthDuration/MX_fS_VE_MTurk/MX_fS_HTML.html#73,73,1280,645,1280,800,1-12-2024,12-31-26,4,VR_target_stimuli/s8_0.75x_3.1_325.png,125,0.75x,3.1,8,4552,124,meters,jsons/MX_seq12_1_VE125_flipped.json,191196,470595,23,Woman
4,151722,final-intermixed-textured,v2,jsons/MX_seq12_1_VE125_flipped.json,http://54.235.29.9/FacialAge/BNav_EC2/DepthDuration/MX_fS_VE_MTurk/MX_fS_HTML.html#73,73,1280,645,1280,800,1-12-2024,12-31-26,5,VR_target_stimuli/s27_1.3x_1.76_250.png,125,1.3x,1.76,6,2975,120,meters,jsons/MX_seq12_1_VE125_flipped.json,191196,470595,23,Woman
5,151722,final-intermixed-textured,v2,jsons/MX_seq12_1_VE125_flipped.json,http://54.235.29.9/FacialAge/BNav_EC2/DepthDuration/MX_fS_VE_MTurk/MX_fS_HTML.html#73,73,1280,645,1280,800,1-12-2024,12-31-26,6,VR_target_stimuli/s15_1x_4.2_390_BC.png,125,1x,4.2,7,3224,116,meters,jsons/MX_seq12_1_VE125_flipped.json,191196,470595,23,Woman
6,151722,final-intermixed-textured,v2,jsons/MX_seq12_1_VE125_flipped.json,http://54.235.29.9/FacialAge/BNav_EC2/DepthDuration/MX_fS_VE_MTurk/MX_fS_HTML.html#73,73,1280,645,1280,800,1-12-2024,12-31-26,7,catch_stimuli/c0_BC.png,125,,,0,2827,119,meters,jsons/MX_seq12_1_VE125_flipped.json,191196,470595,23,Woman
7,151722,final-intermixed-textured,v2,jsons/MX_seq12_1_VE125_flipped.json,http://54.235.29.9/FacialAge/BNav_EC2/DepthDuration/MX_fS_VE_MTurk/MX_fS_HTML.html#73,73,1280,645,1280,800,1-12-2024,12-31-26,8,VR_target_stimuli/s4_1x_1.4_313_BC.png,125,1x,1.4,5,2944,121,meters,jsons/MX_seq12_1_VE125_flipped.json,191196,470595,23,Woman
8,151722,final-intermixed-textured,v2,jsons/MX_seq12_1_VE125_flipped.json,http://54.235.29.9/FacialAge/BNav_EC2/DepthDuration/MX_fS_VE_MTurk/MX_fS_HTML.html#73,73,1280,645,1280,800,1-12-2024,12-31-26,9,VR_target_stimuli/s35_0.75x_2_323_BC.png,125,0.75x,2.0,6,2183,119,meters,jsons/MX_seq12_1_VE125_flipped.json,191196,470595,23,Woman
9,151722,final-intermixed-textured,v2,jsons/MX_seq12_1_VE125_flipped.json,http://54.235.29.9/FacialAge/BNav_EC2/DepthDuration/MX_fS_VE_MTurk/MX_fS_HTML.html#73,73,1280,645,1280,800,1-12-2024,12-31-26,10,VR_target_stimuli/s49_1.3x_4.67_354.png,125,1.3x,4.67,7,3359,123,meters,jsons/MX_seq12_1_VE125_flipped.json,191196,470595,23,Woman
10,151722,final-intermixed-textured,v2,jsons/MX_seq12_1_VE125_flipped.json,http://54.235.29.9/FacialAge/BNav_EC2/DepthDuration/MX_fS_VE_MTurk/MX_fS_HTML.html#73,73,1280,645,1280,800,1-12-2024,12-31-26,11,VR_target_stimuli/s7_0.75x_1.5_253.png,125,0.75x,1.5,5,3197,117,meters,jsons/MX_seq12_1_VE125_flipped.json,191196,470595,23,Woman
11,151722,final-intermixed-textured,v2,jsons/MX_seq12_1_VE125_flipped.json,http://54.235.29.9/FacialAge/BNav_EC2/DepthDuration/MX_fS_VE_MTurk/MX_fS_HTML.html#73,73,1280,645,1280,800,1-12-2024,12-31-26,12,VR_target_stimuli/s20_1x_4.99_398.png,125,1x,4.99,7,2496,120,meters,jsons/MX_seq12_1_VE125_flipped.json,191196,470595,23,Woman
12,151722,final-intermixed-textured,v2,jsons/MX_seq12_1_VE125_flipped.json,http://54.235.29.9/FacialAge/BNav_EC2/DepthDuration/MX_fS_VE_MTurk/MX_fS_HTML.html#73,73,1280,645,1280,800,1-12-2024,12-31-26,13,VR_target_stimuli/s31_1.3x_4.96_342_BC.png,125,1.3x,4.96,4,3041,128,meters,jsons/MX_seq12_1_VE125_flipped.json,191196,470595,23,Woman
13,151722,final-intermixed-textured,v2,jsons/MX_seq12_1_VE125_flipped.json,http://54.235.29.9/FacialAge/BNav_EC2/DepthDuration/MX_fS_VE_MTurk/MX_fS_HTML.html#73,73,1280,645,1280,800,1-12-2024,12-31-26,14,VR_target_stimuli/s33_1x_3.1_366_BC.png,125,1x,3.1,4,2000,123,meters,jsons/MX_seq12_1_VE125_flipped.json,191196,470595,23,Woman
14,151722,final-intermixed-textured,v2,jsons/MX_seq12_1_VE125_flipped.json,http://54.235.29.9/FacialAge/BNav_EC2/DepthDuration/MX_fS_VE_MTurk/MX_fS_HTML.html#73,73,1280,645,1280,800,1-12-2024,12-31-26,15,VR_target_stimuli/s52_0.75x_3.2_270.png,125,0.75x,3.2,9,3310,116,meters,jsons/MX_seq12_1_VE125_flipped.json,191196,470595,23,Woman
15,151722,final-intermixed-textured,v2,jsons/MX_seq12_1_VE125_flipped.json,http://54.235.29.9/FacialAge/BNav_EC2/DepthDuration/MX_fS_VE_MTurk/MX_fS_HTML.html#73,73,1280,645,1280,800,1-12-2024,12-31-26,16,VR_target_stimuli/s32_1.3x_1.5_224_BC.png,125,1.3x,1.5,6,2703,123,meters,jsons/MX_seq12_1_VE125_flipped.json,191196,470595,23,Woman
16,151722,final-intermixed-textured,v2,jsons/MX_seq12_1_VE125_flipped.json,http://54.235.29.9/FacialAge/BNav_EC2/DepthDuration/MX_fS_VE_MTurk/MX_fS_HTML.html#73,73,1280,645,1280,800,1-12-2024,12-31-26,17,catch_stimuli/c1_BC.png,125,,,0,2487,119,meters,jsons/MX_seq12_1_VE125_flipped.json,191196,470595,23,Woman
17,151722,final-intermixed-textured,v2,jsons/MX_seq12_1_VE125_flipped.json,http://54.235.29.9/FacialAge/BNav_EC2/DepthDuration/MX_fS_VE_MTurk/MX_fS_HTML.html#73,73,1280,645,1280,800,1-12-2024,12-31-26,18,VR_target_stimuli/s18_1.3x_2.25_368.png,125,1.3x,2.25,7,3071,117,meters,jsons/MX_seq12_1_VE125_flipped.json,191196,470595,23,Woman
18,151722,final-intermixed-textured,v2,jsons/MX_seq12_1_VE125_flipped.json,http://54.235.29.9/FacialAge/BNav_EC2/DepthDuration/MX_fS_VE_MTurk/MX_fS_HTML.html#73,73,1280,645,1280,800,1-12-2024,12-31-26,19,VR_target_stimuli/s39_1x_1_207.png,125,1x,1.0,6,2070,125,meters,jsons/MX_seq12_1_VE125_flipped.json,191196,470595,23,Woman
19,151722,final-intermixed-textured,v2,jsons/MX_seq12_1_VE125_flipped.json,http://54.235.29.9/FacialAge/BNav_EC2/DepthDuration/MX_fS_VE_MTurk/MX_fS_HTML.html#73,73,1280,645,1280,800,1-12-2024,12-31-26,20,VR_target_stimuli/s51_0.75x_3.64_460_BC.png,125,0.75x,3.64,6,3496,123,meters,jsons/MX_seq12_1_VE125_flipped.json,191196,470595,23,Woman
20,151722,final-intermixed-textured,v2,jsons/MX_seq12_1_VE125_flipped.json,http://54.235.29.9/FacialAge/BNav_EC2/DepthDuration/MX_fS_VE_MTurk/MX_fS_HTML.html#73,73,1280,645,1280,800,1-12-2024,12-31-26,21,VR_target_stimuli/s43_1x_2.2_354_BC.png,125,1x,2.2,6,14730,122,meters,jsons/MX_seq12_1_VE125_flipped.json,191196,470595,23,Woman
21,151722,final-intermixed-textured,v2,jsons/MX_seq12_1_VE125_flipped.json,http://54.235.29.9/FacialAge/BNav_EC2/DepthDuration/MX_fS_VE_MTurk/MX_fS_HTML.html#73,73,1280,645,1280,800,1-12-2024,12-31-26,22,VR_target_stimuli/s24_1.3x_3.3_352.png,125,1.3x,3.3,6,2302,119,meters,jsons/MX_seq12_1_VE125_flipped.json,191196,470595,23,Woman
22,151722,final-intermixed-textured,v2,jsons/MX_seq12_1_VE125_flipped.json,http://54.235.29.9/FacialAge/BNav_EC2/DepthDuration/MX_fS_VE_MTurk/MX_fS_HTML.html#73,73,1280,645,1280,800,1-12-2024,12-31-26,23,VR_target_stimuli/s10_0.75x_2.7_321_BC.png,125,0.75x,2.7,5,2088,126,meters,jsons/MX_seq12_1_VE125_flipped.json,191196,470595,23,Woman
23,151722,final-intermixed-textured,v2,jsons/MX_seq12_1_VE125_flipped.json,http://54.235.29.9/FacialAge/BNav_EC2/DepthDuration/MX_fS_VE_MTurk/MX_fS_HTML.html#73,73,1280,645,1280,800,1-12-2024,12-31-26,24,VR_target_stimuli/s36_1.3x_4.1_442_BC.png,125,1.3x,4.1,6,3058,128,meters,jsons/MX_seq12_1_VE125_flipped.json,191196,470595,23,Woman
24,151722,final-intermixed-textured,v2,jsons/MX_seq12_1_VE125_flipped.json,http://54.235.29.9/FacialAge/BNav_EC2/DepthDuration/MX_fS_VE_MTurk/MX_fS_HTML.html#73,73,1280,645,1280,800,1-12-2024,12-31-26,25,VR_target_stimuli/s40_1x_1.2_319.png,125,1x,1.2,4,2266,121,meters,jsons/MX_seq12_1_VE125_flipped.json,191196,470595,23,Woman
25,151722,final-intermixed-textured,v2,jsons/MX_seq12_1_VE125_flipped.json,http://54.235.29.9/FacialAge/BNav_EC2/DepthDuration/MX_fS_VE_MTurk/MX_fS_HTML.html#73,73,1280,645,1280,800,1-12-2024,12-31-26,26,catch_stimuli/c2_BC.png,125,,,0,2175,119,meters,jsons/MX_seq12_1_VE125_flipped.json,191196,470595,23,Woman
26,151722,final-intermixed-textured,v2,jsons/MX_seq12_1_VE125_flipped.json,http://54.235.29.9/FacialAge/BNav_EC2/DepthDuration/MX_fS_VE_MTurk/MX_fS_HTML.html#73,73,1280,645,1280,800,1-12-2024,12-31-26,27,VR_target_stimuli/s41_0.75x_2.1_281.png,125,0.75x,2.1,6,1831,118,meters,jsons/MX_seq12_1_VE125_flipped.json,191196,470595,23,Woman
27,151722,final-intermixed-textured,v2,jsons/MX_seq12_1_VE125_flipped.json,http://54.235.29.9/FacialAge/BNav_EC2/DepthDuration/MX_fS_VE_MTurk/MX_fS_HTML.html#73,73,1280,645,1280,800,1-12-2024,12-31-26,28,VR_target_stimuli/s45_0.75x_3.5_362_BC.png,125,0.75x,3.5,6,3009,123,meters,jsons/MX_seq12_1_VE125_flipped.json,191196,470595,23,Woman
28,151722,final-intermixed-textured,v2,jsons/MX_seq12_1_VE125_flipped.json,http://54.235.29.9/FacialAge/BNav_EC2/DepthDuration/MX_fS_VE_MTurk/MX_fS_HTML.html#73,73,1280,645,1280,800,1-12-2024,12-31-26,29,VR_target_stimuli/s23_1.3x_3.65_354.png,125,1.3x,3.65,8,1970,129,meters,jsons/MX_seq12_1_VE125_flipped.json,191196,470595,23,Woman
29,151722,final-intermixed-textured,v2,jsons/MX_seq12_1_VE125_flipped.json,http://54.235.29.9/FacialAge/BNav_EC2/DepthDuration/MX_fS_VE_MTurk/MX_fS_HTML.html#73,73,1280,645,1280,800,1-12-2024,12-31-26,30,VR_target_stimuli/s26_1x_4_433.png,125,1x,4.0,8,2056,124,meters,jsons/MX_seq12_1_VE125_flipped.json,191196,470595,23,Woman
30,151722,final-intermixed-textured,v2,jsons/MX_seq12_1_VE125_flipped.json,http://54.235.29.9/FacialAge/BNav_EC2/DepthDuration/MX_fS_VE_MTurk/MX_fS_HTML.html#73,73,1280,645,1280,800,1-12-2024,12-31-26,31,VR_target_stimuli/s12_0.75x_3.1_364.png,125,0.75x,3.1,9,2015,116,meters,jsons/MX_seq12_1_VE125_flipped.json,191196,470595,23,Woman
31,151722,final-intermixed-textured,v2,jsons/MX_seq12_1_VE125_flipped.json,http://54.235.29.9/FacialAge/BNav_EC2/DepthDuration/MX_fS_VE_MTurk/MX_fS_HTML.html#73,73,1280,645,1280,800,1-12-2024,12-31-26,32,VR_target_stimuli/s30_1x_2.3_334_BC.png,125,1x,2.3,6,2243,124,meters,jsons/MX_seq12_1_VE125_flipped.json,191196,470595,23,Woman
32,151722,final-intermixed-textured,v2,jsons/MX_seq12_1_VE125_flipped.json,http://54.235.29.9/FacialAge/BNav_EC2/DepthDuration/MX_fS_VE_MTurk/MX_fS_HTML.html#73,73,1280,645,1280,800,1-12-2024,12-31-26,33,VR_target_stimuli/s16_1.3x_1_223_BC.png,125,1.3x,1.0,4,2286,119,meters,jsons/MX_seq12_1_VE125_flipped.json,191196,470595,23,Woman
33,151722,final-intermixed-textured,v2,jsons/MX_seq12_1_VE125_flipped.json,http://54.235.29.9/FacialAge/BNav_EC2/DepthDuration/MX_fS_VE_MTurk/MX_fS_HTML.html#73,73,1280,645,1280,800,1-12-2024,12-31-26,34,catch_stimuli/c3_BC.png,125,,,0,2138,127,meters,jsons/MX_seq12_1_VE125_flipped.json,191196,470595,23,Woman
34,151722,final-intermixed-textured,v2,jsons/MX_seq12_1_VE125_flipped.json,http://54.235.29.9/FacialAge/BNav_EC2/DepthDuration/MX_fS_VE_MTurk/MX_fS_HTML.html#73,73,1280,645,1280,800,1-12-2024,12-31-26,35,VR_target_stimuli/s17_1x_1.8_291_BC.png,125,1x,1.8,5,2008,120,meters,jsons/MX_seq12_1_VE125_flipped.json,191196,470595,23,Woman
35,151722,final-intermixed-textured,v2,jsons/MX_seq12_1_VE125_flipped.json,http://54.235.29.9/FacialAge/BNav_EC2/DepthDuration/MX_fS_VE_MTurk/MX_fS_HTML.html#73,73,1280,645,1280,800,1-12-2024,12-31-26,36,VR_target_stimuli/s5_0.75x_4_375.png,125,0.75x,4.0,7,1903,116,meters,jsons/MX_seq12_1_VE125_flipped.json,191196,470595,23,Woman
36,151722,final-intermixed-textured,v2,jsons/MX_seq12_1_VE125_flipped.json,http://54.235.29.9/FacialAge/BNav_EC2/DepthDuration/MX_fS_VE_MTurk/MX_fS_HTML.html#73,73,1280,645,1280,800,1-12-2024,12-31-26,37,VR_target_stimuli/s37_1.3x_3.3_555_BC.png,125,1.3x,3.3,5,2023,120,meters,jsons/MX_seq12_1_VE125_flipped.json,191196,470595,23,Woman
37,151722,final-intermixed-textured,v2,jsons/MX_seq12_1_VE125_flipped.json,http://54.235.29.9/FacialAge/BNav_EC2/DepthDuration/MX_fS_VE_MTurk/MX_fS_HTML.html#73,73,1280,645,1280,800,1-12-2024,12-31-26,38,VR_target_stimuli/s46_1.3x_2.42_354.png,125,1.3x,2.42,8,2049,126,meters,jsons/MX_seq12_1_VE125_flipped.json,191196,470595,23,Woman
38,151722,final-intermixed-textured,v2,jsons/MX_seq12_1_VE125_flipped.json,http://54.235.29.9/FacialAge/BNav_EC2/DepthDuration/MX_fS_VE_MTurk/MX_fS_HTML.html#73,73,1280,645,1280,800,1-12-2024,12-31-26,39,VR_target_stimuli/s22_1x_4.29_354.png,125,1x,4.29,9,1999,123,meters,jsons/MX_seq12_1_VE125_flipped.json,191196,470595,23,Woman
39,151722,final-intermixed-textured,v2,jsons/MX_seq12_1_VE125_flipped.json,http://54.235.29.9/FacialAge/BNav_EC2/DepthDuration/MX_fS_VE_MTurk/MX_fS_HTML.html#73,73,1280,645,1280,800,1-12-2024,12-31-26,40,VR_target_stimuli/s42_0.75x_3.2_301_BC.png,125,0.75x,3.2,9,2124,127,meters,jsons/MX_seq12_1_VE125_flipped.json,191196,470595,23,Woman
40,151722,final-intermixed-textured,v2,jsons/MX_seq12_1_VE125_flipped.json,http://54.235.29.9/FacialAge/BNav_EC2/DepthDuration/MX_fS_VE_MTurk/MX_fS_HTML.html#73,73,1280,645,1280,800,1-12-2024,12-31-26,41,VR_target_stimuli/s25_1x_1.4_290.png,125,1x,1.4,5,2192,119,meters,jsons/MX_seq12_1_VE125_flipped.json,191196,470595,23,Woman
41,151722,final-intermixed-textured,v2,jsons/MX_seq12_1_VE125_flipped.json,http://54.235.29.9/FacialAge/BNav_EC2/DepthDuration/MX_fS_VE_MTurk/MX_fS_HTML.html#73,73,1280,645,1280,800,1-12-2024,12-31-26,42,VR_target_stimuli/s50_1.3x_4.53_518.png,125,1.3x,4.53,6,2363,125,meters,jsons/MX_seq12_1_VE125_flipped.json,191196,470595,23,Woman
42,151722,final-intermixed-textured,v2,jsons/MX_seq12_1_VE125_flipped.json,http://54.235.29.9/FacialAge/BNav_EC2/DepthDuration/MX_fS_VE_MTurk/MX_fS_HTML.html#73,73,1280,645,1280,800,1-12-2024,12-31-26,43,VR_target_stimuli/s53_0.75x_1.6_403_BC.png,125,0.75x,1.6,3,2422,122,meters,jsons/MX_seq12_1_VE125_flipped.json,191196,470595,23,Woman
43,151722,final-intermixed-textured,v2,jsons/MX_seq12_1_VE125_flipped.json,http://54.235.29.9/FacialAge/BNav_EC2/DepthDuration/MX_fS_VE_MTurk/MX_fS_HTML.html#73,73,1280,645,1280,800,1-12-2024,12-31-26,44,VR_target_stimuli/s38_1.3x_3.55_358_BC.png,125,1.3x,3.55,5,2568,127,meters,jsons/MX_seq12_1_VE125_flipped.json,191196,470595,23,Woman
44,151722,final-intermixed-textured,v2,jsons/MX_seq12_1_VE125_flipped.json,http://54.235.29.9/FacialAge/BNav_EC2/DepthDuration/MX_fS_VE_MTurk/MX_fS_HTML.html#73,73,1280,645,1280,800,1-12-2024,12-31-26,45,catch_stimuli/c4_BC.png,125,,,0,2057,128,meters,jsons/MX_seq12_1_VE125_flipped.json,191196,470595,23,Woman
45,151722,final-intermixed-textured,v2,jsons/MX_seq12_1_VE125_flipped.json,http://54.235.29.9/FacialAge/BNav_EC2/DepthDuration/MX_fS_VE_MTurk/MX_fS_HTML.html#73,73,1280,645,1280,800,1-12-2024,12-31-26,46,VR_target_stimuli/s9_1x_1.2_263_BC.png,125,1x,1.2,5,1815,123,meters,jsons/MX_seq12_1_VE125_flipped.json,191196,470595,23,Woman
46,151722,final-intermixed-textured,v2,jsons/MX_seq12_1_VE125_flipped.json,http://54.235.29.9/FacialAge/BNav_EC2/DepthDuration/MX_fS_VE_MTurk/MX_fS_HTML.html#73,73,1280,645,1280,800,1-12-2024,12-31-26,47,VR_target_stimuli/s44_0.75x_4.4_314.png,125,0.75x,4.4,8,1775,125,meters,jsons/MX_seq12_1_VE125_flipped.json,191196,470595,23,Woman
47,151722,final-intermixed-textured,v2,jsons/MX_seq12_1_VE125_flipped.json,http://54.235.29.9/FacialAge/BNav_EC2/DepthDuration/MX_fS_VE_MTurk/MX_fS_HTML.html#73,73,1280,645,1280,800,1-12-2024,12-31-26,48,VR_target_stimuli/s3_0.75x_5_381.png,125,0.75x,5.0,9,1928,124,meters,jsons/MX_seq12_1_VE125_flipped.json,191196,470595,23,Woman
48,151722,final-intermixed-textured,v2,jsons/MX_seq12_1_VE125_flipped.json,http://54.235.29.9/FacialAge/BNav_EC2/DepthDuration/MX_fS_VE_MTurk/MX_fS_HTML.html#73,73,1280,645,1280,800,1-12-2024,12-31-26,49,VR_target_stimuli/s1_1.3x_1.7_261.png,125,1.3x,1.7,4,2751,123,meters,jsons/MX_seq12_1_VE125_flipped.json,191196,470595,23,Woman
49,151722,final-intermixed-textured,v2,jsons/MX_seq12_1_VE125_flipped.json,http://54.235.29.9/FacialAge/BNav_EC2/DepthDuration/MX_fS_VE_MTurk/MX_fS_HTML.html#73,73,1280,645,1280,800,1-12-2024,12-31-26,50,VR_target_stimuli/s11_1x_5_361_BC.png,125,1x,5.0,6,2016,121,meters,jsons/MX_seq12_1_VE125_flipped.json,191196,470595,23,Woman
50,151722,final-intermixed-textured,v2,jsons/MX_seq12_1_VE125_flipped.json,http://54.235.29.9/FacialAge/BNav_EC2/DepthDuration/MX_fS_VE_MTurk/MX_fS_HTML.html#73,73,1280,645,1280,800,1-12-2024,12-31-26,51,VR_target_stimuli/s2_1.3x_2.7_397_BC.png,125,1.3x,2.7,4,2207,121,meters,jsons/MX_seq12_1_VE125_flipped.json,191196,470595,23,Woman
51,151722,final-intermixed-textured,v2,jsons/MX_seq12_1_VE125_flipped.json,http://54.235.29.9/FacialAge/BNav_EC2/DepthDuration/MX_fS_VE_MTurk/MX_fS_HTML.html#73,73,1280,645,1280,800,1-12-2024,12-31-26,52,VR_target_stimuli/s6_0.75x_2.1_290_BC.png,125,0.75x,2.1,5,1807,114,meters,jsons/MX_seq12_1_VE125_flipped.json,191196,470595,23,Woman
52,151722,final-intermixed-textured,v2,jsons/MX_seq12_1_VE125_flipped.json,http://54.235.29.9/FacialAge/BNav_EC2/DepthDuration/MX_fS_VE_MTurk/MX_fS_HTML.html#73,73,1280,645,1280,800,1-12-2024,12-31-26,53,catch_stimuli/c5_BC.png,125,,,0,1879,116,meters,jsons/MX_seq12_1_VE125_flipped.json,191196,470595,23,Woman
53,151722,final-intermixed-textured,v2,jsons/MX_seq12_1_VE125_flipped.json,http://54.235.29.9/FacialAge/BNav_EC2/DepthDuration/MX_fS_VE_MTurk/MX_fS_HTML.html#73,73,1280,645,1280,800,1-12-2024,12-31-26,54,VR_target_stimuli/s0_1x_2.6_351.png,125,1x,2.6,4,1729,118,meters,jsons/MX_seq12_1_VE125_flipped.json,191196,470595,23,Woman
54,151722,final-intermixed-textured,v2,jsons/MX_seq12_1_VE125_flipped.json,http://54.235.29.9/FacialAge/BNav_EC2/DepthDuration/MX_fS_VE_MTurk/MX_fS_HTML.html#73,73,1280,645,1280,800,1-12-2024,12-31-26,55,VR_target_stimuli/s34_0.75x_2.8_269.png,125,0.75x,2.8,7,1938,122,meters,jsons/MX_seq12_1_VE125_flipped.json,191196,470595,23,Woman
55,151722,final-intermixed-textured,v2,jsons/MX_seq12_1_VE125_flipped.json,http://54.235.29.9/FacialAge/BNav_EC2/DepthDuration/MX_fS_VE_MTurk/MX_fS_HTML.html#73,73,1280,645,1280,800,1-12-2024,12-31-26,56,VR_target_stimuli/s13_1.3x_2.4_313.png,125,1.3x,2.4,0,3889,120,meters,jsons/MX_seq12_1_VE125_flipped.json,191196,470595,23,Woman
56,151722,final-intermixed-textured,v2,jsons/MX_seq12_1_VE125_flipped.json,http://54.235.29.9/FacialAge/BNav_EC2/DepthDuration/MX_fS_VE_MTurk/MX_fS_HTML.html#73,73,1280,645,1280,800,1-12-2024,12-31-26,57,VR_target_stimuli/s14_1x_ 3.83_357_BC.png,125,1x,3.83,7,2825,120,meters,jsons/MX_seq12_1_VE125_flipped.json,191196,470595,23,Woman
57,151722,final-intermixed-textured,v2,jsons/MX_seq12_1_VE125_flipped.json,http://54.235.29.9/FacialAge/BNav_EC2/DepthDuration/MX_fS_VE_MTurk/MX_fS_HTML.html#73,73,1280,645,1280,800,1-12-2024,12-31-26,58,VR_target_stimuli/s47_1x_3.45_370.png,125,1x,3.45,4,1960,115,meters,jsons/MX_seq12_1_VE125_flipped.json,191196,470595,23,Woman
58,151722,final-intermixed-textured,v2,jsons/MX_seq12_1_VE125_flipped.json,http://54.235.29.9/FacialAge/BNav_EC2/DepthDuration/MX_fS_VE_MTurk/MX_fS_HTML.html#73,73,1280,645,1280,800,1-12-2024,12-31-26,59,VR_target_stimuli/s29_0.75x_1.3_246_BC.png,125,0.75x,1.3,4,1904,125,meters,jsons/MX_seq12_1_VE125_flipped.json,191196,470595,23,Woman
59,151722,final-intermixed-textured,v2,jsons/MX_seq12_1_VE125_flipped.json,http://54.235.29.9/FacialAge/BNav_EC2/DepthDuration/MX_fS_VE_MTurk/MX_fS_HTML.html#73,73,1280,645,1280,800,1-12-2024,12-31-26,60,VR_target_stimuli/s28_1.3x_3.2_365_BC.png,125,1.3x,3.2,5,1817,125,meters,jsons/MX_seq12_1_VE125_flipped.json,191196,470595,23,Woman
