,subjID,experimentName,versionName,sequenceName,url,selected_row,windowWidth,windowHeight,screenWidth,screenHeight,startDate,startTime,trial,stimulus,duration,scale,actual_depth,depth_estimate,trial_RT,log_sceneDuration,unitSelection,seq_filepath,experimentTime,totalTime,age,gender
0,166959,final-intermixed-textured,v2,jsons/MX_seq47_0_VE125_flipped.json,http://54.235.29.9/FacialAge/BNav_EC2/DepthDuration/MX_fS_VE_MTurk/MX_fS_HTML.html#29,29,1918,922,1920,1080,1-12-2024,22-42-21,1,VR_target_stimuli/s42_0.75x_3.2_301_BC.png,125,0.75x,3.2,2,4348,124,meters,jsons/MX_seq47_0_VE125_flipped.json,186762,336558,21,Woman
1,166959,final-intermixed-textured,v2,jsons/MX_seq47_0_VE125_flipped.json,http://54.235.29.9/FacialAge/BNav_EC2/DepthDuration/MX_fS_VE_MTurk/MX_fS_HTML.html#29,29,1918,922,1920,1080,1-12-2024,22-42-21,2,VR_target_stimuli/s25_1x_1.4_290_BC.png,125,1x,1.4,4,3626,123,meters,jsons/MX_seq47_0_VE125_flipped.json,186762,336558,21,Woman
2,166959,final-intermixed-textured,v2,jsons/MX_seq47_0_VE125_flipped.json,http://54.235.29.9/FacialAge/BNav_EC2/DepthDuration/MX_fS_VE_MTurk/MX_fS_HTML.html#29,29,1918,922,1920,1080,1-12-2024,22-42-21,3,VR_target_stimuli/s50_1.3x_4.53_518.png,125,1.3x,4.53,7,3300,123,meters,jsons/MX_seq47_0_VE125_flipped.json,186762,336558,21,Woman
3,166959,final-intermixed-textured,v2,jsons/MX_seq47_0_VE125_flipped.json,http://54.235.29.9/FacialAge/BNav_EC2/DepthDuration/MX_fS_VE_MTurk/MX_fS_HTML.html#29,29,1918,922,1920,1080,1-12-2024,22-42-21,4,VR_target_stimuli/s53_1x_1.6_387.png,125,1x,1.6,7,2610,125,meters,jsons/MX_seq47_0_VE125_flipped.json,186762,336558,21,Woman
4,166959,final-intermixed-textured,v2,jsons/MX_seq47_0_VE125_flipped.json,http://54.235.29.9/FacialAge/BNav_EC2/DepthDuration/MX_fS_VE_MTurk/MX_fS_HTML.html#29,29,1918,922,1920,1080,1-12-2024,22-42-21,5,VR_target_stimuli/s38_0.75x_3.55_346.png,125,0.75x,3.55,10,3440,124,meters,jsons/MX_seq47_0_VE125_flipped.json,186762,336558,21,Woman
5,166959,final-intermixed-textured,v2,jsons/MX_seq47_0_VE125_flipped.json,http://54.235.29.9/FacialAge/BNav_EC2/DepthDuration/MX_fS_VE_MTurk/MX_fS_HTML.html#29,29,1918,922,1920,1080,1-12-2024,22-42-21,6,VR_target_stimuli/s9_1.3x_1.2_276_BC.png,125,1.3x,1.2,3,2566,123,meters,jsons/MX_seq47_0_VE125_flipped.json,186762,336558,21,Woman
6,166959,final-intermixed-textured,v2,jsons/MX_seq47_0_VE125_flipped.json,http://54.235.29.9/FacialAge/BNav_EC2/DepthDuration/MX_fS_VE_MTurk/MX_fS_HTML.html#29,29,1918,922,1920,1080,1-12-2024,22-42-21,7,catch_stimuli/c0_BC.png,125,,,0,4130,125,meters,jsons/MX_seq47_0_VE125_flipped.json,186762,336558,21,Woman
7,166959,final-intermixed-textured,v2,jsons/MX_seq47_0_VE125_flipped.json,http://54.235.29.9/FacialAge/BNav_EC2/DepthDuration/MX_fS_VE_MTurk/MX_fS_HTML.html#29,29,1918,922,1920,1080,1-12-2024,22-42-21,8,VR_target_stimuli/s44_1.3x_4.4_325.png,125,1.3x,4.4,6,2582,125,meters,jsons/MX_seq47_0_VE125_flipped.json,186762,336558,21,Woman
8,166959,final-intermixed-textured,v2,jsons/MX_seq47_0_VE125_flipped.json,http://54.235.29.9/FacialAge/BNav_EC2/DepthDuration/MX_fS_VE_MTurk/MX_fS_HTML.html#29,29,1918,922,1920,1080,1-12-2024,22-42-21,9,VR_target_stimuli/s3_1x_5_385.png,125,1x,5.0,11,2625,126,meters,jsons/MX_seq47_0_VE125_flipped.json,186762,336558,21,Woman
9,166959,final-intermixed-textured,v2,jsons/MX_seq47_0_VE125_flipped.json,http://54.235.29.9/FacialAge/BNav_EC2/DepthDuration/MX_fS_VE_MTurk/MX_fS_HTML.html#29,29,1918,922,1920,1080,1-12-2024,22-42-21,10,VR_target_stimuli/s1_0.75x_1.7_265.png,125,0.75x,1.7,7,3166,126,meters,jsons/MX_seq47_0_VE125_flipped.json,186762,336558,21,Woman
10,166959,final-intermixed-textured,v2,jsons/MX_seq47_0_VE125_flipped.json,http://54.235.29.9/FacialAge/BNav_EC2/DepthDuration/MX_fS_VE_MTurk/MX_fS_HTML.html#29,29,1918,922,1920,1080,1-12-2024,22-42-21,11,VR_target_stimuli/s11_1x_5_361_BC.png,125,1x,5.0,9,2603,125,meters,jsons/MX_seq47_0_VE125_flipped.json,186762,336558,21,Woman
11,166959,final-intermixed-textured,v2,jsons/MX_seq47_0_VE125_flipped.json,http://54.235.29.9/FacialAge/BNav_EC2/DepthDuration/MX_fS_VE_MTurk/MX_fS_HTML.html#29,29,1918,922,1920,1080,1-12-2024,22-42-21,12,VR_target_stimuli/s2_1.3x_2.7_397_BC.png,125,1.3x,2.7,5,2714,125,meters,jsons/MX_seq47_0_VE125_flipped.json,186762,336558,21,Woman
12,166959,final-intermixed-textured,v2,jsons/MX_seq47_0_VE125_flipped.json,http://54.235.29.9/FacialAge/BNav_EC2/DepthDuration/MX_fS_VE_MTurk/MX_fS_HTML.html#29,29,1918,922,1920,1080,1-12-2024,22-42-21,13,VR_target_stimuli/s6_0.75x_2.1_290_BC.png,125,0.75x,2.1,6,1995,124,meters,jsons/MX_seq47_0_VE125_flipped.json,186762,336558,21,Woman
13,166959,final-intermixed-textured,v2,jsons/MX_seq47_0_VE125_flipped.json,http://54.235.29.9/FacialAge/BNav_EC2/DepthDuration/MX_fS_VE_MTurk/MX_fS_HTML.html#29,29,1918,922,1920,1080,1-12-2024,22-42-21,14,VR_target_stimuli/s0_1.3x_2.6_356.png,125,1.3x,2.6,6,1987,124,meters,jsons/MX_seq47_0_VE125_flipped.json,186762,336558,21,Woman
14,166959,final-intermixed-textured,v2,jsons/MX_seq47_0_VE125_flipped.json,http://54.235.29.9/FacialAge/BNav_EC2/DepthDuration/MX_fS_VE_MTurk/MX_fS_HTML.html#29,29,1918,922,1920,1080,1-12-2024,22-42-21,15,VR_target_stimuli/s34_1x_2.8_283_BC.png,125,1x,2.8,7,2158,124,meters,jsons/MX_seq47_0_VE125_flipped.json,186762,336558,21,Woman
15,166959,final-intermixed-textured,v2,jsons/MX_seq47_0_VE125_flipped.json,http://54.235.29.9/FacialAge/BNav_EC2/DepthDuration/MX_fS_VE_MTurk/MX_fS_HTML.html#29,29,1918,922,1920,1080,1-12-2024,22-42-21,16,VR_target_stimuli/s13_0.75x_2.4_308_BC.png,125,0.75x,2.4,6,2733,123,meters,jsons/MX_seq47_0_VE125_flipped.json,186762,336558,21,Woman
16,166959,final-intermixed-textured,v2,jsons/MX_seq47_0_VE125_flipped.json,http://54.235.29.9/FacialAge/BNav_EC2/DepthDuration/MX_fS_VE_MTurk/MX_fS_HTML.html#29,29,1918,922,1920,1080,1-12-2024,22-42-21,17,catch_stimuli/c1_BC.png,125,,,0,3115,112,meters,jsons/MX_seq47_0_VE125_flipped.json,186762,336558,21,Woman
17,166959,final-intermixed-textured,v2,jsons/MX_seq47_0_VE125_flipped.json,http://54.235.29.9/FacialAge/BNav_EC2/DepthDuration/MX_fS_VE_MTurk/MX_fS_HTML.html#29,29,1918,922,1920,1080,1-12-2024,22-42-21,18,VR_target_stimuli/s14_0.75x_3.83_355.png,125,0.75x,3.83,5,3378,123,meters,jsons/MX_seq47_0_VE125_flipped.json,186762,336558,21,Woman
18,166959,final-intermixed-textured,v2,jsons/MX_seq47_0_VE125_flipped.json,http://54.235.29.9/FacialAge/BNav_EC2/DepthDuration/MX_fS_VE_MTurk/MX_fS_HTML.html#29,29,1918,922,1920,1080,1-12-2024,22-42-21,19,VR_target_stimuli/s47_1.3x_3.45_373_BC.png,125,1.3x,3.45,5,1976,124,meters,jsons/MX_seq47_0_VE125_flipped.json,186762,336558,21,Woman
19,166959,final-intermixed-textured,v2,jsons/MX_seq47_0_VE125_flipped.json,http://54.235.29.9/FacialAge/BNav_EC2/DepthDuration/MX_fS_VE_MTurk/MX_fS_HTML.html#29,29,1918,922,1920,1080,1-12-2024,22-42-21,20,VR_target_stimuli/s29_1x_1.3_250.png,125,1x,1.3,3,3446,126,meters,jsons/MX_seq47_0_VE125_flipped.json,186762,336558,21,Woman
20,166959,final-intermixed-textured,v2,jsons/MX_seq47_0_VE125_flipped.json,http://54.235.29.9/FacialAge/BNav_EC2/DepthDuration/MX_fS_VE_MTurk/MX_fS_HTML.html#29,29,1918,922,1920,1080,1-12-2024,22-42-21,21,VR_target_stimuli/s28_1.3x_3.2_365.png,125,1.3x,3.2,0,3324,110,meters,jsons/MX_seq47_0_VE125_flipped.json,186762,336558,21,Woman
21,166959,final-intermixed-textured,v2,jsons/MX_seq47_0_VE125_flipped.json,http://54.235.29.9/FacialAge/BNav_EC2/DepthDuration/MX_fS_VE_MTurk/MX_fS_HTML.html#29,29,1918,922,1920,1080,1-12-2024,22-42-21,22,VR_target_stimuli/s48_0.75x_2.55_243_BC.png,125,0.75x,2.55,6,2482,124,meters,jsons/MX_seq47_0_VE125_flipped.json,186762,336558,21,Woman
22,166959,final-intermixed-textured,v2,jsons/MX_seq47_0_VE125_flipped.json,http://54.235.29.9/FacialAge/BNav_EC2/DepthDuration/MX_fS_VE_MTurk/MX_fS_HTML.html#29,29,1918,922,1920,1080,1-12-2024,22-42-21,23,VR_target_stimuli/s19_1x_1.21_263_BC.png,125,1x,1.21,2,2305,117,meters,jsons/MX_seq47_0_VE125_flipped.json,186762,336558,21,Woman
23,166959,final-intermixed-textured,v2,jsons/MX_seq47_0_VE125_flipped.json,http://54.235.29.9/FacialAge/BNav_EC2/DepthDuration/MX_fS_VE_MTurk/MX_fS_HTML.html#29,29,1918,922,1920,1080,1-12-2024,22-42-21,24,VR_target_stimuli/s21_0.75x_4.22_374.png,125,0.75x,4.22,6,3321,123,meters,jsons/MX_seq47_0_VE125_flipped.json,186762,336558,21,Woman
24,166959,final-intermixed-textured,v2,jsons/MX_seq47_0_VE125_flipped.json,http://54.235.29.9/FacialAge/BNav_EC2/DepthDuration/MX_fS_VE_MTurk/MX_fS_HTML.html#29,29,1918,922,1920,1080,1-12-2024,22-42-21,25,VR_target_stimuli/s8_1.3x_3.1_345_BC.png,125,1.3x,3.1,4,2417,137,meters,jsons/MX_seq47_0_VE125_flipped.json,186762,336558,21,Woman
25,166959,final-intermixed-textured,v2,jsons/MX_seq47_0_VE125_flipped.json,http://54.235.29.9/FacialAge/BNav_EC2/DepthDuration/MX_fS_VE_MTurk/MX_fS_HTML.html#29,29,1918,922,1920,1080,1-12-2024,22-42-21,26,catch_stimuli/c2_BC.png,125,,,0,2509,125,meters,jsons/MX_seq47_0_VE125_flipped.json,186762,336558,21,Woman
26,166959,final-intermixed-textured,v2,jsons/MX_seq47_0_VE125_flipped.json,http://54.235.29.9/FacialAge/BNav_EC2/DepthDuration/MX_fS_VE_MTurk/MX_fS_HTML.html#29,29,1918,922,1920,1080,1-12-2024,22-42-21,27,VR_target_stimuli/s27_1x_1.76_248.png,125,1x,1.76,3,2556,123,meters,jsons/MX_seq47_0_VE125_flipped.json,186762,336558,21,Woman
27,166959,final-intermixed-textured,v2,jsons/MX_seq47_0_VE125_flipped.json,http://54.235.29.9/FacialAge/BNav_EC2/DepthDuration/MX_fS_VE_MTurk/MX_fS_HTML.html#29,29,1918,922,1920,1080,1-12-2024,22-42-21,28,VR_target_stimuli/s15_1x_4.2_390.png,125,1x,4.2,4,1709,125,meters,jsons/MX_seq47_0_VE125_flipped.json,186762,336558,21,Woman
28,166959,final-intermixed-textured,v2,jsons/MX_seq47_0_VE125_flipped.json,http://54.235.29.9/FacialAge/BNav_EC2/DepthDuration/MX_fS_VE_MTurk/MX_fS_HTML.html#29,29,1918,922,1920,1080,1-12-2024,22-42-21,29,VR_target_stimuli/s4_0.75x_1.4_301.png,125,0.75x,1.4,4,2014,127,meters,jsons/MX_seq47_0_VE125_flipped.json,186762,336558,21,Woman
29,166959,final-intermixed-textured,v2,jsons/MX_seq47_0_VE125_flipped.json,http://54.235.29.9/FacialAge/BNav_EC2/DepthDuration/MX_fS_VE_MTurk/MX_fS_HTML.html#29,29,1918,922,1920,1080,1-12-2024,22-42-21,30,VR_target_stimuli/s35_1.3x_2_338.png,125,1.3x,2.0,3,3259,125,meters,jsons/MX_seq47_0_VE125_flipped.json,186762,336558,21,Woman
30,166959,final-intermixed-textured,v2,jsons/MX_seq47_0_VE125_flipped.json,http://54.235.29.9/FacialAge/BNav_EC2/DepthDuration/MX_fS_VE_MTurk/MX_fS_HTML.html#29,29,1918,922,1920,1080,1-12-2024,22-42-21,31,VR_target_stimuli/s49_1x_4.67_341_BC.png,125,1x,4.67,4,3646,125,meters,jsons/MX_seq47_0_VE125_flipped.json,186762,336558,21,Woman
31,166959,final-intermixed-textured,v2,jsons/MX_seq47_0_VE125_flipped.json,http://54.235.29.9/FacialAge/BNav_EC2/DepthDuration/MX_fS_VE_MTurk/MX_fS_HTML.html#29,29,1918,922,1920,1080,1-12-2024,22-42-21,32,VR_target_stimuli/s7_1.3x_1.5_256_BC.png,125,1.3x,1.5,3,2055,124,meters,jsons/MX_seq47_0_VE125_flipped.json,186762,336558,21,Woman
32,166959,final-intermixed-textured,v2,jsons/MX_seq47_0_VE125_flipped.json,http://54.235.29.9/FacialAge/BNav_EC2/DepthDuration/MX_fS_VE_MTurk/MX_fS_HTML.html#29,29,1918,922,1920,1080,1-12-2024,22-42-21,33,VR_target_stimuli/s20_0.75x_4.99_390_BC.png,125,0.75x,4.99,4,2452,124,meters,jsons/MX_seq47_0_VE125_flipped.json,186762,336558,21,Woman
33,166959,final-intermixed-textured,v2,jsons/MX_seq47_0_VE125_flipped.json,http://54.235.29.9/FacialAge/BNav_EC2/DepthDuration/MX_fS_VE_MTurk/MX_fS_HTML.html#29,29,1918,922,1920,1080,1-12-2024,22-42-21,34,catch_stimuli/c3_BC.png,125,,,0,2427,126,meters,jsons/MX_seq47_0_VE125_flipped.json,186762,336558,21,Woman
34,166959,final-intermixed-textured,v2,jsons/MX_seq47_0_VE125_flipped.json,http://54.235.29.9/FacialAge/BNav_EC2/DepthDuration/MX_fS_VE_MTurk/MX_fS_HTML.html#29,29,1918,922,1920,1080,1-12-2024,22-42-21,35,VR_target_stimuli/s31_1.3x_4.96_342_BC.png,125,1.3x,4.96,2,3171,126,meters,jsons/MX_seq47_0_VE125_flipped.json,186762,336558,21,Woman
35,166959,final-intermixed-textured,v2,jsons/MX_seq47_0_VE125_flipped.json,http://54.235.29.9/FacialAge/BNav_EC2/DepthDuration/MX_fS_VE_MTurk/MX_fS_HTML.html#29,29,1918,922,1920,1080,1-12-2024,22-42-21,36,VR_target_stimuli/s33_1x_3.1_366.png,125,1x,3.1,3,2708,124,meters,jsons/MX_seq47_0_VE125_flipped.json,186762,336558,21,Woman
36,166959,final-intermixed-textured,v2,jsons/MX_seq47_0_VE125_flipped.json,http://54.235.29.9/FacialAge/BNav_EC2/DepthDuration/MX_fS_VE_MTurk/MX_fS_HTML.html#29,29,1918,922,1920,1080,1-12-2024,22-42-21,37,VR_target_stimuli/s52_0.75x_3.2_270_BC.png,125,0.75x,3.2,4,2078,137,meters,jsons/MX_seq47_0_VE125_flipped.json,186762,336558,21,Woman
37,166959,final-intermixed-textured,v2,jsons/MX_seq47_0_VE125_flipped.json,http://54.235.29.9/FacialAge/BNav_EC2/DepthDuration/MX_fS_VE_MTurk/MX_fS_HTML.html#29,29,1918,922,1920,1080,1-12-2024,22-42-21,38,VR_target_stimuli/s32_0.75x_1.5_213.png,125,0.75x,1.5,4,1604,126,meters,jsons/MX_seq47_0_VE125_flipped.json,186762,336558,21,Woman
38,166959,final-intermixed-textured,v2,jsons/MX_seq47_0_VE125_flipped.json,http://54.235.29.9/FacialAge/BNav_EC2/DepthDuration/MX_fS_VE_MTurk/MX_fS_HTML.html#29,29,1918,922,1920,1080,1-12-2024,22-42-21,39,VR_target_stimuli/s18_1.3x_2.25_368.png,125,1.3x,2.25,3,2319,123,meters,jsons/MX_seq47_0_VE125_flipped.json,186762,336558,21,Woman
39,166959,final-intermixed-textured,v2,jsons/MX_seq47_0_VE125_flipped.json,http://54.235.29.9/FacialAge/BNav_EC2/DepthDuration/MX_fS_VE_MTurk/MX_fS_HTML.html#29,29,1918,922,1920,1080,1-12-2024,22-42-21,40,VR_target_stimuli/s39_1x_1_207_BC.png,125,1x,1.0,2,1765,124,meters,jsons/MX_seq47_0_VE125_flipped.json,186762,336558,21,Woman
40,166959,final-intermixed-textured,v2,jsons/MX_seq47_0_VE125_flipped.json,http://54.235.29.9/FacialAge/BNav_EC2/DepthDuration/MX_fS_VE_MTurk/MX_fS_HTML.html#29,29,1918,922,1920,1080,1-12-2024,22-42-21,41,VR_target_stimuli/s51_1.3x_3.64_479_BC.png,125,1.3x,3.64,3,1712,123,meters,jsons/MX_seq47_0_VE125_flipped.json,186762,336558,21,Woman
41,166959,final-intermixed-textured,v2,jsons/MX_seq47_0_VE125_flipped.json,http://54.235.29.9/FacialAge/BNav_EC2/DepthDuration/MX_fS_VE_MTurk/MX_fS_HTML.html#29,29,1918,922,1920,1080,1-12-2024,22-42-21,42,VR_target_stimuli/s43_0.75x_2.2_348_BC.png,125,0.75x,2.2,4,2466,124,meters,jsons/MX_seq47_0_VE125_flipped.json,186762,336558,21,Woman
42,166959,final-intermixed-textured,v2,jsons/MX_seq47_0_VE125_flipped.json,http://54.235.29.9/FacialAge/BNav_EC2/DepthDuration/MX_fS_VE_MTurk/MX_fS_HTML.html#29,29,1918,922,1920,1080,1-12-2024,22-42-21,43,VR_target_stimuli/s24_1x_3.3_349.png,125,1x,3.3,5,1812,124,meters,jsons/MX_seq47_0_VE125_flipped.json,186762,336558,21,Woman
43,166959,final-intermixed-textured,v2,jsons/MX_seq47_0_VE125_flipped.json,http://54.235.29.9/FacialAge/BNav_EC2/DepthDuration/MX_fS_VE_MTurk/MX_fS_HTML.html#29,29,1918,922,1920,1080,1-12-2024,22-42-21,44,VR_target_stimuli/s10_0.75x_2.7_321.png,125,0.75x,2.7,6,1978,123,meters,jsons/MX_seq47_0_VE125_flipped.json,186762,336558,21,Woman
44,166959,final-intermixed-textured,v2,jsons/MX_seq47_0_VE125_flipped.json,http://54.235.29.9/FacialAge/BNav_EC2/DepthDuration/MX_fS_VE_MTurk/MX_fS_HTML.html#29,29,1918,922,1920,1080,1-12-2024,22-42-21,45,catch_stimuli/c4_BC.png,125,,,0,2444,122,meters,jsons/MX_seq47_0_VE125_flipped.json,186762,336558,21,Woman
45,166959,final-intermixed-textured,v2,jsons/MX_seq47_0_VE125_flipped.json,http://54.235.29.9/FacialAge/BNav_EC2/DepthDuration/MX_fS_VE_MTurk/MX_fS_HTML.html#29,29,1918,922,1920,1080,1-12-2024,22-42-21,46,VR_target_stimuli/s36_1.3x_4.1_442.png,125,1.3x,4.1,4,2174,125,meters,jsons/MX_seq47_0_VE125_flipped.json,186762,336558,21,Woman
46,166959,final-intermixed-textured,v2,jsons/MX_seq47_0_VE125_flipped.json,http://54.235.29.9/FacialAge/BNav_EC2/DepthDuration/MX_fS_VE_MTurk/MX_fS_HTML.html#29,29,1918,922,1920,1080,1-12-2024,22-42-21,47,VR_target_stimuli/s40_1x_1.2_319_BC.png,125,1x,1.2,3,5729,123,meters,jsons/MX_seq47_0_VE125_flipped.json,186762,336558,21,Woman
47,166959,final-intermixed-textured,v2,jsons/MX_seq47_0_VE125_flipped.json,http://54.235.29.9/FacialAge/BNav_EC2/DepthDuration/MX_fS_VE_MTurk/MX_fS_HTML.html#29,29,1918,922,1920,1080,1-12-2024,22-42-21,48,VR_target_stimuli/s41_1x_2.1_286.png,125,1x,2.1,4,2606,126,meters,jsons/MX_seq47_0_VE125_flipped.json,186762,336558,21,Woman
48,166959,final-intermixed-textured,v2,jsons/MX_seq47_0_VE125_flipped.json,http://54.235.29.9/FacialAge/BNav_EC2/DepthDuration/MX_fS_VE_MTurk/MX_fS_HTML.html#29,29,1918,922,1920,1080,1-12-2024,22-42-21,49,VR_target_stimuli/s45_0.75x_3.5_362.png,125,0.75x,3.5,4,1679,125,meters,jsons/MX_seq47_0_VE125_flipped.json,186762,336558,21,Woman
49,166959,final-intermixed-textured,v2,jsons/MX_seq47_0_VE125_flipped.json,http://54.235.29.9/FacialAge/BNav_EC2/DepthDuration/MX_fS_VE_MTurk/MX_fS_HTML.html#29,29,1918,922,1920,1080,1-12-2024,22-42-21,50,VR_target_stimuli/s23_1.3x_3.65_354_BC.png,125,1.3x,3.65,5,2313,128,meters,jsons/MX_seq47_0_VE125_flipped.json,186762,336558,21,Woman
50,166959,final-intermixed-textured,v2,jsons/MX_seq47_0_VE125_flipped.json,http://54.235.29.9/FacialAge/BNav_EC2/DepthDuration/MX_fS_VE_MTurk/MX_fS_HTML.html#29,29,1918,922,1920,1080,1-12-2024,22-42-21,51,VR_target_stimuli/s26_0.75x_4_430_BC.png,125,0.75x,4.0,4,3080,124,meters,jsons/MX_seq47_0_VE125_flipped.json,186762,336558,21,Woman
51,166959,final-intermixed-textured,v2,jsons/MX_seq47_0_VE125_flipped.json,http://54.235.29.9/FacialAge/BNav_EC2/DepthDuration/MX_fS_VE_MTurk/MX_fS_HTML.html#29,29,1918,922,1920,1080,1-12-2024,22-42-21,52,VR_target_stimuli/s12_1x_3.1_372_BC.png,125,1x,3.1,4,1507,123,meters,jsons/MX_seq47_0_VE125_flipped.json,186762,336558,21,Woman
52,166959,final-intermixed-textured,v2,jsons/MX_seq47_0_VE125_flipped.json,http://54.235.29.9/FacialAge/BNav_EC2/DepthDuration/MX_fS_VE_MTurk/MX_fS_HTML.html#29,29,1918,922,1920,1080,1-12-2024,22-42-21,53,catch_stimuli/c5_BC.png,125,,,0,3249,124,meters,jsons/MX_seq47_0_VE125_flipped.json,186762,336558,21,Woman
53,166959,final-intermixed-textured,v2,jsons/MX_seq47_0_VE125_flipped.json,http://54.235.29.9/FacialAge/BNav_EC2/DepthDuration/MX_fS_VE_MTurk/MX_fS_HTML.html#29,29,1918,922,1920,1080,1-12-2024,22-42-21,54,VR_target_stimuli/s30_1.3x_2.3_337.png,125,1.3x,2.3,3,2403,124,meters,jsons/MX_seq47_0_VE125_flipped.json,186762,336558,21,Woman
54,166959,final-intermixed-textured,v2,jsons/MX_seq47_0_VE125_flipped.json,http://54.235.29.9/FacialAge/BNav_EC2/DepthDuration/MX_fS_VE_MTurk/MX_fS_HTML.html#29,29,1918,922,1920,1080,1-12-2024,22-42-21,55,VR_target_stimuli/s16_1x_1_219_BC.png,125,1x,1.0,2,1723,124,meters,jsons/MX_seq47_0_VE125_flipped.json,186762,336558,21,Woman
55,166959,final-intermixed-textured,v2,jsons/MX_seq47_0_VE125_flipped.json,http://54.235.29.9/FacialAge/BNav_EC2/DepthDuration/MX_fS_VE_MTurk/MX_fS_HTML.html#29,29,1918,922,1920,1080,1-12-2024,22-42-21,56,VR_target_stimuli/s17_0.75x_1.8_285.png,125,0.75x,1.8,3,1996,136,meters,jsons/MX_seq47_0_VE125_flipped.json,186762,336558,21,Woman
56,166959,final-intermixed-textured,v2,jsons/MX_seq47_0_VE125_flipped.json,http://54.235.29.9/FacialAge/BNav_EC2/DepthDuration/MX_fS_VE_MTurk/MX_fS_HTML.html#29,29,1918,922,1920,1080,1-12-2024,22-42-21,57,VR_target_stimuli/s5_1.3x_4_393.png,125,1.3x,4.0,3,1785,125,meters,jsons/MX_seq47_0_VE125_flipped.json,186762,336558,21,Woman
57,166959,final-intermixed-textured,v2,jsons/MX_seq47_0_VE125_flipped.json,http://54.235.29.9/FacialAge/BNav_EC2/DepthDuration/MX_fS_VE_MTurk/MX_fS_HTML.html#29,29,1918,922,1920,1080,1-12-2024,22-42-21,58,VR_target_stimuli/s37_1.3x_3.3_555_BC.png,125,1.3x,3.3,2,2028,124,meters,jsons/MX_seq47_0_VE125_flipped.json,186762,336558,21,Woman
58,166959,final-intermixed-textured,v2,jsons/MX_seq47_0_VE125_flipped.json,http://54.235.29.9/FacialAge/BNav_EC2/DepthDuration/MX_fS_VE_MTurk/MX_fS_HTML.html#29,29,1918,922,1920,1080,1-12-2024,22-42-21,59,VR_target_stimuli/s46_1x_2.42_348.png,125,1x,2.42,5,2481,120,meters,jsons/MX_seq47_0_VE125_flipped.json,186762,336558,21,Woman
59,166959,final-intermixed-textured,v2,jsons/MX_seq47_0_VE125_flipped.json,http://54.235.29.9/FacialAge/BNav_EC2/DepthDuration/MX_fS_VE_MTurk/MX_fS_HTML.html#29,29,1918,922,1920,1080,1-12-2024,22-42-21,60,VR_target_stimuli/s22_0.75x_4.29_348_BC.png,125,0.75x,4.29,5,2477,115,meters,jsons/MX_seq47_0_VE125_flipped.json,186762,336558,21,Woman
