,subjID,experimentName,versionName,sequenceName,url,selected_row,windowWidth,windowHeight,screenWidth,screenHeight,startDate,startTime,trial,stimulus,duration,scale,actual_depth,depth_estimate,trial_RT,log_sceneDuration,unitSelection,seq_filepath,experimentTime,totalTime,age,gender
0,170180,final-intermixed-textured,v2,jsons/MX_seq53_1_VE125_flipped.json,http://54.235.29.9/FacialAge/BNav_EC2/DepthDuration/MX_fS_VE_MTurk/MX_fS_HTML.html#67,67,1440,760,1440,900,1-12-2024,21-36-29,1,VR_target_stimuli/s44_1.3x_4.4_325_BC.png,125,1.3x,4.4,3,4063,125,meters,jsons/MX_seq53_1_VE125_flipped.json,265381,445495,57,マン
1,170180,final-intermixed-textured,v2,jsons/MX_seq53_1_VE125_flipped.json,http://54.235.29.9/FacialAge/BNav_EC2/DepthDuration/MX_fS_VE_MTurk/MX_fS_HTML.html#67,67,1440,760,1440,900,1-12-2024,21-36-29,2,VR_target_stimuli/s3_0.75x_5_381.png,125,0.75x,5.0,3,3679,126,meters,jsons/MX_seq53_1_VE125_flipped.json,265381,445495,57,マン
2,170180,final-intermixed-textured,v2,jsons/MX_seq53_1_VE125_flipped.json,http://54.235.29.9/FacialAge/BNav_EC2/DepthDuration/MX_fS_VE_MTurk/MX_fS_HTML.html#67,67,1440,760,1440,900,1-12-2024,21-36-29,3,VR_target_stimuli/s1_1x_1.7_262.png,125,1x,1.7,2,3228,123,meters,jsons/MX_seq53_1_VE125_flipped.json,265381,445495,57,マン
3,170180,final-intermixed-textured,v2,jsons/MX_seq53_1_VE125_flipped.json,http://54.235.29.9/FacialAge/BNav_EC2/DepthDuration/MX_fS_VE_MTurk/MX_fS_HTML.html#67,67,1440,760,1440,900,1-12-2024,21-36-29,4,VR_target_stimuli/s11_0.75x_5_359_BC.png,125,0.75x,5.0,3,4211,122,meters,jsons/MX_seq53_1_VE125_flipped.json,265381,445495,57,マン
4,170180,final-intermixed-textured,v2,jsons/MX_seq53_1_VE125_flipped.json,http://54.235.29.9/FacialAge/BNav_EC2/DepthDuration/MX_fS_VE_MTurk/MX_fS_HTML.html#67,67,1440,760,1440,900,1-12-2024,21-36-29,5,VR_target_stimuli/s2_1.3x_2.7_397.png,125,1.3x,2.7,2,3829,126,meters,jsons/MX_seq53_1_VE125_flipped.json,265381,445495,57,マン
5,170180,final-intermixed-textured,v2,jsons/MX_seq53_1_VE125_flipped.json,http://54.235.29.9/FacialAge/BNav_EC2/DepthDuration/MX_fS_VE_MTurk/MX_fS_HTML.html#67,67,1440,760,1440,900,1-12-2024,21-36-29,6,VR_target_stimuli/s6_1x_2.1_293_BC.png,125,1x,2.1,2,3181,124,meters,jsons/MX_seq53_1_VE125_flipped.json,265381,445495,57,マン
6,170180,final-intermixed-textured,v2,jsons/MX_seq53_1_VE125_flipped.json,http://54.235.29.9/FacialAge/BNav_EC2/DepthDuration/MX_fS_VE_MTurk/MX_fS_HTML.html#67,67,1440,760,1440,900,1-12-2024,21-36-29,7,catch_stimuli/c0_BC.png,125,,,0,3898,126,meters,jsons/MX_seq53_1_VE125_flipped.json,265381,445495,57,マン
7,170180,final-intermixed-textured,v2,jsons/MX_seq53_1_VE125_flipped.json,http://54.235.29.9/FacialAge/BNav_EC2/DepthDuration/MX_fS_VE_MTurk/MX_fS_HTML.html#67,67,1440,760,1440,900,1-12-2024,21-36-29,8,VR_target_stimuli/s0_1x_2.6_351_BC.png,125,1x,2.6,2,2864,124,meters,jsons/MX_seq53_1_VE125_flipped.json,265381,445495,57,マン
8,170180,final-intermixed-textured,v2,jsons/MX_seq53_1_VE125_flipped.json,http://54.235.29.9/FacialAge/BNav_EC2/DepthDuration/MX_fS_VE_MTurk/MX_fS_HTML.html#67,67,1440,760,1440,900,1-12-2024,21-36-29,9,VR_target_stimuli/s34_0.75x_2.8_269_BC.png,125,0.75x,2.8,3,4865,123,meters,jsons/MX_seq53_1_VE125_flipped.json,265381,445495,57,マン
9,170180,final-intermixed-textured,v2,jsons/MX_seq53_1_VE125_flipped.json,http://54.235.29.9/FacialAge/BNav_EC2/DepthDuration/MX_fS_VE_MTurk/MX_fS_HTML.html#67,67,1440,760,1440,900,1-12-2024,21-36-29,10,VR_target_stimuli/s13_1.3x_2.4_313_BC.png,125,1.3x,2.4,2,3432,126,meters,jsons/MX_seq53_1_VE125_flipped.json,265381,445495,57,マン
10,170180,final-intermixed-textured,v2,jsons/MX_seq53_1_VE125_flipped.json,http://54.235.29.9/FacialAge/BNav_EC2/DepthDuration/MX_fS_VE_MTurk/MX_fS_HTML.html#67,67,1440,760,1440,900,1-12-2024,21-36-29,11,VR_target_stimuli/s14_0.75x_3.83_355.png,125,0.75x,3.83,2,3395,123,meters,jsons/MX_seq53_1_VE125_flipped.json,265381,445495,57,マン
11,170180,final-intermixed-textured,v2,jsons/MX_seq53_1_VE125_flipped.json,http://54.235.29.9/FacialAge/BNav_EC2/DepthDuration/MX_fS_VE_MTurk/MX_fS_HTML.html#67,67,1440,760,1440,900,1-12-2024,21-36-29,12,VR_target_stimuli/s47_1x_3.45_370.png,125,1x,3.45,1,3563,125,meters,jsons/MX_seq53_1_VE125_flipped.json,265381,445495,57,マン
12,170180,final-intermixed-textured,v2,jsons/MX_seq53_1_VE125_flipped.json,http://54.235.29.9/FacialAge/BNav_EC2/DepthDuration/MX_fS_VE_MTurk/MX_fS_HTML.html#67,67,1440,760,1440,900,1-12-2024,21-36-29,13,VR_target_stimuli/s29_1.3x_1.3_253.png,125,1.3x,1.3,2,3294,124,meters,jsons/MX_seq53_1_VE125_flipped.json,265381,445495,57,マン
13,170180,final-intermixed-textured,v2,jsons/MX_seq53_1_VE125_flipped.json,http://54.235.29.9/FacialAge/BNav_EC2/DepthDuration/MX_fS_VE_MTurk/MX_fS_HTML.html#67,67,1440,760,1440,900,1-12-2024,21-36-29,14,VR_target_stimuli/s28_1x_3.2_362_BC.png,125,1x,3.2,2,4129,120,meters,jsons/MX_seq53_1_VE125_flipped.json,265381,445495,57,マン
14,170180,final-intermixed-textured,v2,jsons/MX_seq53_1_VE125_flipped.json,http://54.235.29.9/FacialAge/BNav_EC2/DepthDuration/MX_fS_VE_MTurk/MX_fS_HTML.html#67,67,1440,760,1440,900,1-12-2024,21-36-29,15,VR_target_stimuli/s48_0.75x_2.55_243.png,125,0.75x,2.55,3,3316,125,meters,jsons/MX_seq53_1_VE125_flipped.json,265381,445495,57,マン
15,170180,final-intermixed-textured,v2,jsons/MX_seq53_1_VE125_flipped.json,http://54.235.29.9/FacialAge/BNav_EC2/DepthDuration/MX_fS_VE_MTurk/MX_fS_HTML.html#67,67,1440,760,1440,900,1-12-2024,21-36-29,16,VR_target_stimuli/s19_1.3x_1.21_270_BC.png,125,1.3x,1.21,2,2929,124,meters,jsons/MX_seq53_1_VE125_flipped.json,265381,445495,57,マン
16,170180,final-intermixed-textured,v2,jsons/MX_seq53_1_VE125_flipped.json,http://54.235.29.9/FacialAge/BNav_EC2/DepthDuration/MX_fS_VE_MTurk/MX_fS_HTML.html#67,67,1440,760,1440,900,1-12-2024,21-36-29,17,catch_stimuli/c1_BC.png,125,,,0,3849,124,meters,jsons/MX_seq53_1_VE125_flipped.json,265381,445495,57,マン
17,170180,final-intermixed-textured,v2,jsons/MX_seq53_1_VE125_flipped.json,http://54.235.29.9/FacialAge/BNav_EC2/DepthDuration/MX_fS_VE_MTurk/MX_fS_HTML.html#67,67,1440,760,1440,900,1-12-2024,21-36-29,18,VR_target_stimuli/s21_1.3x_4.22_384.png,125,1.3x,4.22,2,2893,121,meters,jsons/MX_seq53_1_VE125_flipped.json,265381,445495,57,マン
18,170180,final-intermixed-textured,v2,jsons/MX_seq53_1_VE125_flipped.json,http://54.235.29.9/FacialAge/BNav_EC2/DepthDuration/MX_fS_VE_MTurk/MX_fS_HTML.html#67,67,1440,760,1440,900,1-12-2024,21-36-29,19,VR_target_stimuli/s8_1x_3.1_332.png,125,1x,3.1,3,4749,125,meters,jsons/MX_seq53_1_VE125_flipped.json,265381,445495,57,マン
19,170180,final-intermixed-textured,v2,jsons/MX_seq53_1_VE125_flipped.json,http://54.235.29.9/FacialAge/BNav_EC2/DepthDuration/MX_fS_VE_MTurk/MX_fS_HTML.html#67,67,1440,760,1440,900,1-12-2024,21-36-29,20,VR_target_stimuli/s27_0.75x_1.76_243_BC.png,125,0.75x,1.76,2,3013,123,meters,jsons/MX_seq53_1_VE125_flipped.json,265381,445495,57,マン
20,170180,final-intermixed-textured,v2,jsons/MX_seq53_1_VE125_flipped.json,http://54.235.29.9/FacialAge/BNav_EC2/DepthDuration/MX_fS_VE_MTurk/MX_fS_HTML.html#67,67,1440,760,1440,900,1-12-2024,21-36-29,21,VR_target_stimuli/s15_1x_4.2_390_BC.png,125,1x,4.2,3,3045,122,meters,jsons/MX_seq53_1_VE125_flipped.json,265381,445495,57,マン
21,170180,final-intermixed-textured,v2,jsons/MX_seq53_1_VE125_flipped.json,http://54.235.29.9/FacialAge/BNav_EC2/DepthDuration/MX_fS_VE_MTurk/MX_fS_HTML.html#67,67,1440,760,1440,900,1-12-2024,21-36-29,22,VR_target_stimuli/s4_1.3x_1.4_328.png,125,1.3x,1.4,3,4116,129,meters,jsons/MX_seq53_1_VE125_flipped.json,265381,445495,57,マン
22,170180,final-intermixed-textured,v2,jsons/MX_seq53_1_VE125_flipped.json,http://54.235.29.9/FacialAge/BNav_EC2/DepthDuration/MX_fS_VE_MTurk/MX_fS_HTML.html#67,67,1440,760,1440,900,1-12-2024,21-36-29,23,VR_target_stimuli/s35_0.75x_2_323_BC.png,125,0.75x,2.0,3,4914,125,meters,jsons/MX_seq53_1_VE125_flipped.json,265381,445495,57,マン
23,170180,final-intermixed-textured,v2,jsons/MX_seq53_1_VE125_flipped.json,http://54.235.29.9/FacialAge/BNav_EC2/DepthDuration/MX_fS_VE_MTurk/MX_fS_HTML.html#67,67,1440,760,1440,900,1-12-2024,21-36-29,24,VR_target_stimuli/s49_1.3x_4.67_354_BC.png,125,1.3x,4.67,3,2913,126,meters,jsons/MX_seq53_1_VE125_flipped.json,265381,445495,57,マン
24,170180,final-intermixed-textured,v2,jsons/MX_seq53_1_VE125_flipped.json,http://54.235.29.9/FacialAge/BNav_EC2/DepthDuration/MX_fS_VE_MTurk/MX_fS_HTML.html#67,67,1440,760,1440,900,1-12-2024,21-36-29,25,VR_target_stimuli/s7_1x_1.5_255.png,125,1x,1.5,3,3413,125,meters,jsons/MX_seq53_1_VE125_flipped.json,265381,445495,57,マン
25,170180,final-intermixed-textured,v2,jsons/MX_seq53_1_VE125_flipped.json,http://54.235.29.9/FacialAge/BNav_EC2/DepthDuration/MX_fS_VE_MTurk/MX_fS_HTML.html#67,67,1440,760,1440,900,1-12-2024,21-36-29,26,catch_stimuli/c2_BC.png,125,,,0,3700,129,meters,jsons/MX_seq53_1_VE125_flipped.json,265381,445495,57,マン
26,170180,final-intermixed-textured,v2,jsons/MX_seq53_1_VE125_flipped.json,http://54.235.29.9/FacialAge/BNav_EC2/DepthDuration/MX_fS_VE_MTurk/MX_fS_HTML.html#67,67,1440,760,1440,900,1-12-2024,21-36-29,27,VR_target_stimuli/s20_0.75x_4.99_390.png,125,0.75x,4.99,4,6147,124,meters,jsons/MX_seq53_1_VE125_flipped.json,265381,445495,57,マン
27,170180,final-intermixed-textured,v2,jsons/MX_seq53_1_VE125_flipped.json,http://54.235.29.9/FacialAge/BNav_EC2/DepthDuration/MX_fS_VE_MTurk/MX_fS_HTML.html#67,67,1440,760,1440,900,1-12-2024,21-36-29,28,VR_target_stimuli/s31_0.75x_4.96_329_BC.png,125,0.75x,4.96,4,6735,128,meters,jsons/MX_seq53_1_VE125_flipped.json,265381,445495,57,マン
28,170180,final-intermixed-textured,v2,jsons/MX_seq53_1_VE125_flipped.json,http://54.235.29.9/FacialAge/BNav_EC2/DepthDuration/MX_fS_VE_MTurk/MX_fS_HTML.html#67,67,1440,760,1440,900,1-12-2024,21-36-29,29,VR_target_stimuli/s33_1.3x_3.1_378.png,125,1.3x,3.1,3,3178,124,meters,jsons/MX_seq53_1_VE125_flipped.json,265381,445495,57,マン
29,170180,final-intermixed-textured,v2,jsons/MX_seq53_1_VE125_flipped.json,http://54.235.29.9/FacialAge/BNav_EC2/DepthDuration/MX_fS_VE_MTurk/MX_fS_HTML.html#67,67,1440,760,1440,900,1-12-2024,21-36-29,30,VR_target_stimuli/s52_1x_3.2_275_BC.png,125,1x,3.2,3,3730,123,meters,jsons/MX_seq53_1_VE125_flipped.json,265381,445495,57,マン
30,170180,final-intermixed-textured,v2,jsons/MX_seq53_1_VE125_flipped.json,http://54.235.29.9/FacialAge/BNav_EC2/DepthDuration/MX_fS_VE_MTurk/MX_fS_HTML.html#67,67,1440,760,1440,900,1-12-2024,21-36-29,31,VR_target_stimuli/s32_0.75x_1.5_213.png,125,0.75x,1.5,3,3114,124,meters,jsons/MX_seq53_1_VE125_flipped.json,265381,445495,57,マン
31,170180,final-intermixed-textured,v2,jsons/MX_seq53_1_VE125_flipped.json,http://54.235.29.9/FacialAge/BNav_EC2/DepthDuration/MX_fS_VE_MTurk/MX_fS_HTML.html#67,67,1440,760,1440,900,1-12-2024,21-36-29,32,VR_target_stimuli/s18_1x_2.25_353.png,125,1x,2.25,2,3179,123,meters,jsons/MX_seq53_1_VE125_flipped.json,265381,445495,57,マン
32,170180,final-intermixed-textured,v2,jsons/MX_seq53_1_VE125_flipped.json,http://54.235.29.9/FacialAge/BNav_EC2/DepthDuration/MX_fS_VE_MTurk/MX_fS_HTML.html#67,67,1440,760,1440,900,1-12-2024,21-36-29,33,VR_target_stimuli/s39_1.3x_1_208_BC.png,125,1.3x,1.0,2,3230,126,meters,jsons/MX_seq53_1_VE125_flipped.json,265381,445495,57,マン
33,170180,final-intermixed-textured,v2,jsons/MX_seq53_1_VE125_flipped.json,http://54.235.29.9/FacialAge/BNav_EC2/DepthDuration/MX_fS_VE_MTurk/MX_fS_HTML.html#67,67,1440,760,1440,900,1-12-2024,21-36-29,34,catch_stimuli/c3_BC.png,125,,,0,3095,123,meters,jsons/MX_seq53_1_VE125_flipped.json,265381,445495,57,マン
34,170180,final-intermixed-textured,v2,jsons/MX_seq53_1_VE125_flipped.json,http://54.235.29.9/FacialAge/BNav_EC2/DepthDuration/MX_fS_VE_MTurk/MX_fS_HTML.html#67,67,1440,760,1440,900,1-12-2024,21-36-29,35,VR_target_stimuli/s51_1x_3.64_461.png,125,1x,3.64,2,2878,119,meters,jsons/MX_seq53_1_VE125_flipped.json,265381,445495,57,マン
35,170180,final-intermixed-textured,v2,jsons/MX_seq53_1_VE125_flipped.json,http://54.235.29.9/FacialAge/BNav_EC2/DepthDuration/MX_fS_VE_MTurk/MX_fS_HTML.html#67,67,1440,760,1440,900,1-12-2024,21-36-29,36,VR_target_stimuli/s43_0.75x_2.2_348.png,125,0.75x,2.2,3,4496,124,meters,jsons/MX_seq53_1_VE125_flipped.json,265381,445495,57,マン
36,170180,final-intermixed-textured,v2,jsons/MX_seq53_1_VE125_flipped.json,http://54.235.29.9/FacialAge/BNav_EC2/DepthDuration/MX_fS_VE_MTurk/MX_fS_HTML.html#67,67,1440,760,1440,900,1-12-2024,21-36-29,37,VR_target_stimuli/s24_1.3x_3.3_352.png,125,1.3x,3.3,3,3113,123,meters,jsons/MX_seq53_1_VE125_flipped.json,265381,445495,57,マン
37,170180,final-intermixed-textured,v2,jsons/MX_seq53_1_VE125_flipped.json,http://54.235.29.9/FacialAge/BNav_EC2/DepthDuration/MX_fS_VE_MTurk/MX_fS_HTML.html#67,67,1440,760,1440,900,1-12-2024,21-36-29,38,VR_target_stimuli/s10_1.3x_2.7_325_BC.png,125,1.3x,2.7,3,2944,124,meters,jsons/MX_seq53_1_VE125_flipped.json,265381,445495,57,マン
38,170180,final-intermixed-textured,v2,jsons/MX_seq53_1_VE125_flipped.json,http://54.235.29.9/FacialAge/BNav_EC2/DepthDuration/MX_fS_VE_MTurk/MX_fS_HTML.html#67,67,1440,760,1440,900,1-12-2024,21-36-29,39,VR_target_stimuli/s36_1x_4.1_423_BC.png,125,1x,4.1,4,4163,122,meters,jsons/MX_seq53_1_VE125_flipped.json,265381,445495,57,マン
39,170180,final-intermixed-textured,v2,jsons/MX_seq53_1_VE125_flipped.json,http://54.235.29.9/FacialAge/BNav_EC2/DepthDuration/MX_fS_VE_MTurk/MX_fS_HTML.html#67,67,1440,760,1440,900,1-12-2024,21-36-29,40,VR_target_stimuli/s40_0.75x_1.2_308_BC.png,125,0.75x,1.2,2,4364,124,meters,jsons/MX_seq53_1_VE125_flipped.json,265381,445495,57,マン
40,170180,final-intermixed-textured,v2,jsons/MX_seq53_1_VE125_flipped.json,http://54.235.29.9/FacialAge/BNav_EC2/DepthDuration/MX_fS_VE_MTurk/MX_fS_HTML.html#67,67,1440,760,1440,900,1-12-2024,21-36-29,41,VR_target_stimuli/s41_1x_2.1_286.png,125,1x,2.1,3,4031,125,meters,jsons/MX_seq53_1_VE125_flipped.json,265381,445495,57,マン
41,170180,final-intermixed-textured,v2,jsons/MX_seq53_1_VE125_flipped.json,http://54.235.29.9/FacialAge/BNav_EC2/DepthDuration/MX_fS_VE_MTurk/MX_fS_HTML.html#67,67,1440,760,1440,900,1-12-2024,21-36-29,42,VR_target_stimuli/s45_1.3x_3.5_377_BC.png,125,1.3x,3.5,4,6702,123,meters,jsons/MX_seq53_1_VE125_flipped.json,265381,445495,57,マン
42,170180,final-intermixed-textured,v2,jsons/MX_seq53_1_VE125_flipped.json,http://54.235.29.9/FacialAge/BNav_EC2/DepthDuration/MX_fS_VE_MTurk/MX_fS_HTML.html#67,67,1440,760,1440,900,1-12-2024,21-36-29,43,VR_target_stimuli/s23_0.75x_3.65_351.png,125,0.75x,3.65,3,4029,123,meters,jsons/MX_seq53_1_VE125_flipped.json,265381,445495,57,マン
43,170180,final-intermixed-textured,v2,jsons/MX_seq53_1_VE125_flipped.json,http://54.235.29.9/FacialAge/BNav_EC2/DepthDuration/MX_fS_VE_MTurk/MX_fS_HTML.html#67,67,1440,760,1440,900,1-12-2024,21-36-29,44,VR_target_stimuli/s26_1.3x_4_441.png,125,1.3x,4.0,3,3894,122,meters,jsons/MX_seq53_1_VE125_flipped.json,265381,445495,57,マン
44,170180,final-intermixed-textured,v2,jsons/MX_seq53_1_VE125_flipped.json,http://54.235.29.9/FacialAge/BNav_EC2/DepthDuration/MX_fS_VE_MTurk/MX_fS_HTML.html#67,67,1440,760,1440,900,1-12-2024,21-36-29,45,catch_stimuli/c4_BC.png,125,,,0,3279,121,meters,jsons/MX_seq53_1_VE125_flipped.json,265381,445495,57,マン
45,170180,final-intermixed-textured,v2,jsons/MX_seq53_1_VE125_flipped.json,http://54.235.29.9/FacialAge/BNav_EC2/DepthDuration/MX_fS_VE_MTurk/MX_fS_HTML.html#67,67,1440,760,1440,900,1-12-2024,21-36-29,46,VR_target_stimuli/s12_1x_3.1_372_BC.png,125,1x,3.1,3,3346,122,meters,jsons/MX_seq53_1_VE125_flipped.json,265381,445495,57,マン
46,170180,final-intermixed-textured,v2,jsons/MX_seq53_1_VE125_flipped.json,http://54.235.29.9/FacialAge/BNav_EC2/DepthDuration/MX_fS_VE_MTurk/MX_fS_HTML.html#67,67,1440,760,1440,900,1-12-2024,21-36-29,47,VR_target_stimuli/s30_0.75x_2.3_332_BC.png,125,0.75x,2.3,3,3245,123,meters,jsons/MX_seq53_1_VE125_flipped.json,265381,445495,57,マン
47,170180,final-intermixed-textured,v2,jsons/MX_seq53_1_VE125_flipped.json,http://54.235.29.9/FacialAge/BNav_EC2/DepthDuration/MX_fS_VE_MTurk/MX_fS_HTML.html#67,67,1440,760,1440,900,1-12-2024,21-36-29,48,VR_target_stimuli/s16_0.75x_1_217.png,125,0.75x,1.0,2,17084,126,meters,jsons/MX_seq53_1_VE125_flipped.json,265381,445495,57,マン
48,170180,final-intermixed-textured,v2,jsons/MX_seq53_1_VE125_flipped.json,http://54.235.29.9/FacialAge/BNav_EC2/DepthDuration/MX_fS_VE_MTurk/MX_fS_HTML.html#67,67,1440,760,1440,900,1-12-2024,21-36-29,49,VR_target_stimuli/s17_1.3x_1.8_300_BC.png,125,1.3x,1.8,2,3344,124,meters,jsons/MX_seq53_1_VE125_flipped.json,265381,445495,57,マン
49,170180,final-intermixed-textured,v2,jsons/MX_seq53_1_VE125_flipped.json,http://54.235.29.9/FacialAge/BNav_EC2/DepthDuration/MX_fS_VE_MTurk/MX_fS_HTML.html#67,67,1440,760,1440,900,1-12-2024,21-36-29,50,VR_target_stimuli/s5_1x_4_378_BC.png,125,1x,4.0,3,3246,123,meters,jsons/MX_seq53_1_VE125_flipped.json,265381,445495,57,マン
50,170180,final-intermixed-textured,v2,jsons/MX_seq53_1_VE125_flipped.json,http://54.235.29.9/FacialAge/BNav_EC2/DepthDuration/MX_fS_VE_MTurk/MX_fS_HTML.html#67,67,1440,760,1440,900,1-12-2024,21-36-29,51,VR_target_stimuli/s37_1.3x_3.3_555.png,125,1.3x,3.3,2,3683,127,meters,jsons/MX_seq53_1_VE125_flipped.json,265381,445495,57,マン
51,170180,final-intermixed-textured,v2,jsons/MX_seq53_1_VE125_flipped.json,http://54.235.29.9/FacialAge/BNav_EC2/DepthDuration/MX_fS_VE_MTurk/MX_fS_HTML.html#67,67,1440,760,1440,900,1-12-2024,21-36-29,52,VR_target_stimuli/s46_0.75x_2.42_343_BC.png,125,0.75x,2.42,3,4079,121,meters,jsons/MX_seq53_1_VE125_flipped.json,265381,445495,57,マン
52,170180,final-intermixed-textured,v2,jsons/MX_seq53_1_VE125_flipped.json,http://54.235.29.9/FacialAge/BNav_EC2/DepthDuration/MX_fS_VE_MTurk/MX_fS_HTML.html#67,67,1440,760,1440,900,1-12-2024,21-36-29,53,catch_stimuli/c5_BC.png,125,,,0,3698,126,meters,jsons/MX_seq53_1_VE125_flipped.json,265381,445495,57,マン
53,170180,final-intermixed-textured,v2,jsons/MX_seq53_1_VE125_flipped.json,http://54.235.29.9/FacialAge/BNav_EC2/DepthDuration/MX_fS_VE_MTurk/MX_fS_HTML.html#67,67,1440,760,1440,900,1-12-2024,21-36-29,54,VR_target_stimuli/s22_1x_4.29_354.png,125,1x,4.29,3,3146,126,meters,jsons/MX_seq53_1_VE125_flipped.json,265381,445495,57,マン
54,170180,final-intermixed-textured,v2,jsons/MX_seq53_1_VE125_flipped.json,http://54.235.29.9/FacialAge/BNav_EC2/DepthDuration/MX_fS_VE_MTurk/MX_fS_HTML.html#67,67,1440,760,1440,900,1-12-2024,21-36-29,55,VR_target_stimuli/s42_0.75x_3.2_301.png,125,0.75x,3.2,3,3047,126,meters,jsons/MX_seq53_1_VE125_flipped.json,265381,445495,57,マン
55,170180,final-intermixed-textured,v2,jsons/MX_seq53_1_VE125_flipped.json,http://54.235.29.9/FacialAge/BNav_EC2/DepthDuration/MX_fS_VE_MTurk/MX_fS_HTML.html#67,67,1440,760,1440,900,1-12-2024,21-36-29,56,VR_target_stimuli/s25_1.3x_1.4_299.png,125,1.3x,1.4,3,3631,127,meters,jsons/MX_seq53_1_VE125_flipped.json,265381,445495,57,マン
56,170180,final-intermixed-textured,v2,jsons/MX_seq53_1_VE125_flipped.json,http://54.235.29.9/FacialAge/BNav_EC2/DepthDuration/MX_fS_VE_MTurk/MX_fS_HTML.html#67,67,1440,760,1440,900,1-12-2024,21-36-29,57,VR_target_stimuli/s50_1x_4.53_518.png,125,1x,4.53,3,3232,128,meters,jsons/MX_seq53_1_VE125_flipped.json,265381,445495,57,マン
57,170180,final-intermixed-textured,v2,jsons/MX_seq53_1_VE125_flipped.json,http://54.235.29.9/FacialAge/BNav_EC2/DepthDuration/MX_fS_VE_MTurk/MX_fS_HTML.html#67,67,1440,760,1440,900,1-12-2024,21-36-29,58,VR_target_stimuli/s53_1x_1.6_387_BC.png,125,1x,1.6,3,3066,125,meters,jsons/MX_seq53_1_VE125_flipped.json,265381,445495,57,マン
58,170180,final-intermixed-textured,v2,jsons/MX_seq53_1_VE125_flipped.json,http://54.235.29.9/FacialAge/BNav_EC2/DepthDuration/MX_fS_VE_MTurk/MX_fS_HTML.html#67,67,1440,760,1440,900,1-12-2024,21-36-29,59,VR_target_stimuli/s38_0.75x_3.55_346_BC.png,125,0.75x,3.55,3,3166,129,meters,jsons/MX_seq53_1_VE125_flipped.json,265381,445495,57,マン
59,170180,final-intermixed-textured,v2,jsons/MX_seq53_1_VE125_flipped.json,http://54.235.29.9/FacialAge/BNav_EC2/DepthDuration/MX_fS_VE_MTurk/MX_fS_HTML.html#67,67,1440,760,1440,900,1-12-2024,21-36-29,60,VR_target_stimuli/s9_1.3x_1.2_276_BC.png,125,1.3x,1.2,2,3345,123,meters,jsons/MX_seq53_1_VE125_flipped.json,265381,445495,57,マン
