,subjID,experimentName,versionName,sequenceName,url,selected_row,windowWidth,windowHeight,screenWidth,screenHeight,startDate,startTime,trial,stimulus,duration,scale,actual_depth,depth_estimate,trial_RT,log_sceneDuration,unitSelection,seq_filepath,experimentTime,totalTime,age,gender
0,175040,final-intermixed-textured,v2,jsons/MX_seq32_1_VE125.json,http://54.235.29.9/FacialAge/BNav_EC2/DepthDuration/MX_fS_VE_MTurk/MX_fS_HTML.html#123,123,1396,632,1536,864,1-12-2024,22-39-55,1,VR_target_stimuli/s10_1.3x_2.7_325.png,125,1.3x,2.7,0,4453,123,meters,jsons/MX_seq32_1_VE125.json,174187,390209,23,Woman
1,175040,final-intermixed-textured,v2,jsons/MX_seq32_1_VE125.json,http://54.235.29.9/FacialAge/BNav_EC2/DepthDuration/MX_fS_VE_MTurk/MX_fS_HTML.html#123,123,1396,632,1536,864,1-12-2024,22-39-55,2,VR_target_stimuli/s36_0.75x_4.1_407.png,125,0.75x,4.1,8,4815,122,meters,jsons/MX_seq32_1_VE125.json,174187,390209,23,Woman
2,175040,final-intermixed-textured,v2,jsons/MX_seq32_1_VE125.json,http://54.235.29.9/FacialAge/BNav_EC2/DepthDuration/MX_fS_VE_MTurk/MX_fS_HTML.html#123,123,1396,632,1536,864,1-12-2024,22-39-55,3,VR_target_stimuli/s40_1x_1.2_319.png,125,1x,1.2,0,2648,123,meters,jsons/MX_seq32_1_VE125.json,174187,390209,23,Woman
3,175040,final-intermixed-textured,v2,jsons/MX_seq32_1_VE125.json,http://54.235.29.9/FacialAge/BNav_EC2/DepthDuration/MX_fS_VE_MTurk/MX_fS_HTML.html#123,123,1396,632,1536,864,1-12-2024,22-39-55,4,VR_target_stimuli/s41_0.75x_2.1_281_BC.png,125,0.75x,2.1,0,3882,123,meters,jsons/MX_seq32_1_VE125.json,174187,390209,23,Woman
4,175040,final-intermixed-textured,v2,jsons/MX_seq32_1_VE125.json,http://54.235.29.9/FacialAge/BNav_EC2/DepthDuration/MX_fS_VE_MTurk/MX_fS_HTML.html#123,123,1396,632,1536,864,1-12-2024,22-39-55,5,VR_target_stimuli/s45_1.3x_3.5_377_BC.png,125,1.3x,3.5,9,4793,138,meters,jsons/MX_seq32_1_VE125.json,174187,390209,23,Woman
5,175040,final-intermixed-textured,v2,jsons/MX_seq32_1_VE125.json,http://54.235.29.9/FacialAge/BNav_EC2/DepthDuration/MX_fS_VE_MTurk/MX_fS_HTML.html#123,123,1396,632,1536,864,1-12-2024,22-39-55,6,VR_target_stimuli/s23_1x_3.65_353_BC.png,125,1x,3.65,0,3271,124,meters,jsons/MX_seq32_1_VE125.json,174187,390209,23,Woman
6,175040,final-intermixed-textured,v2,jsons/MX_seq32_1_VE125.json,http://54.235.29.9/FacialAge/BNav_EC2/DepthDuration/MX_fS_VE_MTurk/MX_fS_HTML.html#123,123,1396,632,1536,864,1-12-2024,22-39-55,7,catch_stimuli/c0.png,125,,,0,2115,124,meters,jsons/MX_seq32_1_VE125.json,174187,390209,23,Woman
7,175040,final-intermixed-textured,v2,jsons/MX_seq32_1_VE125.json,http://54.235.29.9/FacialAge/BNav_EC2/DepthDuration/MX_fS_VE_MTurk/MX_fS_HTML.html#123,123,1396,632,1536,864,1-12-2024,22-39-55,8,VR_target_stimuli/s26_1x_4_433_BC.png,125,1x,4.0,7,2965,123,meters,jsons/MX_seq32_1_VE125.json,174187,390209,23,Woman
8,175040,final-intermixed-textured,v2,jsons/MX_seq32_1_VE125.json,http://54.235.29.9/FacialAge/BNav_EC2/DepthDuration/MX_fS_VE_MTurk/MX_fS_HTML.html#123,123,1396,632,1536,864,1-12-2024,22-39-55,9,VR_target_stimuli/s12_0.75x_3.1_364.png,125,0.75x,3.1,0,2100,128,meters,jsons/MX_seq32_1_VE125.json,174187,390209,23,Woman
9,175040,final-intermixed-textured,v2,jsons/MX_seq32_1_VE125.json,http://54.235.29.9/FacialAge/BNav_EC2/DepthDuration/MX_fS_VE_MTurk/MX_fS_HTML.html#123,123,1396,632,1536,864,1-12-2024,22-39-55,10,VR_target_stimuli/s30_1.3x_2.3_337_BC.png,125,1.3x,2.3,0,1938,123,meters,jsons/MX_seq32_1_VE125.json,174187,390209,23,Woman
10,175040,final-intermixed-textured,v2,jsons/MX_seq32_1_VE125.json,http://54.235.29.9/FacialAge/BNav_EC2/DepthDuration/MX_fS_VE_MTurk/MX_fS_HTML.html#123,123,1396,632,1536,864,1-12-2024,22-39-55,11,VR_target_stimuli/s16_0.75x_1_217_BC.png,125,0.75x,1.0,0,1936,123,meters,jsons/MX_seq32_1_VE125.json,174187,390209,23,Woman
11,175040,final-intermixed-textured,v2,jsons/MX_seq32_1_VE125.json,http://54.235.29.9/FacialAge/BNav_EC2/DepthDuration/MX_fS_VE_MTurk/MX_fS_HTML.html#123,123,1396,632,1536,864,1-12-2024,22-39-55,12,VR_target_stimuli/s17_1x_1.8_291.png,125,1x,1.8,0,1829,126,meters,jsons/MX_seq32_1_VE125.json,174187,390209,23,Woman
12,175040,final-intermixed-textured,v2,jsons/MX_seq32_1_VE125.json,http://54.235.29.9/FacialAge/BNav_EC2/DepthDuration/MX_fS_VE_MTurk/MX_fS_HTML.html#123,123,1396,632,1536,864,1-12-2024,22-39-55,13,VR_target_stimuli/s5_1.3x_4_393.png,125,1.3x,4.0,0,1870,123,meters,jsons/MX_seq32_1_VE125.json,174187,390209,23,Woman
13,175040,final-intermixed-textured,v2,jsons/MX_seq32_1_VE125.json,http://54.235.29.9/FacialAge/BNav_EC2/DepthDuration/MX_fS_VE_MTurk/MX_fS_HTML.html#123,123,1396,632,1536,864,1-12-2024,22-39-55,14,VR_target_stimuli/s37_1x_3.3_563_BC.png,125,1x,3.3,0,3638,124,meters,jsons/MX_seq32_1_VE125.json,174187,390209,23,Woman
14,175040,final-intermixed-textured,v2,jsons/MX_seq32_1_VE125.json,http://54.235.29.9/FacialAge/BNav_EC2/DepthDuration/MX_fS_VE_MTurk/MX_fS_HTML.html#123,123,1396,632,1536,864,1-12-2024,22-39-55,15,VR_target_stimuli/s46_0.75x_2.42_343_BC.png,125,0.75x,2.42,0,1928,125,meters,jsons/MX_seq32_1_VE125.json,174187,390209,23,Woman
15,175040,final-intermixed-textured,v2,jsons/MX_seq32_1_VE125.json,http://54.235.29.9/FacialAge/BNav_EC2/DepthDuration/MX_fS_VE_MTurk/MX_fS_HTML.html#123,123,1396,632,1536,864,1-12-2024,22-39-55,16,VR_target_stimuli/s22_1.3x_4.29_364.png,125,1.3x,4.29,0,2235,123,meters,jsons/MX_seq32_1_VE125.json,174187,390209,23,Woman
16,175040,final-intermixed-textured,v2,jsons/MX_seq32_1_VE125.json,http://54.235.29.9/FacialAge/BNav_EC2/DepthDuration/MX_fS_VE_MTurk/MX_fS_HTML.html#123,123,1396,632,1536,864,1-12-2024,22-39-55,17,catch_stimuli/c1.png,125,,,0,2183,124,meters,jsons/MX_seq32_1_VE125.json,174187,390209,23,Woman
17,175040,final-intermixed-textured,v2,jsons/MX_seq32_1_VE125.json,http://54.235.29.9/FacialAge/BNav_EC2/DepthDuration/MX_fS_VE_MTurk/MX_fS_HTML.html#123,123,1396,632,1536,864,1-12-2024,22-39-55,18,VR_target_stimuli/s42_1.3x_3.2_305_BC.png,125,1.3x,3.2,0,2062,124,meters,jsons/MX_seq32_1_VE125.json,174187,390209,23,Woman
18,175040,final-intermixed-textured,v2,jsons/MX_seq32_1_VE125.json,http://54.235.29.9/FacialAge/BNav_EC2/DepthDuration/MX_fS_VE_MTurk/MX_fS_HTML.html#123,123,1396,632,1536,864,1-12-2024,22-39-55,19,VR_target_stimuli/s25_1x_1.4_290.png,125,1x,1.4,0,1948,124,meters,jsons/MX_seq32_1_VE125.json,174187,390209,23,Woman
19,175040,final-intermixed-textured,v2,jsons/MX_seq32_1_VE125.json,http://54.235.29.9/FacialAge/BNav_EC2/DepthDuration/MX_fS_VE_MTurk/MX_fS_HTML.html#123,123,1396,632,1536,864,1-12-2024,22-39-55,20,VR_target_stimuli/s50_0.75x_4.53_517.png,125,0.75x,4.53,0,2254,124,meters,jsons/MX_seq32_1_VE125.json,174187,390209,23,Woman
20,175040,final-intermixed-textured,v2,jsons/MX_seq32_1_VE125.json,http://54.235.29.9/FacialAge/BNav_EC2/DepthDuration/MX_fS_VE_MTurk/MX_fS_HTML.html#123,123,1396,632,1536,864,1-12-2024,22-39-55,21,VR_target_stimuli/s53_1x_1.6_387_BC.png,125,1x,1.6,0,2227,124,meters,jsons/MX_seq32_1_VE125.json,174187,390209,23,Woman
21,175040,final-intermixed-textured,v2,jsons/MX_seq32_1_VE125.json,http://54.235.29.9/FacialAge/BNav_EC2/DepthDuration/MX_fS_VE_MTurk/MX_fS_HTML.html#123,123,1396,632,1536,864,1-12-2024,22-39-55,22,VR_target_stimuli/s38_1.3x_3.55_358.png,125,1.3x,3.55,0,2204,123,meters,jsons/MX_seq32_1_VE125.json,174187,390209,23,Woman
22,175040,final-intermixed-textured,v2,jsons/MX_seq32_1_VE125.json,http://54.235.29.9/FacialAge/BNav_EC2/DepthDuration/MX_fS_VE_MTurk/MX_fS_HTML.html#123,123,1396,632,1536,864,1-12-2024,22-39-55,23,VR_target_stimuli/s9_0.75x_1.2_260.png,125,0.75x,1.2,0,1933,123,meters,jsons/MX_seq32_1_VE125.json,174187,390209,23,Woman
23,175040,final-intermixed-textured,v2,jsons/MX_seq32_1_VE125.json,http://54.235.29.9/FacialAge/BNav_EC2/DepthDuration/MX_fS_VE_MTurk/MX_fS_HTML.html#123,123,1396,632,1536,864,1-12-2024,22-39-55,24,VR_target_stimuli/s44_1.3x_4.4_325_BC.png,125,1.3x,4.4,0,1837,123,meters,jsons/MX_seq32_1_VE125.json,174187,390209,23,Woman
24,175040,final-intermixed-textured,v2,jsons/MX_seq32_1_VE125.json,http://54.235.29.9/FacialAge/BNav_EC2/DepthDuration/MX_fS_VE_MTurk/MX_fS_HTML.html#123,123,1396,632,1536,864,1-12-2024,22-39-55,25,VR_target_stimuli/s3_1x_5_385.png,125,1x,5.0,0,1657,123,meters,jsons/MX_seq32_1_VE125.json,174187,390209,23,Woman
25,175040,final-intermixed-textured,v2,jsons/MX_seq32_1_VE125.json,http://54.235.29.9/FacialAge/BNav_EC2/DepthDuration/MX_fS_VE_MTurk/MX_fS_HTML.html#123,123,1396,632,1536,864,1-12-2024,22-39-55,26,catch_stimuli/c2.png,125,,,0,1819,123,meters,jsons/MX_seq32_1_VE125.json,174187,390209,23,Woman
26,175040,final-intermixed-textured,v2,jsons/MX_seq32_1_VE125.json,http://54.235.29.9/FacialAge/BNav_EC2/DepthDuration/MX_fS_VE_MTurk/MX_fS_HTML.html#123,123,1396,632,1536,864,1-12-2024,22-39-55,27,VR_target_stimuli/s1_0.75x_1.7_265_BC.png,125,0.75x,1.7,0,1916,123,meters,jsons/MX_seq32_1_VE125.json,174187,390209,23,Woman
27,175040,final-intermixed-textured,v2,jsons/MX_seq32_1_VE125.json,http://54.235.29.9/FacialAge/BNav_EC2/DepthDuration/MX_fS_VE_MTurk/MX_fS_HTML.html#123,123,1396,632,1536,864,1-12-2024,22-39-55,28,VR_target_stimuli/s11_0.75x_5_359_BC.png,125,0.75x,5.0,0,1935,123,meters,jsons/MX_seq32_1_VE125.json,174187,390209,23,Woman
28,175040,final-intermixed-textured,v2,jsons/MX_seq32_1_VE125.json,http://54.235.29.9/FacialAge/BNav_EC2/DepthDuration/MX_fS_VE_MTurk/MX_fS_HTML.html#123,123,1396,632,1536,864,1-12-2024,22-39-55,29,VR_target_stimuli/s2_1.3x_2.7_397_BC.png,125,1.3x,2.7,0,2005,124,meters,jsons/MX_seq32_1_VE125.json,174187,390209,23,Woman
29,175040,final-intermixed-textured,v2,jsons/MX_seq32_1_VE125.json,http://54.235.29.9/FacialAge/BNav_EC2/DepthDuration/MX_fS_VE_MTurk/MX_fS_HTML.html#123,123,1396,632,1536,864,1-12-2024,22-39-55,30,VR_target_stimuli/s6_1x_2.1_293_BC.png,125,1x,2.1,0,1889,124,meters,jsons/MX_seq32_1_VE125.json,174187,390209,23,Woman
30,175040,final-intermixed-textured,v2,jsons/MX_seq32_1_VE125.json,http://54.235.29.9/FacialAge/BNav_EC2/DepthDuration/MX_fS_VE_MTurk/MX_fS_HTML.html#123,123,1396,632,1536,864,1-12-2024,22-39-55,31,VR_target_stimuli/s0_0.75x_2.6_345.png,125,0.75x,2.6,0,1719,124,meters,jsons/MX_seq32_1_VE125.json,174187,390209,23,Woman
31,175040,final-intermixed-textured,v2,jsons/MX_seq32_1_VE125.json,http://54.235.29.9/FacialAge/BNav_EC2/DepthDuration/MX_fS_VE_MTurk/MX_fS_HTML.html#123,123,1396,632,1536,864,1-12-2024,22-39-55,32,VR_target_stimuli/s34_1x_2.8_283.png,125,1x,2.8,0,1678,126,meters,jsons/MX_seq32_1_VE125.json,174187,390209,23,Woman
32,175040,final-intermixed-textured,v2,jsons/MX_seq32_1_VE125.json,http://54.235.29.9/FacialAge/BNav_EC2/DepthDuration/MX_fS_VE_MTurk/MX_fS_HTML.html#123,123,1396,632,1536,864,1-12-2024,22-39-55,33,VR_target_stimuli/s13_1.3x_2.4_313.png,125,1.3x,2.4,0,1741,124,meters,jsons/MX_seq32_1_VE125.json,174187,390209,23,Woman
33,175040,final-intermixed-textured,v2,jsons/MX_seq32_1_VE125.json,http://54.235.29.9/FacialAge/BNav_EC2/DepthDuration/MX_fS_VE_MTurk/MX_fS_HTML.html#123,123,1396,632,1536,864,1-12-2024,22-39-55,34,catch_stimuli/c3.png,125,,,0,1517,124,meters,jsons/MX_seq32_1_VE125.json,174187,390209,23,Woman
34,175040,final-intermixed-textured,v2,jsons/MX_seq32_1_VE125.json,http://54.235.29.9/FacialAge/BNav_EC2/DepthDuration/MX_fS_VE_MTurk/MX_fS_HTML.html#123,123,1396,632,1536,864,1-12-2024,22-39-55,35,VR_target_stimuli/s14_1x_ 3.83_357_BC.png,125,1x,3.83,0,1625,124,meters,jsons/MX_seq32_1_VE125.json,174187,390209,23,Woman
35,175040,final-intermixed-textured,v2,jsons/MX_seq32_1_VE125.json,http://54.235.29.9/FacialAge/BNav_EC2/DepthDuration/MX_fS_VE_MTurk/MX_fS_HTML.html#123,123,1396,632,1536,864,1-12-2024,22-39-55,36,VR_target_stimuli/s47_0.75x_3.45_366_BC.png,125,0.75x,3.45,0,1614,123,meters,jsons/MX_seq32_1_VE125.json,174187,390209,23,Woman
36,175040,final-intermixed-textured,v2,jsons/MX_seq32_1_VE125.json,http://54.235.29.9/FacialAge/BNav_EC2/DepthDuration/MX_fS_VE_MTurk/MX_fS_HTML.html#123,123,1396,632,1536,864,1-12-2024,22-39-55,37,VR_target_stimuli/s29_1.3x_1.3_253_BC.png,125,1.3x,1.3,0,2436,122,meters,jsons/MX_seq32_1_VE125.json,174187,390209,23,Woman
37,175040,final-intermixed-textured,v2,jsons/MX_seq32_1_VE125.json,http://54.235.29.9/FacialAge/BNav_EC2/DepthDuration/MX_fS_VE_MTurk/MX_fS_HTML.html#123,123,1396,632,1536,864,1-12-2024,22-39-55,38,VR_target_stimuli/s28_1.3x_3.2_365.png,125,1.3x,3.2,0,1909,125,meters,jsons/MX_seq32_1_VE125.json,174187,390209,23,Woman
38,175040,final-intermixed-textured,v2,jsons/MX_seq32_1_VE125.json,http://54.235.29.9/FacialAge/BNav_EC2/DepthDuration/MX_fS_VE_MTurk/MX_fS_HTML.html#123,123,1396,632,1536,864,1-12-2024,22-39-55,39,VR_target_stimuli/s48_1x_2.55_256.png,125,1x,2.55,0,1847,124,meters,jsons/MX_seq32_1_VE125.json,174187,390209,23,Woman
39,175040,final-intermixed-textured,v2,jsons/MX_seq32_1_VE125.json,http://54.235.29.9/FacialAge/BNav_EC2/DepthDuration/MX_fS_VE_MTurk/MX_fS_HTML.html#123,123,1396,632,1536,864,1-12-2024,22-39-55,40,VR_target_stimuli/s19_0.75x_1.21_257.png,125,0.75x,1.21,0,2005,124,meters,jsons/MX_seq32_1_VE125.json,174187,390209,23,Woman
40,175040,final-intermixed-textured,v2,jsons/MX_seq32_1_VE125.json,http://54.235.29.9/FacialAge/BNav_EC2/DepthDuration/MX_fS_VE_MTurk/MX_fS_HTML.html#123,123,1396,632,1536,864,1-12-2024,22-39-55,41,VR_target_stimuli/s21_1x_4.22_379_BC.png,125,1x,4.22,0,1854,122,meters,jsons/MX_seq32_1_VE125.json,174187,390209,23,Woman
41,175040,final-intermixed-textured,v2,jsons/MX_seq32_1_VE125.json,http://54.235.29.9/FacialAge/BNav_EC2/DepthDuration/MX_fS_VE_MTurk/MX_fS_HTML.html#123,123,1396,632,1536,864,1-12-2024,22-39-55,42,VR_target_stimuli/s8_1.3x_3.1_345_BC.png,125,1.3x,3.1,0,1898,126,meters,jsons/MX_seq32_1_VE125.json,174187,390209,23,Woman
42,175040,final-intermixed-textured,v2,jsons/MX_seq32_1_VE125.json,http://54.235.29.9/FacialAge/BNav_EC2/DepthDuration/MX_fS_VE_MTurk/MX_fS_HTML.html#123,123,1396,632,1536,864,1-12-2024,22-39-55,43,VR_target_stimuli/s27_0.75x_1.76_243.png,125,0.75x,1.76,0,2031,123,meters,jsons/MX_seq32_1_VE125.json,174187,390209,23,Woman
43,175040,final-intermixed-textured,v2,jsons/MX_seq32_1_VE125.json,http://54.235.29.9/FacialAge/BNav_EC2/DepthDuration/MX_fS_VE_MTurk/MX_fS_HTML.html#123,123,1396,632,1536,864,1-12-2024,22-39-55,44,VR_target_stimuli/s15_1.3x_4.2_389.png,125,1.3x,4.2,0,1878,124,meters,jsons/MX_seq32_1_VE125.json,174187,390209,23,Woman
44,175040,final-intermixed-textured,v2,jsons/MX_seq32_1_VE125.json,http://54.235.29.9/FacialAge/BNav_EC2/DepthDuration/MX_fS_VE_MTurk/MX_fS_HTML.html#123,123,1396,632,1536,864,1-12-2024,22-39-55,45,catch_stimuli/c4.png,125,,,0,1747,124,meters,jsons/MX_seq32_1_VE125.json,174187,390209,23,Woman
45,175040,final-intermixed-textured,v2,jsons/MX_seq32_1_VE125.json,http://54.235.29.9/FacialAge/BNav_EC2/DepthDuration/MX_fS_VE_MTurk/MX_fS_HTML.html#123,123,1396,632,1536,864,1-12-2024,22-39-55,46,VR_target_stimuli/s4_1x_1.4_313.png,125,1x,1.4,0,1725,121,meters,jsons/MX_seq32_1_VE125.json,174187,390209,23,Woman
46,175040,final-intermixed-textured,v2,jsons/MX_seq32_1_VE125.json,http://54.235.29.9/FacialAge/BNav_EC2/DepthDuration/MX_fS_VE_MTurk/MX_fS_HTML.html#123,123,1396,632,1536,864,1-12-2024,22-39-55,47,VR_target_stimuli/s35_0.75x_2_323_BC.png,125,0.75x,2.0,0,1839,122,meters,jsons/MX_seq32_1_VE125.json,174187,390209,23,Woman
47,175040,final-intermixed-textured,v2,jsons/MX_seq32_1_VE125.json,http://54.235.29.9/FacialAge/BNav_EC2/DepthDuration/MX_fS_VE_MTurk/MX_fS_HTML.html#123,123,1396,632,1536,864,1-12-2024,22-39-55,48,VR_target_stimuli/s49_0.75x_4.67_328.png,125,0.75x,4.67,0,1716,136,meters,jsons/MX_seq32_1_VE125.json,174187,390209,23,Woman
48,175040,final-intermixed-textured,v2,jsons/MX_seq32_1_VE125.json,http://54.235.29.9/FacialAge/BNav_EC2/DepthDuration/MX_fS_VE_MTurk/MX_fS_HTML.html#123,123,1396,632,1536,864,1-12-2024,22-39-55,49,VR_target_stimuli/s7_1.3x_1.5_256.png,125,1.3x,1.5,0,1829,124,meters,jsons/MX_seq32_1_VE125.json,174187,390209,23,Woman
49,175040,final-intermixed-textured,v2,jsons/MX_seq32_1_VE125.json,http://54.235.29.9/FacialAge/BNav_EC2/DepthDuration/MX_fS_VE_MTurk/MX_fS_HTML.html#123,123,1396,632,1536,864,1-12-2024,22-39-55,50,VR_target_stimuli/s20_1x_4.99_398_BC.png,125,1x,4.99,0,1824,121,meters,jsons/MX_seq32_1_VE125.json,174187,390209,23,Woman
50,175040,final-intermixed-textured,v2,jsons/MX_seq32_1_VE125.json,http://54.235.29.9/FacialAge/BNav_EC2/DepthDuration/MX_fS_VE_MTurk/MX_fS_HTML.html#123,123,1396,632,1536,864,1-12-2024,22-39-55,51,VR_target_stimuli/s31_1.3x_4.96_342_BC.png,125,1.3x,4.96,0,1721,122,meters,jsons/MX_seq32_1_VE125.json,174187,390209,23,Woman
51,175040,final-intermixed-textured,v2,jsons/MX_seq32_1_VE125.json,http://54.235.29.9/FacialAge/BNav_EC2/DepthDuration/MX_fS_VE_MTurk/MX_fS_HTML.html#123,123,1396,632,1536,864,1-12-2024,22-39-55,52,VR_target_stimuli/s33_0.75x_3.1_361_BC.png,125,0.75x,3.1,0,1771,122,meters,jsons/MX_seq32_1_VE125.json,174187,390209,23,Woman
52,175040,final-intermixed-textured,v2,jsons/MX_seq32_1_VE125.json,http://54.235.29.9/FacialAge/BNav_EC2/DepthDuration/MX_fS_VE_MTurk/MX_fS_HTML.html#123,123,1396,632,1536,864,1-12-2024,22-39-55,53,catch_stimuli/c5.png,125,,,0,1981,124,meters,jsons/MX_seq32_1_VE125.json,174187,390209,23,Woman
53,175040,final-intermixed-textured,v2,jsons/MX_seq32_1_VE125.json,http://54.235.29.9/FacialAge/BNav_EC2/DepthDuration/MX_fS_VE_MTurk/MX_fS_HTML.html#123,123,1396,632,1536,864,1-12-2024,22-39-55,54,VR_target_stimuli/s52_1x_3.2_275.png,125,1x,3.2,0,1761,125,meters,jsons/MX_seq32_1_VE125.json,174187,390209,23,Woman
54,175040,final-intermixed-textured,v2,jsons/MX_seq32_1_VE125.json,http://54.235.29.9/FacialAge/BNav_EC2/DepthDuration/MX_fS_VE_MTurk/MX_fS_HTML.html#123,123,1396,632,1536,864,1-12-2024,22-39-55,55,VR_target_stimuli/s32_0.75x_1.5_213.png,125,0.75x,1.5,0,1916,122,meters,jsons/MX_seq32_1_VE125.json,174187,390209,23,Woman
55,175040,final-intermixed-textured,v2,jsons/MX_seq32_1_VE125.json,http://54.235.29.9/FacialAge/BNav_EC2/DepthDuration/MX_fS_VE_MTurk/MX_fS_HTML.html#123,123,1396,632,1536,864,1-12-2024,22-39-55,56,VR_target_stimuli/s18_1.3x_2.25_368.png,125,1.3x,2.25,0,1765,123,meters,jsons/MX_seq32_1_VE125.json,174187,390209,23,Woman
56,175040,final-intermixed-textured,v2,jsons/MX_seq32_1_VE125.json,http://54.235.29.9/FacialAge/BNav_EC2/DepthDuration/MX_fS_VE_MTurk/MX_fS_HTML.html#123,123,1396,632,1536,864,1-12-2024,22-39-55,57,VR_target_stimuli/s39_1x_1_207.png,125,1x,1.0,0,1756,122,meters,jsons/MX_seq32_1_VE125.json,174187,390209,23,Woman
57,175040,final-intermixed-textured,v2,jsons/MX_seq32_1_VE125.json,http://54.235.29.9/FacialAge/BNav_EC2/DepthDuration/MX_fS_VE_MTurk/MX_fS_HTML.html#123,123,1396,632,1536,864,1-12-2024,22-39-55,58,VR_target_stimuli/s51_1x_3.64_461_BC.png,125,1x,3.64,0,1852,120,meters,jsons/MX_seq32_1_VE125.json,174187,390209,23,Woman
58,175040,final-intermixed-textured,v2,jsons/MX_seq32_1_VE125.json,http://54.235.29.9/FacialAge/BNav_EC2/DepthDuration/MX_fS_VE_MTurk/MX_fS_HTML.html#123,123,1396,632,1536,864,1-12-2024,22-39-55,59,VR_target_stimuli/s43_0.75x_2.2_348_BC.png,125,0.75x,2.2,0,16148,122,meters,jsons/MX_seq32_1_VE125.json,174187,390209,23,Woman
59,175040,final-intermixed-textured,v2,jsons/MX_seq32_1_VE125.json,http://54.235.29.9/FacialAge/BNav_EC2/DepthDuration/MX_fS_VE_MTurk/MX_fS_HTML.html#123,123,1396,632,1536,864,1-12-2024,22-39-55,60,VR_target_stimuli/s24_1.3x_3.3_352_BC.png,125,1.3x,3.3,0,2290,127,meters,jsons/MX_seq32_1_VE125.json,174187,390209,23,Woman
