,subjID,experimentName,versionName,sequenceName,url,selected_row,windowWidth,windowHeight,screenWidth,screenHeight,startDate,startTime,trial,stimulus,duration,scale,actual_depth,depth_estimate,trial_RT,log_sceneDuration,unitSelection,seq_filepath,experimentTime,totalTime,age,gender
0,184538,final-intermixed-textured,v2,jsons/MX_seq47_1_VE125.json,http://54.235.29.9/FacialAge/BNav_EC2/DepthDuration/MX_fS_VE_MTurk/MX_fS_HTML.html#248,248,1920,1080,1920,1080,1-13-2024,10-57-26,1,VR_target_stimuli/s42_1.3x_3.2_305_BC.png,125,1.3x,3.2,3.0,3027,119,meters,jsons/MX_seq47_1_VE125.json,183120,347074,37,Woman
1,184538,final-intermixed-textured,v2,jsons/MX_seq47_1_VE125.json,http://54.235.29.9/FacialAge/BNav_EC2/DepthDuration/MX_fS_VE_MTurk/MX_fS_HTML.html#248,248,1920,1080,1920,1080,1-13-2024,10-57-26,2,VR_target_stimuli/s25_0.75x_1.4_281_BC.png,125,0.75x,1.4,2.5,4770,119,meters,jsons/MX_seq47_1_VE125.json,183120,347074,37,Woman
2,184538,final-intermixed-textured,v2,jsons/MX_seq47_1_VE125.json,http://54.235.29.9/FacialAge/BNav_EC2/DepthDuration/MX_fS_VE_MTurk/MX_fS_HTML.html#248,248,1920,1080,1920,1080,1-13-2024,10-57-26,3,VR_target_stimuli/s50_1x_4.53_518_BC.png,125,1x,4.53,3.0,3362,119,meters,jsons/MX_seq47_1_VE125.json,183120,347074,37,Woman
3,184538,final-intermixed-textured,v2,jsons/MX_seq47_1_VE125.json,http://54.235.29.9/FacialAge/BNav_EC2/DepthDuration/MX_fS_VE_MTurk/MX_fS_HTML.html#248,248,1920,1080,1920,1080,1-13-2024,10-57-26,4,VR_target_stimuli/s53_0.75x_1.6_403.png,125,0.75x,1.6,1.5,4905,120,meters,jsons/MX_seq47_1_VE125.json,183120,347074,37,Woman
4,184538,final-intermixed-textured,v2,jsons/MX_seq47_1_VE125.json,http://54.235.29.9/FacialAge/BNav_EC2/DepthDuration/MX_fS_VE_MTurk/MX_fS_HTML.html#248,248,1920,1080,1920,1080,1-13-2024,10-57-26,5,VR_target_stimuli/s38_1.3x_3.55_358.png,125,1.3x,3.55,4.0,3581,130,meters,jsons/MX_seq47_1_VE125.json,183120,347074,37,Woman
5,184538,final-intermixed-textured,v2,jsons/MX_seq47_1_VE125.json,http://54.235.29.9/FacialAge/BNav_EC2/DepthDuration/MX_fS_VE_MTurk/MX_fS_HTML.html#248,248,1920,1080,1920,1080,1-13-2024,10-57-26,6,VR_target_stimuli/s9_1x_1.2_263.png,125,1x,1.2,1.5,3216,121,meters,jsons/MX_seq47_1_VE125.json,183120,347074,37,Woman
6,184538,final-intermixed-textured,v2,jsons/MX_seq47_1_VE125.json,http://54.235.29.9/FacialAge/BNav_EC2/DepthDuration/MX_fS_VE_MTurk/MX_fS_HTML.html#248,248,1920,1080,1920,1080,1-13-2024,10-57-26,7,catch_stimuli/c0.png,125,,,0.0,2162,116,meters,jsons/MX_seq47_1_VE125.json,183120,347074,37,Woman
7,184538,final-intermixed-textured,v2,jsons/MX_seq47_1_VE125.json,http://54.235.29.9/FacialAge/BNav_EC2/DepthDuration/MX_fS_VE_MTurk/MX_fS_HTML.html#248,248,1920,1080,1920,1080,1-13-2024,10-57-26,8,VR_target_stimuli/s44_1x_4.4_317.png,125,1x,4.4,3.5,3237,115,meters,jsons/MX_seq47_1_VE125.json,183120,347074,37,Woman
8,184538,final-intermixed-textured,v2,jsons/MX_seq47_1_VE125.json,http://54.235.29.9/FacialAge/BNav_EC2/DepthDuration/MX_fS_VE_MTurk/MX_fS_HTML.html#248,248,1920,1080,1920,1080,1-13-2024,10-57-26,9,VR_target_stimuli/s3_0.75x_5_381_BC.png,125,0.75x,5.0,4.0,2501,140,meters,jsons/MX_seq47_1_VE125.json,183120,347074,37,Woman
9,184538,final-intermixed-textured,v2,jsons/MX_seq47_1_VE125.json,http://54.235.29.9/FacialAge/BNav_EC2/DepthDuration/MX_fS_VE_MTurk/MX_fS_HTML.html#248,248,1920,1080,1920,1080,1-13-2024,10-57-26,10,VR_target_stimuli/s1_1.3x_1.7_261_BC.png,125,1.3x,1.7,2.0,2777,120,meters,jsons/MX_seq47_1_VE125.json,183120,347074,37,Woman
10,184538,final-intermixed-textured,v2,jsons/MX_seq47_1_VE125.json,http://54.235.29.9/FacialAge/BNav_EC2/DepthDuration/MX_fS_VE_MTurk/MX_fS_HTML.html#248,248,1920,1080,1920,1080,1-13-2024,10-57-26,11,VR_target_stimuli/s11_0.75x_5_359.png,125,0.75x,5.0,3.0,2438,127,meters,jsons/MX_seq47_1_VE125.json,183120,347074,37,Woman
11,184538,final-intermixed-textured,v2,jsons/MX_seq47_1_VE125.json,http://54.235.29.9/FacialAge/BNav_EC2/DepthDuration/MX_fS_VE_MTurk/MX_fS_HTML.html#248,248,1920,1080,1920,1080,1-13-2024,10-57-26,12,VR_target_stimuli/s2_1x_2.7_390_BC.png,125,1x,2.7,2.0,2738,119,meters,jsons/MX_seq47_1_VE125.json,183120,347074,37,Woman
12,184538,final-intermixed-textured,v2,jsons/MX_seq47_1_VE125.json,http://54.235.29.9/FacialAge/BNav_EC2/DepthDuration/MX_fS_VE_MTurk/MX_fS_HTML.html#248,248,1920,1080,1920,1080,1-13-2024,10-57-26,13,VR_target_stimuli/s6_1.3x_2.1_298.png,125,1.3x,2.1,3.0,2217,116,meters,jsons/MX_seq47_1_VE125.json,183120,347074,37,Woman
13,184538,final-intermixed-textured,v2,jsons/MX_seq47_1_VE125.json,http://54.235.29.9/FacialAge/BNav_EC2/DepthDuration/MX_fS_VE_MTurk/MX_fS_HTML.html#248,248,1920,1080,1920,1080,1-13-2024,10-57-26,14,VR_target_stimuli/s0_1x_2.6_351_BC.png,125,1x,2.6,2.0,3119,123,meters,jsons/MX_seq47_1_VE125.json,183120,347074,37,Woman
14,184538,final-intermixed-textured,v2,jsons/MX_seq47_1_VE125.json,http://54.235.29.9/FacialAge/BNav_EC2/DepthDuration/MX_fS_VE_MTurk/MX_fS_HTML.html#248,248,1920,1080,1920,1080,1-13-2024,10-57-26,15,VR_target_stimuli/s34_0.75x_2.8_269_BC.png,125,0.75x,2.8,2.5,2637,130,meters,jsons/MX_seq47_1_VE125.json,183120,347074,37,Woman
15,184538,final-intermixed-textured,v2,jsons/MX_seq47_1_VE125.json,http://54.235.29.9/FacialAge/BNav_EC2/DepthDuration/MX_fS_VE_MTurk/MX_fS_HTML.html#248,248,1920,1080,1920,1080,1-13-2024,10-57-26,16,VR_target_stimuli/s13_1.3x_2.4_313_BC.png,125,1.3x,2.4,3.0,2216,119,meters,jsons/MX_seq47_1_VE125.json,183120,347074,37,Woman
16,184538,final-intermixed-textured,v2,jsons/MX_seq47_1_VE125.json,http://54.235.29.9/FacialAge/BNav_EC2/DepthDuration/MX_fS_VE_MTurk/MX_fS_HTML.html#248,248,1920,1080,1920,1080,1-13-2024,10-57-26,17,catch_stimuli/c1.png,125,,,0.0,2962,130,meters,jsons/MX_seq47_1_VE125.json,183120,347074,37,Woman
17,184538,final-intermixed-textured,v2,jsons/MX_seq47_1_VE125.json,http://54.235.29.9/FacialAge/BNav_EC2/DepthDuration/MX_fS_VE_MTurk/MX_fS_HTML.html#248,248,1920,1080,1920,1080,1-13-2024,10-57-26,18,VR_target_stimuli/s14_1.3x_3.83_359.png,125,1.3x,3.83,1.5,5145,125,meters,jsons/MX_seq47_1_VE125.json,183120,347074,37,Woman
18,184538,final-intermixed-textured,v2,jsons/MX_seq47_1_VE125.json,http://54.235.29.9/FacialAge/BNav_EC2/DepthDuration/MX_fS_VE_MTurk/MX_fS_HTML.html#248,248,1920,1080,1920,1080,1-13-2024,10-57-26,19,VR_target_stimuli/s47_1x_3.45_370.png,125,1x,3.45,2.0,2487,133,meters,jsons/MX_seq47_1_VE125.json,183120,347074,37,Woman
19,184538,final-intermixed-textured,v2,jsons/MX_seq47_1_VE125.json,http://54.235.29.9/FacialAge/BNav_EC2/DepthDuration/MX_fS_VE_MTurk/MX_fS_HTML.html#248,248,1920,1080,1920,1080,1-13-2024,10-57-26,20,VR_target_stimuli/s29_0.75x_1.3_246.png,125,0.75x,1.3,1.5,3142,118,meters,jsons/MX_seq47_1_VE125.json,183120,347074,37,Woman
20,184538,final-intermixed-textured,v2,jsons/MX_seq47_1_VE125.json,http://54.235.29.9/FacialAge/BNav_EC2/DepthDuration/MX_fS_VE_MTurk/MX_fS_HTML.html#248,248,1920,1080,1920,1080,1-13-2024,10-57-26,21,VR_target_stimuli/s28_1x_3.2_362_BC.png,125,1x,3.2,2.0,2675,113,meters,jsons/MX_seq47_1_VE125.json,183120,347074,37,Woman
21,184538,final-intermixed-textured,v2,jsons/MX_seq47_1_VE125.json,http://54.235.29.9/FacialAge/BNav_EC2/DepthDuration/MX_fS_VE_MTurk/MX_fS_HTML.html#248,248,1920,1080,1920,1080,1-13-2024,10-57-26,22,VR_target_stimuli/s48_1.3x_2.55_255.png,125,1.3x,2.55,3.0,2261,140,meters,jsons/MX_seq47_1_VE125.json,183120,347074,37,Woman
22,184538,final-intermixed-textured,v2,jsons/MX_seq47_1_VE125.json,http://54.235.29.9/FacialAge/BNav_EC2/DepthDuration/MX_fS_VE_MTurk/MX_fS_HTML.html#248,248,1920,1080,1920,1080,1-13-2024,10-57-26,23,VR_target_stimuli/s19_0.75x_1.21_257_BC.png,125,0.75x,1.21,1.0,2751,120,meters,jsons/MX_seq47_1_VE125.json,183120,347074,37,Woman
23,184538,final-intermixed-textured,v2,jsons/MX_seq47_1_VE125.json,http://54.235.29.9/FacialAge/BNav_EC2/DepthDuration/MX_fS_VE_MTurk/MX_fS_HTML.html#248,248,1920,1080,1920,1080,1-13-2024,10-57-26,24,VR_target_stimuli/s21_1.3x_4.22_384_BC.png,125,1.3x,4.22,2.0,1609,120,meters,jsons/MX_seq47_1_VE125.json,183120,347074,37,Woman
24,184538,final-intermixed-textured,v2,jsons/MX_seq47_1_VE125.json,http://54.235.29.9/FacialAge/BNav_EC2/DepthDuration/MX_fS_VE_MTurk/MX_fS_HTML.html#248,248,1920,1080,1920,1080,1-13-2024,10-57-26,25,VR_target_stimuli/s8_1x_3.1_332.png,125,1x,3.1,2.5,2403,140,meters,jsons/MX_seq47_1_VE125.json,183120,347074,37,Woman
25,184538,final-intermixed-textured,v2,jsons/MX_seq47_1_VE125.json,http://54.235.29.9/FacialAge/BNav_EC2/DepthDuration/MX_fS_VE_MTurk/MX_fS_HTML.html#248,248,1920,1080,1920,1080,1-13-2024,10-57-26,26,catch_stimuli/c2.png,125,,,0.0,1650,121,meters,jsons/MX_seq47_1_VE125.json,183120,347074,37,Woman
26,184538,final-intermixed-textured,v2,jsons/MX_seq47_1_VE125.json,http://54.235.29.9/FacialAge/BNav_EC2/DepthDuration/MX_fS_VE_MTurk/MX_fS_HTML.html#248,248,1920,1080,1920,1080,1-13-2024,10-57-26,27,VR_target_stimuli/s27_0.75x_1.76_243.png,125,0.75x,1.76,1.5,2984,133,meters,jsons/MX_seq47_1_VE125.json,183120,347074,37,Woman
27,184538,final-intermixed-textured,v2,jsons/MX_seq47_1_VE125.json,http://54.235.29.9/FacialAge/BNav_EC2/DepthDuration/MX_fS_VE_MTurk/MX_fS_HTML.html#248,248,1920,1080,1920,1080,1-13-2024,10-57-26,28,VR_target_stimuli/s15_0.75x_4.2_388.png,125,0.75x,4.2,2.0,2480,120,meters,jsons/MX_seq47_1_VE125.json,183120,347074,37,Woman
28,184538,final-intermixed-textured,v2,jsons/MX_seq47_1_VE125.json,http://54.235.29.9/FacialAge/BNav_EC2/DepthDuration/MX_fS_VE_MTurk/MX_fS_HTML.html#248,248,1920,1080,1920,1080,1-13-2024,10-57-26,29,VR_target_stimuli/s4_1.3x_1.4_328.png,125,1.3x,1.4,1.0,1682,117,meters,jsons/MX_seq47_1_VE125.json,183120,347074,37,Woman
29,184538,final-intermixed-textured,v2,jsons/MX_seq47_1_VE125.json,http://54.235.29.9/FacialAge/BNav_EC2/DepthDuration/MX_fS_VE_MTurk/MX_fS_HTML.html#248,248,1920,1080,1920,1080,1-13-2024,10-57-26,30,VR_target_stimuli/s35_1x_2_331_BC.png,125,1x,2.0,1.0,1614,119,meters,jsons/MX_seq47_1_VE125.json,183120,347074,37,Woman
30,184538,final-intermixed-textured,v2,jsons/MX_seq47_1_VE125.json,http://54.235.29.9/FacialAge/BNav_EC2/DepthDuration/MX_fS_VE_MTurk/MX_fS_HTML.html#248,248,1920,1080,1920,1080,1-13-2024,10-57-26,31,VR_target_stimuli/s49_0.75x_4.67_328_BC.png,125,0.75x,4.67,3.0,2324,129,meters,jsons/MX_seq47_1_VE125.json,183120,347074,37,Woman
31,184538,final-intermixed-textured,v2,jsons/MX_seq47_1_VE125.json,http://54.235.29.9/FacialAge/BNav_EC2/DepthDuration/MX_fS_VE_MTurk/MX_fS_HTML.html#248,248,1920,1080,1920,1080,1-13-2024,10-57-26,32,VR_target_stimuli/s7_1x_1.5_255.png,125,1x,1.5,2.0,1682,111,meters,jsons/MX_seq47_1_VE125.json,183120,347074,37,Woman
32,184538,final-intermixed-textured,v2,jsons/MX_seq47_1_VE125.json,http://54.235.29.9/FacialAge/BNav_EC2/DepthDuration/MX_fS_VE_MTurk/MX_fS_HTML.html#248,248,1920,1080,1920,1080,1-13-2024,10-57-26,33,VR_target_stimuli/s20_1.3x_4.99_412_BC.png,125,1.3x,4.99,4.0,2301,130,meters,jsons/MX_seq47_1_VE125.json,183120,347074,37,Woman
33,184538,final-intermixed-textured,v2,jsons/MX_seq47_1_VE125.json,http://54.235.29.9/FacialAge/BNav_EC2/DepthDuration/MX_fS_VE_MTurk/MX_fS_HTML.html#248,248,1920,1080,1920,1080,1-13-2024,10-57-26,34,catch_stimuli/c3.png,125,,,0.0,1638,119,meters,jsons/MX_seq47_1_VE125.json,183120,347074,37,Woman
34,184538,final-intermixed-textured,v2,jsons/MX_seq47_1_VE125.json,http://54.235.29.9/FacialAge/BNav_EC2/DepthDuration/MX_fS_VE_MTurk/MX_fS_HTML.html#248,248,1920,1080,1920,1080,1-13-2024,10-57-26,35,VR_target_stimuli/s31_1x_4.96_333_BC.png,125,1x,4.96,3.0,2254,127,meters,jsons/MX_seq47_1_VE125.json,183120,347074,37,Woman
35,184538,final-intermixed-textured,v2,jsons/MX_seq47_1_VE125.json,http://54.235.29.9/FacialAge/BNav_EC2/DepthDuration/MX_fS_VE_MTurk/MX_fS_HTML.html#248,248,1920,1080,1920,1080,1-13-2024,10-57-26,36,VR_target_stimuli/s33_0.75x_3.1_361_BC.png,125,0.75x,3.1,3.0,2176,128,meters,jsons/MX_seq47_1_VE125.json,183120,347074,37,Woman
36,184538,final-intermixed-textured,v2,jsons/MX_seq47_1_VE125.json,http://54.235.29.9/FacialAge/BNav_EC2/DepthDuration/MX_fS_VE_MTurk/MX_fS_HTML.html#248,248,1920,1080,1920,1080,1-13-2024,10-57-26,37,VR_target_stimuli/s52_1.3x_3.2_280.png,125,1.3x,3.2,2.0,1980,123,meters,jsons/MX_seq47_1_VE125.json,183120,347074,37,Woman
37,184538,final-intermixed-textured,v2,jsons/MX_seq47_1_VE125.json,http://54.235.29.9/FacialAge/BNav_EC2/DepthDuration/MX_fS_VE_MTurk/MX_fS_HTML.html#248,248,1920,1080,1920,1080,1-13-2024,10-57-26,38,VR_target_stimuli/s32_1.3x_1.5_224_BC.png,125,1.3x,1.5,2.0,1530,116,meters,jsons/MX_seq47_1_VE125.json,183120,347074,37,Woman
38,184538,final-intermixed-textured,v2,jsons/MX_seq47_1_VE125.json,http://54.235.29.9/FacialAge/BNav_EC2/DepthDuration/MX_fS_VE_MTurk/MX_fS_HTML.html#248,248,1920,1080,1920,1080,1-13-2024,10-57-26,39,VR_target_stimuli/s18_1x_2.25_353.png,125,1x,2.25,1.0,1704,129,meters,jsons/MX_seq47_1_VE125.json,183120,347074,37,Woman
39,184538,final-intermixed-textured,v2,jsons/MX_seq47_1_VE125.json,http://54.235.29.9/FacialAge/BNav_EC2/DepthDuration/MX_fS_VE_MTurk/MX_fS_HTML.html#248,248,1920,1080,1920,1080,1-13-2024,10-57-26,40,VR_target_stimuli/s39_0.75x_1_205.png,125,0.75x,1.0,1.0,2142,120,meters,jsons/MX_seq47_1_VE125.json,183120,347074,37,Woman
40,184538,final-intermixed-textured,v2,jsons/MX_seq47_1_VE125.json,http://54.235.29.9/FacialAge/BNav_EC2/DepthDuration/MX_fS_VE_MTurk/MX_fS_HTML.html#248,248,1920,1080,1920,1080,1-13-2024,10-57-26,41,VR_target_stimuli/s51_1x_3.64_461.png,125,1x,3.64,2.0,1636,128,meters,jsons/MX_seq47_1_VE125.json,183120,347074,37,Woman
41,184538,final-intermixed-textured,v2,jsons/MX_seq47_1_VE125.json,http://54.235.29.9/FacialAge/BNav_EC2/DepthDuration/MX_fS_VE_MTurk/MX_fS_HTML.html#248,248,1920,1080,1920,1080,1-13-2024,10-57-26,42,VR_target_stimuli/s43_1.3x_2.2_363.png,125,1.3x,2.2,2.5,3116,140,meters,jsons/MX_seq47_1_VE125.json,183120,347074,37,Woman
42,184538,final-intermixed-textured,v2,jsons/MX_seq47_1_VE125.json,http://54.235.29.9/FacialAge/BNav_EC2/DepthDuration/MX_fS_VE_MTurk/MX_fS_HTML.html#248,248,1920,1080,1920,1080,1-13-2024,10-57-26,43,VR_target_stimuli/s24_0.75x_3.3_344_BC.png,125,0.75x,3.3,2.0,2008,139,meters,jsons/MX_seq47_1_VE125.json,183120,347074,37,Woman
43,184538,final-intermixed-textured,v2,jsons/MX_seq47_1_VE125.json,http://54.235.29.9/FacialAge/BNav_EC2/DepthDuration/MX_fS_VE_MTurk/MX_fS_HTML.html#248,248,1920,1080,1920,1080,1-13-2024,10-57-26,44,VR_target_stimuli/s10_1.3x_2.7_325_BC.png,125,1.3x,2.7,2.0,2126,116,meters,jsons/MX_seq47_1_VE125.json,183120,347074,37,Woman
44,184538,final-intermixed-textured,v2,jsons/MX_seq47_1_VE125.json,http://54.235.29.9/FacialAge/BNav_EC2/DepthDuration/MX_fS_VE_MTurk/MX_fS_HTML.html#248,248,1920,1080,1920,1080,1-13-2024,10-57-26,45,catch_stimuli/c4.png,125,,,0.0,2256,113,meters,jsons/MX_seq47_1_VE125.json,183120,347074,37,Woman
45,184538,final-intermixed-textured,v2,jsons/MX_seq47_1_VE125.json,http://54.235.29.9/FacialAge/BNav_EC2/DepthDuration/MX_fS_VE_MTurk/MX_fS_HTML.html#248,248,1920,1080,1920,1080,1-13-2024,10-57-26,46,VR_target_stimuli/s36_1x_4.1_423_BC.png,125,1x,4.1,2.5,4228,113,meters,jsons/MX_seq47_1_VE125.json,183120,347074,37,Woman
46,184538,final-intermixed-textured,v2,jsons/MX_seq47_1_VE125.json,http://54.235.29.9/FacialAge/BNav_EC2/DepthDuration/MX_fS_VE_MTurk/MX_fS_HTML.html#248,248,1920,1080,1920,1080,1-13-2024,10-57-26,47,VR_target_stimuli/s40_0.75x_1.2_308.png,125,0.75x,1.2,1.0,2686,125,meters,jsons/MX_seq47_1_VE125.json,183120,347074,37,Woman
47,184538,final-intermixed-textured,v2,jsons/MX_seq47_1_VE125.json,http://54.235.29.9/FacialAge/BNav_EC2/DepthDuration/MX_fS_VE_MTurk/MX_fS_HTML.html#248,248,1920,1080,1920,1080,1-13-2024,10-57-26,48,VR_target_stimuli/s41_0.75x_2.1_281_BC.png,125,0.75x,2.1,1.5,2676,120,meters,jsons/MX_seq47_1_VE125.json,183120,347074,37,Woman
48,184538,final-intermixed-textured,v2,jsons/MX_seq47_1_VE125.json,http://54.235.29.9/FacialAge/BNav_EC2/DepthDuration/MX_fS_VE_MTurk/MX_fS_HTML.html#248,248,1920,1080,1920,1080,1-13-2024,10-57-26,49,VR_target_stimuli/s45_1.3x_3.5_377_BC.png,125,1.3x,3.5,1.5,3567,141,meters,jsons/MX_seq47_1_VE125.json,183120,347074,37,Woman
49,184538,final-intermixed-textured,v2,jsons/MX_seq47_1_VE125.json,http://54.235.29.9/FacialAge/BNav_EC2/DepthDuration/MX_fS_VE_MTurk/MX_fS_HTML.html#248,248,1920,1080,1920,1080,1-13-2024,10-57-26,50,VR_target_stimuli/s23_1x_3.65_353_BC.png,125,1x,3.65,2.0,2666,114,meters,jsons/MX_seq47_1_VE125.json,183120,347074,37,Woman
50,184538,final-intermixed-textured,v2,jsons/MX_seq47_1_VE125.json,http://54.235.29.9/FacialAge/BNav_EC2/DepthDuration/MX_fS_VE_MTurk/MX_fS_HTML.html#248,248,1920,1080,1920,1080,1-13-2024,10-57-26,51,VR_target_stimuli/s26_1.3x_4_441.png,125,1.3x,4.0,2.0,1530,112,meters,jsons/MX_seq47_1_VE125.json,183120,347074,37,Woman
51,184538,final-intermixed-textured,v2,jsons/MX_seq47_1_VE125.json,http://54.235.29.9/FacialAge/BNav_EC2/DepthDuration/MX_fS_VE_MTurk/MX_fS_HTML.html#248,248,1920,1080,1920,1080,1-13-2024,10-57-26,52,VR_target_stimuli/s12_0.75x_3.1_364.png,125,0.75x,3.1,1.5,3175,132,meters,jsons/MX_seq47_1_VE125.json,183120,347074,37,Woman
52,184538,final-intermixed-textured,v2,jsons/MX_seq47_1_VE125.json,http://54.235.29.9/FacialAge/BNav_EC2/DepthDuration/MX_fS_VE_MTurk/MX_fS_HTML.html#248,248,1920,1080,1920,1080,1-13-2024,10-57-26,53,catch_stimuli/c5.png,125,,,0.0,1626,115,meters,jsons/MX_seq47_1_VE125.json,183120,347074,37,Woman
53,184538,final-intermixed-textured,v2,jsons/MX_seq47_1_VE125.json,http://54.235.29.9/FacialAge/BNav_EC2/DepthDuration/MX_fS_VE_MTurk/MX_fS_HTML.html#248,248,1920,1080,1920,1080,1-13-2024,10-57-26,54,VR_target_stimuli/s30_1x_2.3_334.png,125,1x,2.3,2.0,1658,120,meters,jsons/MX_seq47_1_VE125.json,183120,347074,37,Woman
54,184538,final-intermixed-textured,v2,jsons/MX_seq47_1_VE125.json,http://54.235.29.9/FacialAge/BNav_EC2/DepthDuration/MX_fS_VE_MTurk/MX_fS_HTML.html#248,248,1920,1080,1920,1080,1-13-2024,10-57-26,55,VR_target_stimuli/s16_0.75x_1_217.png,125,0.75x,1.0,1.0,1742,135,meters,jsons/MX_seq47_1_VE125.json,183120,347074,37,Woman
55,184538,final-intermixed-textured,v2,jsons/MX_seq47_1_VE125.json,http://54.235.29.9/FacialAge/BNav_EC2/DepthDuration/MX_fS_VE_MTurk/MX_fS_HTML.html#248,248,1920,1080,1920,1080,1-13-2024,10-57-26,56,VR_target_stimuli/s17_1.3x_1.8_300_BC.png,125,1.3x,1.8,1.5,2353,145,meters,jsons/MX_seq47_1_VE125.json,183120,347074,37,Woman
56,184538,final-intermixed-textured,v2,jsons/MX_seq47_1_VE125.json,http://54.235.29.9/FacialAge/BNav_EC2/DepthDuration/MX_fS_VE_MTurk/MX_fS_HTML.html#248,248,1920,1080,1920,1080,1-13-2024,10-57-26,57,VR_target_stimuli/s5_1x_4_378.png,125,1x,4.0,2.0,1788,140,meters,jsons/MX_seq47_1_VE125.json,183120,347074,37,Woman
57,184538,final-intermixed-textured,v2,jsons/MX_seq47_1_VE125.json,http://54.235.29.9/FacialAge/BNav_EC2/DepthDuration/MX_fS_VE_MTurk/MX_fS_HTML.html#248,248,1920,1080,1920,1080,1-13-2024,10-57-26,58,VR_target_stimuli/s37_1x_3.3_563_BC.png,125,1x,3.3,2.5,2480,135,meters,jsons/MX_seq47_1_VE125.json,183120,347074,37,Woman
58,184538,final-intermixed-textured,v2,jsons/MX_seq47_1_VE125.json,http://54.235.29.9/FacialAge/BNav_EC2/DepthDuration/MX_fS_VE_MTurk/MX_fS_HTML.html#248,248,1920,1080,1920,1080,1-13-2024,10-57-26,59,VR_target_stimuli/s46_0.75x_2.42_343_BC.png,125,0.75x,2.42,1.0,2182,116,meters,jsons/MX_seq47_1_VE125.json,183120,347074,37,Woman
59,184538,final-intermixed-textured,v2,jsons/MX_seq47_1_VE125.json,http://54.235.29.9/FacialAge/BNav_EC2/DepthDuration/MX_fS_VE_MTurk/MX_fS_HTML.html#248,248,1920,1080,1920,1080,1-13-2024,10-57-26,60,VR_target_stimuli/s22_1.3x_4.29_364.png,125,1.3x,4.29,2.5,2562,128,meters,jsons/MX_seq47_1_VE125.json,183120,347074,37,Woman
