,subjID,experimentName,versionName,sequenceName,url,selected_row,windowWidth,windowHeight,screenWidth,screenHeight,startDate,startTime,trial,stimulus,duration,scale,actual_depth,depth_estimate,trial_RT,log_sceneDuration,unitSelection,seq_filepath,experimentTime,totalTime,age,gender
0,187680,final-intermixed-textured,v2,jsons/MX_seq36_1_VE125_flipped.json,http://54.235.29.9/FacialAge/BNav_EC2/DepthDuration/MX_fS_VE_MTurk/MX_fS_HTML.html#86,86,1792,1008,1792,1120,1-12-2024,13-51-1,1,VR_target_stimuli/s45_1.3x_3.5_377.png,125,1.3x,3.5,6,3947,124,meters,jsons/MX_seq36_1_VE125_flipped.json,215928,540508,31,Man
1,187680,final-intermixed-textured,v2,jsons/MX_seq36_1_VE125_flipped.json,http://54.235.29.9/FacialAge/BNav_EC2/DepthDuration/MX_fS_VE_MTurk/MX_fS_HTML.html#86,86,1792,1008,1792,1120,1-12-2024,13-51-1,2,VR_target_stimuli/s23_0.75x_3.65_351_BC.png,125,0.75x,3.65,0,2964,125,meters,jsons/MX_seq36_1_VE125_flipped.json,215928,540508,31,Man
2,187680,final-intermixed-textured,v2,jsons/MX_seq36_1_VE125_flipped.json,http://54.235.29.9/FacialAge/BNav_EC2/DepthDuration/MX_fS_VE_MTurk/MX_fS_HTML.html#86,86,1792,1008,1792,1120,1-12-2024,13-51-1,3,VR_target_stimuli/s26_1x_4_433_BC.png,125,1x,4.0,0,2949,124,meters,jsons/MX_seq36_1_VE125_flipped.json,215928,540508,31,Man
3,187680,final-intermixed-textured,v2,jsons/MX_seq36_1_VE125_flipped.json,http://54.235.29.9/FacialAge/BNav_EC2/DepthDuration/MX_fS_VE_MTurk/MX_fS_HTML.html#86,86,1792,1008,1792,1120,1-12-2024,13-51-1,4,VR_target_stimuli/s12_0.75x_3.1_364.png,125,0.75x,3.1,0,4349,124,meters,jsons/MX_seq36_1_VE125_flipped.json,215928,540508,31,Man
4,187680,final-intermixed-textured,v2,jsons/MX_seq36_1_VE125_flipped.json,http://54.235.29.9/FacialAge/BNav_EC2/DepthDuration/MX_fS_VE_MTurk/MX_fS_HTML.html#86,86,1792,1008,1792,1120,1-12-2024,13-51-1,5,VR_target_stimuli/s30_1.3x_2.3_337_BC.png,125,1.3x,2.3,8,3281,124,meters,jsons/MX_seq36_1_VE125_flipped.json,215928,540508,31,Man
5,187680,final-intermixed-textured,v2,jsons/MX_seq36_1_VE125_flipped.json,http://54.235.29.9/FacialAge/BNav_EC2/DepthDuration/MX_fS_VE_MTurk/MX_fS_HTML.html#86,86,1792,1008,1792,1120,1-12-2024,13-51-1,6,VR_target_stimuli/s16_1x_1_219.png,125,1x,1.0,7,2980,124,meters,jsons/MX_seq36_1_VE125_flipped.json,215928,540508,31,Man
6,187680,final-intermixed-textured,v2,jsons/MX_seq36_1_VE125_flipped.json,http://54.235.29.9/FacialAge/BNav_EC2/DepthDuration/MX_fS_VE_MTurk/MX_fS_HTML.html#86,86,1792,1008,1792,1120,1-12-2024,13-51-1,7,catch_stimuli/c0_BC.png,125,,,0,3098,126,meters,jsons/MX_seq36_1_VE125_flipped.json,215928,540508,31,Man
7,187680,final-intermixed-textured,v2,jsons/MX_seq36_1_VE125_flipped.json,http://54.235.29.9/FacialAge/BNav_EC2/DepthDuration/MX_fS_VE_MTurk/MX_fS_HTML.html#86,86,1792,1008,1792,1120,1-12-2024,13-51-1,8,VR_target_stimuli/s17_1x_1.8_291_BC.png,125,1x,1.8,1,3432,125,meters,jsons/MX_seq36_1_VE125_flipped.json,215928,540508,31,Man
8,187680,final-intermixed-textured,v2,jsons/MX_seq36_1_VE125_flipped.json,http://54.235.29.9/FacialAge/BNav_EC2/DepthDuration/MX_fS_VE_MTurk/MX_fS_HTML.html#86,86,1792,1008,1792,1120,1-12-2024,13-51-1,9,VR_target_stimuli/s5_0.75x_4_375_BC.png,125,0.75x,4.0,8,3349,124,meters,jsons/MX_seq36_1_VE125_flipped.json,215928,540508,31,Man
9,187680,final-intermixed-textured,v2,jsons/MX_seq36_1_VE125_flipped.json,http://54.235.29.9/FacialAge/BNav_EC2/DepthDuration/MX_fS_VE_MTurk/MX_fS_HTML.html#86,86,1792,1008,1792,1120,1-12-2024,13-51-1,10,VR_target_stimuli/s37_1.3x_3.3_555_BC.png,125,1.3x,3.3,7,3132,125,meters,jsons/MX_seq36_1_VE125_flipped.json,215928,540508,31,Man
10,187680,final-intermixed-textured,v2,jsons/MX_seq36_1_VE125_flipped.json,http://54.235.29.9/FacialAge/BNav_EC2/DepthDuration/MX_fS_VE_MTurk/MX_fS_HTML.html#86,86,1792,1008,1792,1120,1-12-2024,13-51-1,11,VR_target_stimuli/s46_0.75x_2.42_343.png,125,0.75x,2.42,6,2850,124,meters,jsons/MX_seq36_1_VE125_flipped.json,215928,540508,31,Man
11,187680,final-intermixed-textured,v2,jsons/MX_seq36_1_VE125_flipped.json,http://54.235.29.9/FacialAge/BNav_EC2/DepthDuration/MX_fS_VE_MTurk/MX_fS_HTML.html#86,86,1792,1008,1792,1120,1-12-2024,13-51-1,12,VR_target_stimuli/s22_1x_4.29_354.png,125,1x,4.29,7,2748,125,meters,jsons/MX_seq36_1_VE125_flipped.json,215928,540508,31,Man
12,187680,final-intermixed-textured,v2,jsons/MX_seq36_1_VE125_flipped.json,http://54.235.29.9/FacialAge/BNav_EC2/DepthDuration/MX_fS_VE_MTurk/MX_fS_HTML.html#86,86,1792,1008,1792,1120,1-12-2024,13-51-1,13,VR_target_stimuli/s42_1.3x_3.2_305.png,125,1.3x,3.2,7,2916,124,meters,jsons/MX_seq36_1_VE125_flipped.json,215928,540508,31,Man
13,187680,final-intermixed-textured,v2,jsons/MX_seq36_1_VE125_flipped.json,http://54.235.29.9/FacialAge/BNav_EC2/DepthDuration/MX_fS_VE_MTurk/MX_fS_HTML.html#86,86,1792,1008,1792,1120,1-12-2024,13-51-1,14,VR_target_stimuli/s25_1x_1.4_290.png,125,1x,1.4,6,3498,124,meters,jsons/MX_seq36_1_VE125_flipped.json,215928,540508,31,Man
14,187680,final-intermixed-textured,v2,jsons/MX_seq36_1_VE125_flipped.json,http://54.235.29.9/FacialAge/BNav_EC2/DepthDuration/MX_fS_VE_MTurk/MX_fS_HTML.html#86,86,1792,1008,1792,1120,1-12-2024,13-51-1,15,VR_target_stimuli/s50_0.75x_4.53_517.png,125,0.75x,4.53,8,6467,124,meters,jsons/MX_seq36_1_VE125_flipped.json,215928,540508,31,Man
15,187680,final-intermixed-textured,v2,jsons/MX_seq36_1_VE125_flipped.json,http://54.235.29.9/FacialAge/BNav_EC2/DepthDuration/MX_fS_VE_MTurk/MX_fS_HTML.html#86,86,1792,1008,1792,1120,1-12-2024,13-51-1,16,VR_target_stimuli/s53_1.3x_1.6_355_BC.png,125,1.3x,1.6,8,2880,124,meters,jsons/MX_seq36_1_VE125_flipped.json,215928,540508,31,Man
16,187680,final-intermixed-textured,v2,jsons/MX_seq36_1_VE125_flipped.json,http://54.235.29.9/FacialAge/BNav_EC2/DepthDuration/MX_fS_VE_MTurk/MX_fS_HTML.html#86,86,1792,1008,1792,1120,1-12-2024,13-51-1,17,catch_stimuli/c1_BC.png,125,,,0,2951,125,meters,jsons/MX_seq36_1_VE125_flipped.json,215928,540508,31,Man
17,187680,final-intermixed-textured,v2,jsons/MX_seq36_1_VE125_flipped.json,http://54.235.29.9/FacialAge/BNav_EC2/DepthDuration/MX_fS_VE_MTurk/MX_fS_HTML.html#86,86,1792,1008,1792,1120,1-12-2024,13-51-1,18,VR_target_stimuli/s38_1.3x_3.55_358.png,125,1.3x,3.55,6,2730,124,meters,jsons/MX_seq36_1_VE125_flipped.json,215928,540508,31,Man
18,187680,final-intermixed-textured,v2,jsons/MX_seq36_1_VE125_flipped.json,http://54.235.29.9/FacialAge/BNav_EC2/DepthDuration/MX_fS_VE_MTurk/MX_fS_HTML.html#86,86,1792,1008,1792,1120,1-12-2024,13-51-1,19,VR_target_stimuli/s9_1x_1.2_263_BC.png,125,1x,1.2,1,2916,125,meters,jsons/MX_seq36_1_VE125_flipped.json,215928,540508,31,Man
19,187680,final-intermixed-textured,v2,jsons/MX_seq36_1_VE125_flipped.json,http://54.235.29.9/FacialAge/BNav_EC2/DepthDuration/MX_fS_VE_MTurk/MX_fS_HTML.html#86,86,1792,1008,1792,1120,1-12-2024,13-51-1,20,VR_target_stimuli/s44_0.75x_4.4_314_BC.png,125,0.75x,4.4,7,2649,125,meters,jsons/MX_seq36_1_VE125_flipped.json,215928,540508,31,Man
20,187680,final-intermixed-textured,v2,jsons/MX_seq36_1_VE125_flipped.json,http://54.235.29.9/FacialAge/BNav_EC2/DepthDuration/MX_fS_VE_MTurk/MX_fS_HTML.html#86,86,1792,1008,1792,1120,1-12-2024,13-51-1,21,VR_target_stimuli/s3_1x_5_385_BC.png,125,1x,5.0,4,3034,124,meters,jsons/MX_seq36_1_VE125_flipped.json,215928,540508,31,Man
21,187680,final-intermixed-textured,v2,jsons/MX_seq36_1_VE125_flipped.json,http://54.235.29.9/FacialAge/BNav_EC2/DepthDuration/MX_fS_VE_MTurk/MX_fS_HTML.html#86,86,1792,1008,1792,1120,1-12-2024,13-51-1,22,VR_target_stimuli/s1_1.3x_1.7_261_BC.png,125,1.3x,1.7,5,2715,125,meters,jsons/MX_seq36_1_VE125_flipped.json,215928,540508,31,Man
22,187680,final-intermixed-textured,v2,jsons/MX_seq36_1_VE125_flipped.json,http://54.235.29.9/FacialAge/BNav_EC2/DepthDuration/MX_fS_VE_MTurk/MX_fS_HTML.html#86,86,1792,1008,1792,1120,1-12-2024,13-51-1,23,VR_target_stimuli/s11_0.75x_5_359.png,125,0.75x,5.0,5,3366,124,meters,jsons/MX_seq36_1_VE125_flipped.json,215928,540508,31,Man
23,187680,final-intermixed-textured,v2,jsons/MX_seq36_1_VE125_flipped.json,http://54.235.29.9/FacialAge/BNav_EC2/DepthDuration/MX_fS_VE_MTurk/MX_fS_HTML.html#86,86,1792,1008,1792,1120,1-12-2024,13-51-1,24,VR_target_stimuli/s2_1.3x_2.7_397.png,125,1.3x,2.7,7,2847,125,meters,jsons/MX_seq36_1_VE125_flipped.json,215928,540508,31,Man
24,187680,final-intermixed-textured,v2,jsons/MX_seq36_1_VE125_flipped.json,http://54.235.29.9/FacialAge/BNav_EC2/DepthDuration/MX_fS_VE_MTurk/MX_fS_HTML.html#86,86,1792,1008,1792,1120,1-12-2024,13-51-1,25,VR_target_stimuli/s6_1x_2.1_293.png,125,1x,2.1,7,2682,124,meters,jsons/MX_seq36_1_VE125_flipped.json,215928,540508,31,Man
25,187680,final-intermixed-textured,v2,jsons/MX_seq36_1_VE125_flipped.json,http://54.235.29.9/FacialAge/BNav_EC2/DepthDuration/MX_fS_VE_MTurk/MX_fS_HTML.html#86,86,1792,1008,1792,1120,1-12-2024,13-51-1,26,catch_stimuli/c2_BC.png,125,,,0,2765,123,meters,jsons/MX_seq36_1_VE125_flipped.json,215928,540508,31,Man
26,187680,final-intermixed-textured,v2,jsons/MX_seq36_1_VE125_flipped.json,http://54.235.29.9/FacialAge/BNav_EC2/DepthDuration/MX_fS_VE_MTurk/MX_fS_HTML.html#86,86,1792,1008,1792,1120,1-12-2024,13-51-1,27,VR_target_stimuli/s0_0.75x_2.6_345_BC.png,125,0.75x,2.6,8,2998,125,meters,jsons/MX_seq36_1_VE125_flipped.json,215928,540508,31,Man
27,187680,final-intermixed-textured,v2,jsons/MX_seq36_1_VE125_flipped.json,http://54.235.29.9/FacialAge/BNav_EC2/DepthDuration/MX_fS_VE_MTurk/MX_fS_HTML.html#86,86,1792,1008,1792,1120,1-12-2024,13-51-1,28,VR_target_stimuli/s34_0.75x_2.8_269.png,125,0.75x,2.8,6,2881,124,meters,jsons/MX_seq36_1_VE125_flipped.json,215928,540508,31,Man
28,187680,final-intermixed-textured,v2,jsons/MX_seq36_1_VE125_flipped.json,http://54.235.29.9/FacialAge/BNav_EC2/DepthDuration/MX_fS_VE_MTurk/MX_fS_HTML.html#86,86,1792,1008,1792,1120,1-12-2024,13-51-1,29,VR_target_stimuli/s13_1.3x_2.4_313.png,125,1.3x,2.4,7,4699,125,meters,jsons/MX_seq36_1_VE125_flipped.json,215928,540508,31,Man
29,187680,final-intermixed-textured,v2,jsons/MX_seq36_1_VE125_flipped.json,http://54.235.29.9/FacialAge/BNav_EC2/DepthDuration/MX_fS_VE_MTurk/MX_fS_HTML.html#86,86,1792,1008,1792,1120,1-12-2024,13-51-1,30,VR_target_stimuli/s14_1x_ 3.83_357.png,125,1x,3.83,8,2965,123,meters,jsons/MX_seq36_1_VE125_flipped.json,215928,540508,31,Man
30,187680,final-intermixed-textured,v2,jsons/MX_seq36_1_VE125_flipped.json,http://54.235.29.9/FacialAge/BNav_EC2/DepthDuration/MX_fS_VE_MTurk/MX_fS_HTML.html#86,86,1792,1008,1792,1120,1-12-2024,13-51-1,31,VR_target_stimuli/s47_0.75x_3.45_366_BC.png,125,0.75x,3.45,5,3182,125,meters,jsons/MX_seq36_1_VE125_flipped.json,215928,540508,31,Man
31,187680,final-intermixed-textured,v2,jsons/MX_seq36_1_VE125_flipped.json,http://54.235.29.9/FacialAge/BNav_EC2/DepthDuration/MX_fS_VE_MTurk/MX_fS_HTML.html#86,86,1792,1008,1792,1120,1-12-2024,13-51-1,32,VR_target_stimuli/s29_1x_1.3_250_BC.png,125,1x,1.3,8,2881,125,meters,jsons/MX_seq36_1_VE125_flipped.json,215928,540508,31,Man
32,187680,final-intermixed-textured,v2,jsons/MX_seq36_1_VE125_flipped.json,http://54.235.29.9/FacialAge/BNav_EC2/DepthDuration/MX_fS_VE_MTurk/MX_fS_HTML.html#86,86,1792,1008,1792,1120,1-12-2024,13-51-1,33,VR_target_stimuli/s28_1.3x_3.2_365_BC.png,125,1.3x,3.2,6,2965,125,meters,jsons/MX_seq36_1_VE125_flipped.json,215928,540508,31,Man
33,187680,final-intermixed-textured,v2,jsons/MX_seq36_1_VE125_flipped.json,http://54.235.29.9/FacialAge/BNav_EC2/DepthDuration/MX_fS_VE_MTurk/MX_fS_HTML.html#86,86,1792,1008,1792,1120,1-12-2024,13-51-1,34,catch_stimuli/c3_BC.png,125,,,0,3865,124,meters,jsons/MX_seq36_1_VE125_flipped.json,215928,540508,31,Man
34,187680,final-intermixed-textured,v2,jsons/MX_seq36_1_VE125_flipped.json,http://54.235.29.9/FacialAge/BNav_EC2/DepthDuration/MX_fS_VE_MTurk/MX_fS_HTML.html#86,86,1792,1008,1792,1120,1-12-2024,13-51-1,35,VR_target_stimuli/s48_1x_2.55_256_BC.png,125,1x,2.55,8,2883,124,meters,jsons/MX_seq36_1_VE125_flipped.json,215928,540508,31,Man
35,187680,final-intermixed-textured,v2,jsons/MX_seq36_1_VE125_flipped.json,http://54.235.29.9/FacialAge/BNav_EC2/DepthDuration/MX_fS_VE_MTurk/MX_fS_HTML.html#86,86,1792,1008,1792,1120,1-12-2024,13-51-1,36,VR_target_stimuli/s19_0.75x_1.21_257.png,125,0.75x,1.21,6,2732,125,meters,jsons/MX_seq36_1_VE125_flipped.json,215928,540508,31,Man
36,187680,final-intermixed-textured,v2,jsons/MX_seq36_1_VE125_flipped.json,http://54.235.29.9/FacialAge/BNav_EC2/DepthDuration/MX_fS_VE_MTurk/MX_fS_HTML.html#86,86,1792,1008,1792,1120,1-12-2024,13-51-1,37,VR_target_stimuli/s21_1.3x_4.22_384_BC.png,125,1.3x,4.22,7,2866,125,meters,jsons/MX_seq36_1_VE125_flipped.json,215928,540508,31,Man
37,187680,final-intermixed-textured,v2,jsons/MX_seq36_1_VE125_flipped.json,http://54.235.29.9/FacialAge/BNav_EC2/DepthDuration/MX_fS_VE_MTurk/MX_fS_HTML.html#86,86,1792,1008,1792,1120,1-12-2024,13-51-1,38,VR_target_stimuli/s8_1.3x_3.1_345.png,125,1.3x,3.1,9,3083,125,meters,jsons/MX_seq36_1_VE125_flipped.json,215928,540508,31,Man
38,187680,final-intermixed-textured,v2,jsons/MX_seq36_1_VE125_flipped.json,http://54.235.29.9/FacialAge/BNav_EC2/DepthDuration/MX_fS_VE_MTurk/MX_fS_HTML.html#86,86,1792,1008,1792,1120,1-12-2024,13-51-1,39,VR_target_stimuli/s27_1x_1.76_248.png,125,1x,1.76,7,3533,125,meters,jsons/MX_seq36_1_VE125_flipped.json,215928,540508,31,Man
39,187680,final-intermixed-textured,v2,jsons/MX_seq36_1_VE125_flipped.json,http://54.235.29.9/FacialAge/BNav_EC2/DepthDuration/MX_fS_VE_MTurk/MX_fS_HTML.html#86,86,1792,1008,1792,1120,1-12-2024,13-51-1,40,VR_target_stimuli/s15_0.75x_4.2_388_BC.png,125,0.75x,4.2,9,2848,125,meters,jsons/MX_seq36_1_VE125_flipped.json,215928,540508,31,Man
40,187680,final-intermixed-textured,v2,jsons/MX_seq36_1_VE125_flipped.json,http://54.235.29.9/FacialAge/BNav_EC2/DepthDuration/MX_fS_VE_MTurk/MX_fS_HTML.html#86,86,1792,1008,1792,1120,1-12-2024,13-51-1,41,VR_target_stimuli/s4_1x_1.4_313.png,125,1x,1.4,9,2766,126,meters,jsons/MX_seq36_1_VE125_flipped.json,215928,540508,31,Man
41,187680,final-intermixed-textured,v2,jsons/MX_seq36_1_VE125_flipped.json,http://54.235.29.9/FacialAge/BNav_EC2/DepthDuration/MX_fS_VE_MTurk/MX_fS_HTML.html#86,86,1792,1008,1792,1120,1-12-2024,13-51-1,42,VR_target_stimuli/s35_1.3x_2_338.png,125,1.3x,2.0,6,3883,126,meters,jsons/MX_seq36_1_VE125_flipped.json,215928,540508,31,Man
42,187680,final-intermixed-textured,v2,jsons/MX_seq36_1_VE125_flipped.json,http://54.235.29.9/FacialAge/BNav_EC2/DepthDuration/MX_fS_VE_MTurk/MX_fS_HTML.html#86,86,1792,1008,1792,1120,1-12-2024,13-51-1,43,VR_target_stimuli/s49_0.75x_4.67_328_BC.png,125,0.75x,4.67,6,2830,124,meters,jsons/MX_seq36_1_VE125_flipped.json,215928,540508,31,Man
43,187680,final-intermixed-textured,v2,jsons/MX_seq36_1_VE125_flipped.json,http://54.235.29.9/FacialAge/BNav_EC2/DepthDuration/MX_fS_VE_MTurk/MX_fS_HTML.html#86,86,1792,1008,1792,1120,1-12-2024,13-51-1,44,VR_target_stimuli/s7_1.3x_1.5_256_BC.png,125,1.3x,1.5,6,3150,126,meters,jsons/MX_seq36_1_VE125_flipped.json,215928,540508,31,Man
44,187680,final-intermixed-textured,v2,jsons/MX_seq36_1_VE125_flipped.json,http://54.235.29.9/FacialAge/BNav_EC2/DepthDuration/MX_fS_VE_MTurk/MX_fS_HTML.html#86,86,1792,1008,1792,1120,1-12-2024,13-51-1,45,catch_stimuli/c4_BC.png,125,,,0,2884,126,meters,jsons/MX_seq36_1_VE125_flipped.json,215928,540508,31,Man
45,187680,final-intermixed-textured,v2,jsons/MX_seq36_1_VE125_flipped.json,http://54.235.29.9/FacialAge/BNav_EC2/DepthDuration/MX_fS_VE_MTurk/MX_fS_HTML.html#86,86,1792,1008,1792,1120,1-12-2024,13-51-1,46,VR_target_stimuli/s20_1x_4.99_398_BC.png,125,1x,4.99,9,2566,125,meters,jsons/MX_seq36_1_VE125_flipped.json,215928,540508,31,Man
46,187680,final-intermixed-textured,v2,jsons/MX_seq36_1_VE125_flipped.json,http://54.235.29.9/FacialAge/BNav_EC2/DepthDuration/MX_fS_VE_MTurk/MX_fS_HTML.html#86,86,1792,1008,1792,1120,1-12-2024,13-51-1,47,VR_target_stimuli/s31_0.75x_4.96_329.png,125,0.75x,4.96,3,3113,124,meters,jsons/MX_seq36_1_VE125_flipped.json,215928,540508,31,Man
47,187680,final-intermixed-textured,v2,jsons/MX_seq36_1_VE125_flipped.json,http://54.235.29.9/FacialAge/BNav_EC2/DepthDuration/MX_fS_VE_MTurk/MX_fS_HTML.html#86,86,1792,1008,1792,1120,1-12-2024,13-51-1,48,VR_target_stimuli/s33_0.75x_3.1_361_BC.png,125,0.75x,3.1,7,2949,125,meters,jsons/MX_seq36_1_VE125_flipped.json,215928,540508,31,Man
48,187680,final-intermixed-textured,v2,jsons/MX_seq36_1_VE125_flipped.json,http://54.235.29.9/FacialAge/BNav_EC2/DepthDuration/MX_fS_VE_MTurk/MX_fS_HTML.html#86,86,1792,1008,1792,1120,1-12-2024,13-51-1,49,VR_target_stimuli/s52_1.3x_3.2_280_BC.png,125,1.3x,3.2,7,2682,125,meters,jsons/MX_seq36_1_VE125_flipped.json,215928,540508,31,Man
49,187680,final-intermixed-textured,v2,jsons/MX_seq36_1_VE125_flipped.json,http://54.235.29.9/FacialAge/BNav_EC2/DepthDuration/MX_fS_VE_MTurk/MX_fS_HTML.html#86,86,1792,1008,1792,1120,1-12-2024,13-51-1,50,VR_target_stimuli/s32_1x_1.5_218_BC.png,125,1x,1.5,2,2916,125,meters,jsons/MX_seq36_1_VE125_flipped.json,215928,540508,31,Man
50,187680,final-intermixed-textured,v2,jsons/MX_seq36_1_VE125_flipped.json,http://54.235.29.9/FacialAge/BNav_EC2/DepthDuration/MX_fS_VE_MTurk/MX_fS_HTML.html#86,86,1792,1008,1792,1120,1-12-2024,13-51-1,51,VR_target_stimuli/s18_1.3x_2.25_368.png,125,1.3x,2.25,4,2783,124,meters,jsons/MX_seq36_1_VE125_flipped.json,215928,540508,31,Man
51,187680,final-intermixed-textured,v2,jsons/MX_seq36_1_VE125_flipped.json,http://54.235.29.9/FacialAge/BNav_EC2/DepthDuration/MX_fS_VE_MTurk/MX_fS_HTML.html#86,86,1792,1008,1792,1120,1-12-2024,13-51-1,52,VR_target_stimuli/s39_0.75x_1_205.png,125,0.75x,1.0,1,2563,125,meters,jsons/MX_seq36_1_VE125_flipped.json,215928,540508,31,Man
52,187680,final-intermixed-textured,v2,jsons/MX_seq36_1_VE125_flipped.json,http://54.235.29.9/FacialAge/BNav_EC2/DepthDuration/MX_fS_VE_MTurk/MX_fS_HTML.html#86,86,1792,1008,1792,1120,1-12-2024,13-51-1,53,catch_stimuli/c5_BC.png,125,,,0,2849,126,meters,jsons/MX_seq36_1_VE125_flipped.json,215928,540508,31,Man
53,187680,final-intermixed-textured,v2,jsons/MX_seq36_1_VE125_flipped.json,http://54.235.29.9/FacialAge/BNav_EC2/DepthDuration/MX_fS_VE_MTurk/MX_fS_HTML.html#86,86,1792,1008,1792,1120,1-12-2024,13-51-1,54,VR_target_stimuli/s51_1x_3.64_461.png,125,1x,3.64,4,2915,125,meters,jsons/MX_seq36_1_VE125_flipped.json,215928,540508,31,Man
54,187680,final-intermixed-textured,v2,jsons/MX_seq36_1_VE125_flipped.json,http://54.235.29.9/FacialAge/BNav_EC2/DepthDuration/MX_fS_VE_MTurk/MX_fS_HTML.html#86,86,1792,1008,1792,1120,1-12-2024,13-51-1,55,VR_target_stimuli/s43_0.75x_2.2_348_BC.png,125,0.75x,2.2,7,3200,125,meters,jsons/MX_seq36_1_VE125_flipped.json,215928,540508,31,Man
55,187680,final-intermixed-textured,v2,jsons/MX_seq36_1_VE125_flipped.json,http://54.235.29.9/FacialAge/BNav_EC2/DepthDuration/MX_fS_VE_MTurk/MX_fS_HTML.html#86,86,1792,1008,1792,1120,1-12-2024,13-51-1,56,VR_target_stimuli/s24_1.3x_3.3_352_BC.png,125,1.3x,3.3,8,2831,125,meters,jsons/MX_seq36_1_VE125_flipped.json,215928,540508,31,Man
56,187680,final-intermixed-textured,v2,jsons/MX_seq36_1_VE125_flipped.json,http://54.235.29.9/FacialAge/BNav_EC2/DepthDuration/MX_fS_VE_MTurk/MX_fS_HTML.html#86,86,1792,1008,1792,1120,1-12-2024,13-51-1,57,VR_target_stimuli/s10_1x_2.7_324.png,125,1x,2.7,7,2500,125,meters,jsons/MX_seq36_1_VE125_flipped.json,215928,540508,31,Man
57,187680,final-intermixed-textured,v2,jsons/MX_seq36_1_VE125_flipped.json,http://54.235.29.9/FacialAge/BNav_EC2/DepthDuration/MX_fS_VE_MTurk/MX_fS_HTML.html#86,86,1792,1008,1792,1120,1-12-2024,13-51-1,58,VR_target_stimuli/s36_1x_4.1_423_BC.png,125,1x,4.1,9,2616,126,meters,jsons/MX_seq36_1_VE125_flipped.json,215928,540508,31,Man
58,187680,final-intermixed-textured,v2,jsons/MX_seq36_1_VE125_flipped.json,http://54.235.29.9/FacialAge/BNav_EC2/DepthDuration/MX_fS_VE_MTurk/MX_fS_HTML.html#86,86,1792,1008,1792,1120,1-12-2024,13-51-1,59,VR_target_stimuli/s40_0.75x_1.2_308.png,125,0.75x,1.2,4,3084,123,meters,jsons/MX_seq36_1_VE125_flipped.json,215928,540508,31,Man
59,187680,final-intermixed-textured,v2,jsons/MX_seq36_1_VE125_flipped.json,http://54.235.29.9/FacialAge/BNav_EC2/DepthDuration/MX_fS_VE_MTurk/MX_fS_HTML.html#86,86,1792,1008,1792,1120,1-12-2024,13-51-1,60,VR_target_stimuli/s41_1.3x_2.1_294.png,125,1.3x,2.1,6,2880,125,meters,jsons/MX_seq36_1_VE125_flipped.json,215928,540508,31,Man
