,subjID,experimentName,versionName,sequenceName,url,selected_row,windowWidth,windowHeight,screenWidth,screenHeight,startDate,startTime,trial,stimulus,duration,scale,actual_depth,depth_estimate,trial_RT,log_sceneDuration,unitSelection,seq_filepath,experimentTime,totalTime,age,gender
0,234840,final-intermixed-textured,v2,jsons/MX_seq39_0_VE125.json,http://54.235.29.9/FacialAge/BNav_EC2/DepthDuration/MX_fS_VE_MTurk/MX_fS_HTML.html#197,197,1366,607,1366,768,1-13-2024,15-48-49,1,VR_target_stimuli/s12_0.75x_3.1_364_BC.png,125,0.75x,3.1,3,5119,115,meters,jsons/MX_seq39_0_VE125.json,190072,608240,28,Man
1,234840,final-intermixed-textured,v2,jsons/MX_seq39_0_VE125.json,http://54.235.29.9/FacialAge/BNav_EC2/DepthDuration/MX_fS_VE_MTurk/MX_fS_HTML.html#197,197,1366,607,1366,768,1-13-2024,15-48-49,2,VR_target_stimuli/s30_1x_2.3_334.png,125,1x,2.3,2,4287,129,meters,jsons/MX_seq39_0_VE125.json,190072,608240,28,Man
2,234840,final-intermixed-textured,v2,jsons/MX_seq39_0_VE125.json,http://54.235.29.9/FacialAge/BNav_EC2/DepthDuration/MX_fS_VE_MTurk/MX_fS_HTML.html#197,197,1366,607,1366,768,1-13-2024,15-48-49,3,VR_target_stimuli/s16_1.3x_1_223.png,125,1.3x,1.0,2,2328,119,meters,jsons/MX_seq39_0_VE125.json,190072,608240,28,Man
3,234840,final-intermixed-textured,v2,jsons/MX_seq39_0_VE125.json,http://54.235.29.9/FacialAge/BNav_EC2/DepthDuration/MX_fS_VE_MTurk/MX_fS_HTML.html#197,197,1366,607,1366,768,1-13-2024,15-48-49,4,VR_target_stimuli/s17_1x_1.8_291_BC.png,125,1x,1.8,2,3053,115,meters,jsons/MX_seq39_0_VE125.json,190072,608240,28,Man
4,234840,final-intermixed-textured,v2,jsons/MX_seq39_0_VE125.json,http://54.235.29.9/FacialAge/BNav_EC2/DepthDuration/MX_fS_VE_MTurk/MX_fS_HTML.html#197,197,1366,607,1366,768,1-13-2024,15-48-49,5,VR_target_stimuli/s5_0.75x_4_375.png,125,0.75x,4.0,5,2601,138,meters,jsons/MX_seq39_0_VE125.json,190072,608240,28,Man
5,234840,final-intermixed-textured,v2,jsons/MX_seq39_0_VE125.json,http://54.235.29.9/FacialAge/BNav_EC2/DepthDuration/MX_fS_VE_MTurk/MX_fS_HTML.html#197,197,1366,607,1366,768,1-13-2024,15-48-49,6,VR_target_stimuli/s37_1.3x_3.3_555_BC.png,125,1.3x,3.3,5,3186,119,meters,jsons/MX_seq39_0_VE125.json,190072,608240,28,Man
6,234840,final-intermixed-textured,v2,jsons/MX_seq39_0_VE125.json,http://54.235.29.9/FacialAge/BNav_EC2/DepthDuration/MX_fS_VE_MTurk/MX_fS_HTML.html#197,197,1366,607,1366,768,1-13-2024,15-48-49,7,catch_stimuli/c0.png,125,,,0,2708,129,meters,jsons/MX_seq39_0_VE125.json,190072,608240,28,Man
7,234840,final-intermixed-textured,v2,jsons/MX_seq39_0_VE125.json,http://54.235.29.9/FacialAge/BNav_EC2/DepthDuration/MX_fS_VE_MTurk/MX_fS_HTML.html#197,197,1366,607,1366,768,1-13-2024,15-48-49,8,VR_target_stimuli/s46_1.3x_2.42_354.png,125,1.3x,2.42,5,2807,120,meters,jsons/MX_seq39_0_VE125.json,190072,608240,28,Man
8,234840,final-intermixed-textured,v2,jsons/MX_seq39_0_VE125.json,http://54.235.29.9/FacialAge/BNav_EC2/DepthDuration/MX_fS_VE_MTurk/MX_fS_HTML.html#197,197,1366,607,1366,768,1-13-2024,15-48-49,9,VR_target_stimuli/s22_1x_4.29_354_BC.png,125,1x,4.29,7,2985,115,meters,jsons/MX_seq39_0_VE125.json,190072,608240,28,Man
9,234840,final-intermixed-textured,v2,jsons/MX_seq39_0_VE125.json,http://54.235.29.9/FacialAge/BNav_EC2/DepthDuration/MX_fS_VE_MTurk/MX_fS_HTML.html#197,197,1366,607,1366,768,1-13-2024,15-48-49,10,VR_target_stimuli/s42_0.75x_3.2_301_BC.png,125,0.75x,3.2,0,2648,120,meters,jsons/MX_seq39_0_VE125.json,190072,608240,28,Man
10,234840,final-intermixed-textured,v2,jsons/MX_seq39_0_VE125.json,http://54.235.29.9/FacialAge/BNav_EC2/DepthDuration/MX_fS_VE_MTurk/MX_fS_HTML.html#197,197,1366,607,1366,768,1-13-2024,15-48-49,11,VR_target_stimuli/s25_1x_1.4_290.png,125,1x,1.4,0,2356,123,meters,jsons/MX_seq39_0_VE125.json,190072,608240,28,Man
11,234840,final-intermixed-textured,v2,jsons/MX_seq39_0_VE125.json,http://54.235.29.9/FacialAge/BNav_EC2/DepthDuration/MX_fS_VE_MTurk/MX_fS_HTML.html#197,197,1366,607,1366,768,1-13-2024,15-48-49,12,VR_target_stimuli/s50_1.3x_4.53_518_BC.png,125,1.3x,4.53,4,3077,114,meters,jsons/MX_seq39_0_VE125.json,190072,608240,28,Man
12,234840,final-intermixed-textured,v2,jsons/MX_seq39_0_VE125.json,http://54.235.29.9/FacialAge/BNav_EC2/DepthDuration/MX_fS_VE_MTurk/MX_fS_HTML.html#197,197,1366,607,1366,768,1-13-2024,15-48-49,13,VR_target_stimuli/s53_0.75x_1.6_403.png,125,0.75x,1.6,5,3232,125,meters,jsons/MX_seq39_0_VE125.json,190072,608240,28,Man
13,234840,final-intermixed-textured,v2,jsons/MX_seq39_0_VE125.json,http://54.235.29.9/FacialAge/BNav_EC2/DepthDuration/MX_fS_VE_MTurk/MX_fS_HTML.html#197,197,1366,607,1366,768,1-13-2024,15-48-49,14,VR_target_stimuli/s38_1.3x_3.55_358.png,125,1.3x,3.55,4,2519,114,meters,jsons/MX_seq39_0_VE125.json,190072,608240,28,Man
14,234840,final-intermixed-textured,v2,jsons/MX_seq39_0_VE125.json,http://54.235.29.9/FacialAge/BNav_EC2/DepthDuration/MX_fS_VE_MTurk/MX_fS_HTML.html#197,197,1366,607,1366,768,1-13-2024,15-48-49,15,VR_target_stimuli/s9_1x_1.2_263_BC.png,125,1x,1.2,2,2483,131,meters,jsons/MX_seq39_0_VE125.json,190072,608240,28,Man
15,234840,final-intermixed-textured,v2,jsons/MX_seq39_0_VE125.json,http://54.235.29.9/FacialAge/BNav_EC2/DepthDuration/MX_fS_VE_MTurk/MX_fS_HTML.html#197,197,1366,607,1366,768,1-13-2024,15-48-49,16,VR_target_stimuli/s44_0.75x_4.4_314_BC.png,125,0.75x,4.4,3,2409,127,meters,jsons/MX_seq39_0_VE125.json,190072,608240,28,Man
16,234840,final-intermixed-textured,v2,jsons/MX_seq39_0_VE125.json,http://54.235.29.9/FacialAge/BNav_EC2/DepthDuration/MX_fS_VE_MTurk/MX_fS_HTML.html#197,197,1366,607,1366,768,1-13-2024,15-48-49,17,catch_stimuli/c1.png,125,,,0,2371,132,meters,jsons/MX_seq39_0_VE125.json,190072,608240,28,Man
17,234840,final-intermixed-textured,v2,jsons/MX_seq39_0_VE125.json,http://54.235.29.9/FacialAge/BNav_EC2/DepthDuration/MX_fS_VE_MTurk/MX_fS_HTML.html#197,197,1366,607,1366,768,1-13-2024,15-48-49,18,VR_target_stimuli/s3_0.75x_5_381.png,125,0.75x,5.0,6,3056,122,meters,jsons/MX_seq39_0_VE125.json,190072,608240,28,Man
18,234840,final-intermixed-textured,v2,jsons/MX_seq39_0_VE125.json,http://54.235.29.9/FacialAge/BNav_EC2/DepthDuration/MX_fS_VE_MTurk/MX_fS_HTML.html#197,197,1366,607,1366,768,1-13-2024,15-48-49,19,VR_target_stimuli/s1_1.3x_1.7_261_BC.png,125,1.3x,1.7,3,3431,127,meters,jsons/MX_seq39_0_VE125.json,190072,608240,28,Man
19,234840,final-intermixed-textured,v2,jsons/MX_seq39_0_VE125.json,http://54.235.29.9/FacialAge/BNav_EC2/DepthDuration/MX_fS_VE_MTurk/MX_fS_HTML.html#197,197,1366,607,1366,768,1-13-2024,15-48-49,20,VR_target_stimuli/s11_1x_5_361.png,125,1x,5.0,5,2592,129,meters,jsons/MX_seq39_0_VE125.json,190072,608240,28,Man
20,234840,final-intermixed-textured,v2,jsons/MX_seq39_0_VE125.json,http://54.235.29.9/FacialAge/BNav_EC2/DepthDuration/MX_fS_VE_MTurk/MX_fS_HTML.html#197,197,1366,607,1366,768,1-13-2024,15-48-49,21,VR_target_stimuli/s2_1.3x_2.7_397_BC.png,125,1.3x,2.7,5,2274,129,meters,jsons/MX_seq39_0_VE125.json,190072,608240,28,Man
21,234840,final-intermixed-textured,v2,jsons/MX_seq39_0_VE125.json,http://54.235.29.9/FacialAge/BNav_EC2/DepthDuration/MX_fS_VE_MTurk/MX_fS_HTML.html#197,197,1366,607,1366,768,1-13-2024,15-48-49,22,VR_target_stimuli/s6_0.75x_2.1_290_BC.png,125,0.75x,2.1,3,3434,136,meters,jsons/MX_seq39_0_VE125.json,190072,608240,28,Man
22,234840,final-intermixed-textured,v2,jsons/MX_seq39_0_VE125.json,http://54.235.29.9/FacialAge/BNav_EC2/DepthDuration/MX_fS_VE_MTurk/MX_fS_HTML.html#197,197,1366,607,1366,768,1-13-2024,15-48-49,23,VR_target_stimuli/s0_1x_2.6_351.png,125,1x,2.6,4,2865,123,meters,jsons/MX_seq39_0_VE125.json,190072,608240,28,Man
23,234840,final-intermixed-textured,v2,jsons/MX_seq39_0_VE125.json,http://54.235.29.9/FacialAge/BNav_EC2/DepthDuration/MX_fS_VE_MTurk/MX_fS_HTML.html#197,197,1366,607,1366,768,1-13-2024,15-48-49,24,VR_target_stimuli/s34_0.75x_2.8_269.png,125,0.75x,2.8,4,2687,132,meters,jsons/MX_seq39_0_VE125.json,190072,608240,28,Man
24,234840,final-intermixed-textured,v2,jsons/MX_seq39_0_VE125.json,http://54.235.29.9/FacialAge/BNav_EC2/DepthDuration/MX_fS_VE_MTurk/MX_fS_HTML.html#197,197,1366,607,1366,768,1-13-2024,15-48-49,25,VR_target_stimuli/s13_1.3x_2.4_313.png,125,1.3x,2.4,5,2232,126,meters,jsons/MX_seq39_0_VE125.json,190072,608240,28,Man
25,234840,final-intermixed-textured,v2,jsons/MX_seq39_0_VE125.json,http://54.235.29.9/FacialAge/BNav_EC2/DepthDuration/MX_fS_VE_MTurk/MX_fS_HTML.html#197,197,1366,607,1366,768,1-13-2024,15-48-49,26,catch_stimuli/c2.png,125,,,0,2533,130,meters,jsons/MX_seq39_0_VE125.json,190072,608240,28,Man
26,234840,final-intermixed-textured,v2,jsons/MX_seq39_0_VE125.json,http://54.235.29.9/FacialAge/BNav_EC2/DepthDuration/MX_fS_VE_MTurk/MX_fS_HTML.html#197,197,1366,607,1366,768,1-13-2024,15-48-49,27,VR_target_stimuli/s14_1x_ 3.83_357_BC.png,125,1x,3.83,4,2601,114,meters,jsons/MX_seq39_0_VE125.json,190072,608240,28,Man
27,234840,final-intermixed-textured,v2,jsons/MX_seq39_0_VE125.json,http://54.235.29.9/FacialAge/BNav_EC2/DepthDuration/MX_fS_VE_MTurk/MX_fS_HTML.html#197,197,1366,607,1366,768,1-13-2024,15-48-49,28,VR_target_stimuli/s47_1x_3.45_370_BC.png,125,1x,3.45,3,2403,117,meters,jsons/MX_seq39_0_VE125.json,190072,608240,28,Man
28,234840,final-intermixed-textured,v2,jsons/MX_seq39_0_VE125.json,http://54.235.29.9/FacialAge/BNav_EC2/DepthDuration/MX_fS_VE_MTurk/MX_fS_HTML.html#197,197,1366,607,1366,768,1-13-2024,15-48-49,29,VR_target_stimuli/s29_0.75x_1.3_246_BC.png,125,0.75x,1.3,2,2202,127,meters,jsons/MX_seq39_0_VE125.json,190072,608240,28,Man
29,234840,final-intermixed-textured,v2,jsons/MX_seq39_0_VE125.json,http://54.235.29.9/FacialAge/BNav_EC2/DepthDuration/MX_fS_VE_MTurk/MX_fS_HTML.html#197,197,1366,607,1366,768,1-13-2024,15-48-49,30,VR_target_stimuli/s28_1.3x_3.2_365.png,125,1.3x,3.2,4,2311,131,meters,jsons/MX_seq39_0_VE125.json,190072,608240,28,Man
30,234840,final-intermixed-textured,v2,jsons/MX_seq39_0_VE125.json,http://54.235.29.9/FacialAge/BNav_EC2/DepthDuration/MX_fS_VE_MTurk/MX_fS_HTML.html#197,197,1366,607,1366,768,1-13-2024,15-48-49,31,VR_target_stimuli/s48_1x_2.55_256.png,125,1x,2.55,3,2553,126,meters,jsons/MX_seq39_0_VE125.json,190072,608240,28,Man
31,234840,final-intermixed-textured,v2,jsons/MX_seq39_0_VE125.json,http://54.235.29.9/FacialAge/BNav_EC2/DepthDuration/MX_fS_VE_MTurk/MX_fS_HTML.html#197,197,1366,607,1366,768,1-13-2024,15-48-49,32,VR_target_stimuli/s19_1.3x_1.21_270_BC.png,125,1.3x,1.21,1,2166,126,meters,jsons/MX_seq39_0_VE125.json,190072,608240,28,Man
32,234840,final-intermixed-textured,v2,jsons/MX_seq39_0_VE125.json,http://54.235.29.9/FacialAge/BNav_EC2/DepthDuration/MX_fS_VE_MTurk/MX_fS_HTML.html#197,197,1366,607,1366,768,1-13-2024,15-48-49,33,VR_target_stimuli/s21_0.75x_4.22_374.png,125,0.75x,4.22,3,3200,119,meters,jsons/MX_seq39_0_VE125.json,190072,608240,28,Man
33,234840,final-intermixed-textured,v2,jsons/MX_seq39_0_VE125.json,http://54.235.29.9/FacialAge/BNav_EC2/DepthDuration/MX_fS_VE_MTurk/MX_fS_HTML.html#197,197,1366,607,1366,768,1-13-2024,15-48-49,34,catch_stimuli/c3.png,125,,,0,2603,141,meters,jsons/MX_seq39_0_VE125.json,190072,608240,28,Man
34,234840,final-intermixed-textured,v2,jsons/MX_seq39_0_VE125.json,http://54.235.29.9/FacialAge/BNav_EC2/DepthDuration/MX_fS_VE_MTurk/MX_fS_HTML.html#197,197,1366,607,1366,768,1-13-2024,15-48-49,35,VR_target_stimuli/s8_1.3x_3.1_345.png,125,1.3x,3.1,5,2302,130,meters,jsons/MX_seq39_0_VE125.json,190072,608240,28,Man
35,234840,final-intermixed-textured,v2,jsons/MX_seq39_0_VE125.json,http://54.235.29.9/FacialAge/BNav_EC2/DepthDuration/MX_fS_VE_MTurk/MX_fS_HTML.html#197,197,1366,607,1366,768,1-13-2024,15-48-49,36,VR_target_stimuli/s27_1x_1.76_248.png,125,1x,1.76,3,2357,122,meters,jsons/MX_seq39_0_VE125.json,190072,608240,28,Man
36,234840,final-intermixed-textured,v2,jsons/MX_seq39_0_VE125.json,http://54.235.29.9/FacialAge/BNav_EC2/DepthDuration/MX_fS_VE_MTurk/MX_fS_HTML.html#197,197,1366,607,1366,768,1-13-2024,15-48-49,37,VR_target_stimuli/s15_0.75x_4.2_388.png,125,0.75x,4.2,6,2613,119,meters,jsons/MX_seq39_0_VE125.json,190072,608240,28,Man
37,234840,final-intermixed-textured,v2,jsons/MX_seq39_0_VE125.json,http://54.235.29.9/FacialAge/BNav_EC2/DepthDuration/MX_fS_VE_MTurk/MX_fS_HTML.html#197,197,1366,607,1366,768,1-13-2024,15-48-49,38,VR_target_stimuli/s4_0.75x_1.4_301_BC.png,125,0.75x,1.4,5,2396,126,meters,jsons/MX_seq39_0_VE125.json,190072,608240,28,Man
38,234840,final-intermixed-textured,v2,jsons/MX_seq39_0_VE125.json,http://54.235.29.9/FacialAge/BNav_EC2/DepthDuration/MX_fS_VE_MTurk/MX_fS_HTML.html#197,197,1366,607,1366,768,1-13-2024,15-48-49,39,VR_target_stimuli/s35_1.3x_2_338_BC.png,125,1.3x,2.0,3,2290,128,meters,jsons/MX_seq39_0_VE125.json,190072,608240,28,Man
39,234840,final-intermixed-textured,v2,jsons/MX_seq39_0_VE125.json,http://54.235.29.9/FacialAge/BNav_EC2/DepthDuration/MX_fS_VE_MTurk/MX_fS_HTML.html#197,197,1366,607,1366,768,1-13-2024,15-48-49,40,VR_target_stimuli/s49_1x_4.67_341_BC.png,125,1x,4.67,5,2594,132,meters,jsons/MX_seq39_0_VE125.json,190072,608240,28,Man
40,234840,final-intermixed-textured,v2,jsons/MX_seq39_0_VE125.json,http://54.235.29.9/FacialAge/BNav_EC2/DepthDuration/MX_fS_VE_MTurk/MX_fS_HTML.html#197,197,1366,607,1366,768,1-13-2024,15-48-49,41,VR_target_stimuli/s7_1.3x_1.5_256_BC.png,125,1.3x,1.5,3,2179,131,meters,jsons/MX_seq39_0_VE125.json,190072,608240,28,Man
41,234840,final-intermixed-textured,v2,jsons/MX_seq39_0_VE125.json,http://54.235.29.9/FacialAge/BNav_EC2/DepthDuration/MX_fS_VE_MTurk/MX_fS_HTML.html#197,197,1366,607,1366,768,1-13-2024,15-48-49,42,VR_target_stimuli/s20_0.75x_4.99_390.png,125,0.75x,4.99,6,2568,123,meters,jsons/MX_seq39_0_VE125.json,190072,608240,28,Man
42,234840,final-intermixed-textured,v2,jsons/MX_seq39_0_VE125.json,http://54.235.29.9/FacialAge/BNav_EC2/DepthDuration/MX_fS_VE_MTurk/MX_fS_HTML.html#197,197,1366,607,1366,768,1-13-2024,15-48-49,43,VR_target_stimuli/s31_1x_4.96_333_BC.png,125,1x,4.96,6,2562,133,meters,jsons/MX_seq39_0_VE125.json,190072,608240,28,Man
43,234840,final-intermixed-textured,v2,jsons/MX_seq39_0_VE125.json,http://54.235.29.9/FacialAge/BNav_EC2/DepthDuration/MX_fS_VE_MTurk/MX_fS_HTML.html#197,197,1366,607,1366,768,1-13-2024,15-48-49,44,VR_target_stimuli/s33_0.75x_3.1_361_BC.png,125,0.75x,3.1,5,2338,126,meters,jsons/MX_seq39_0_VE125.json,190072,608240,28,Man
44,234840,final-intermixed-textured,v2,jsons/MX_seq39_0_VE125.json,http://54.235.29.9/FacialAge/BNav_EC2/DepthDuration/MX_fS_VE_MTurk/MX_fS_HTML.html#197,197,1366,607,1366,768,1-13-2024,15-48-49,45,catch_stimuli/c4.png,125,,,0,2433,130,meters,jsons/MX_seq39_0_VE125.json,190072,608240,28,Man
45,234840,final-intermixed-textured,v2,jsons/MX_seq39_0_VE125.json,http://54.235.29.9/FacialAge/BNav_EC2/DepthDuration/MX_fS_VE_MTurk/MX_fS_HTML.html#197,197,1366,607,1366,768,1-13-2024,15-48-49,46,VR_target_stimuli/s52_1.3x_3.2_280.png,125,1.3x,3.2,4,2307,130,meters,jsons/MX_seq39_0_VE125.json,190072,608240,28,Man
46,234840,final-intermixed-textured,v2,jsons/MX_seq39_0_VE125.json,http://54.235.29.9/FacialAge/BNav_EC2/DepthDuration/MX_fS_VE_MTurk/MX_fS_HTML.html#197,197,1366,607,1366,768,1-13-2024,15-48-49,47,VR_target_stimuli/s32_1x_1.5_218.png,125,1x,1.5,4,2529,114,meters,jsons/MX_seq39_0_VE125.json,190072,608240,28,Man
47,234840,final-intermixed-textured,v2,jsons/MX_seq39_0_VE125.json,http://54.235.29.9/FacialAge/BNav_EC2/DepthDuration/MX_fS_VE_MTurk/MX_fS_HTML.html#197,197,1366,607,1366,768,1-13-2024,15-48-49,48,VR_target_stimuli/s18_1x_2.25_353_BC.png,125,1x,2.25,4,2166,132,meters,jsons/MX_seq39_0_VE125.json,190072,608240,28,Man
48,234840,final-intermixed-textured,v2,jsons/MX_seq39_0_VE125.json,http://54.235.29.9/FacialAge/BNav_EC2/DepthDuration/MX_fS_VE_MTurk/MX_fS_HTML.html#197,197,1366,607,1366,768,1-13-2024,15-48-49,49,VR_target_stimuli/s39_0.75x_1_205.png,125,0.75x,1.0,5,2832,114,meters,jsons/MX_seq39_0_VE125.json,190072,608240,28,Man
49,234840,final-intermixed-textured,v2,jsons/MX_seq39_0_VE125.json,http://54.235.29.9/FacialAge/BNav_EC2/DepthDuration/MX_fS_VE_MTurk/MX_fS_HTML.html#197,197,1366,607,1366,768,1-13-2024,15-48-49,50,VR_target_stimuli/s51_1.3x_3.64_479_BC.png,125,1.3x,3.64,3,2597,131,meters,jsons/MX_seq39_0_VE125.json,190072,608240,28,Man
50,234840,final-intermixed-textured,v2,jsons/MX_seq39_0_VE125.json,http://54.235.29.9/FacialAge/BNav_EC2/DepthDuration/MX_fS_VE_MTurk/MX_fS_HTML.html#197,197,1366,607,1366,768,1-13-2024,15-48-49,51,VR_target_stimuli/s43_0.75x_2.2_348_BC.png,125,0.75x,2.2,3,2600,128,meters,jsons/MX_seq39_0_VE125.json,190072,608240,28,Man
51,234840,final-intermixed-textured,v2,jsons/MX_seq39_0_VE125.json,http://54.235.29.9/FacialAge/BNav_EC2/DepthDuration/MX_fS_VE_MTurk/MX_fS_HTML.html#197,197,1366,607,1366,768,1-13-2024,15-48-49,52,VR_target_stimuli/s24_1x_3.3_349.png,125,1x,3.3,4,2855,125,meters,jsons/MX_seq39_0_VE125.json,190072,608240,28,Man
52,234840,final-intermixed-textured,v2,jsons/MX_seq39_0_VE125.json,http://54.235.29.9/FacialAge/BNav_EC2/DepthDuration/MX_fS_VE_MTurk/MX_fS_HTML.html#197,197,1366,607,1366,768,1-13-2024,15-48-49,53,catch_stimuli/c5.png,125,,,0,2367,128,meters,jsons/MX_seq39_0_VE125.json,190072,608240,28,Man
53,234840,final-intermixed-textured,v2,jsons/MX_seq39_0_VE125.json,http://54.235.29.9/FacialAge/BNav_EC2/DepthDuration/MX_fS_VE_MTurk/MX_fS_HTML.html#197,197,1366,607,1366,768,1-13-2024,15-48-49,54,VR_target_stimuli/s10_1.3x_2.7_325.png,125,1.3x,2.7,0,1988,130,meters,jsons/MX_seq39_0_VE125.json,190072,608240,28,Man
54,234840,final-intermixed-textured,v2,jsons/MX_seq39_0_VE125.json,http://54.235.29.9/FacialAge/BNav_EC2/DepthDuration/MX_fS_VE_MTurk/MX_fS_HTML.html#197,197,1366,607,1366,768,1-13-2024,15-48-49,55,VR_target_stimuli/s36_1x_4.1_423_BC.png,125,1x,4.1,6,2398,127,meters,jsons/MX_seq39_0_VE125.json,190072,608240,28,Man
55,234840,final-intermixed-textured,v2,jsons/MX_seq39_0_VE125.json,http://54.235.29.9/FacialAge/BNav_EC2/DepthDuration/MX_fS_VE_MTurk/MX_fS_HTML.html#197,197,1366,607,1366,768,1-13-2024,15-48-49,56,VR_target_stimuli/s40_0.75x_1.2_308_BC.png,125,0.75x,1.2,4,2794,137,meters,jsons/MX_seq39_0_VE125.json,190072,608240,28,Man
56,234840,final-intermixed-textured,v2,jsons/MX_seq39_0_VE125.json,http://54.235.29.9/FacialAge/BNav_EC2/DepthDuration/MX_fS_VE_MTurk/MX_fS_HTML.html#197,197,1366,607,1366,768,1-13-2024,15-48-49,57,VR_target_stimuli/s41_1.3x_2.1_294.png,125,1.3x,2.1,0,2644,129,meters,jsons/MX_seq39_0_VE125.json,190072,608240,28,Man
57,234840,final-intermixed-textured,v2,jsons/MX_seq39_0_VE125.json,http://54.235.29.9/FacialAge/BNav_EC2/DepthDuration/MX_fS_VE_MTurk/MX_fS_HTML.html#197,197,1366,607,1366,768,1-13-2024,15-48-49,58,VR_target_stimuli/s45_1.3x_3.5_377_BC.png,125,1.3x,3.5,4,2578,129,meters,jsons/MX_seq39_0_VE125.json,190072,608240,28,Man
58,234840,final-intermixed-textured,v2,jsons/MX_seq39_0_VE125.json,http://54.235.29.9/FacialAge/BNav_EC2/DepthDuration/MX_fS_VE_MTurk/MX_fS_HTML.html#197,197,1366,607,1366,768,1-13-2024,15-48-49,59,VR_target_stimuli/s23_1x_3.65_353.png,125,1x,3.65,0,2396,112,meters,jsons/MX_seq39_0_VE125.json,190072,608240,28,Man
59,234840,final-intermixed-textured,v2,jsons/MX_seq39_0_VE125.json,http://54.235.29.9/FacialAge/BNav_EC2/DepthDuration/MX_fS_VE_MTurk/MX_fS_HTML.html#197,197,1366,607,1366,768,1-13-2024,15-48-49,60,VR_target_stimuli/s26_0.75x_4_430.png,125,0.75x,4.0,0,2622,115,meters,jsons/MX_seq39_0_VE125.json,190072,608240,28,Man
