,subjID,experimentName,versionName,sequenceName,url,selected_row,windowWidth,windowHeight,screenWidth,screenHeight,startDate,startTime,trial,stimulus,duration,scale,actual_depth,depth_estimate,trial_RT,log_sceneDuration,unitSelection,seq_filepath,experimentTime,totalTime,age,gender
0,244101,final-intermixed-textured,v2,jsons/MX_seq53_2_VE125.json,http://54.235.29.9/FacialAge/BNav_EC2/DepthDuration/MX_fS_VE_MTurk/MX_fS_HTML.html#146,146,1872,958,1920,1080,1-12-2024,22-40-44,1,VR_target_stimuli/s44_1x_4.4_317.png,125,1x,4.4,6,3933,125,meters,jsons/MX_seq53_2_VE125.json,214751,340431,29,Woman
1,244101,final-intermixed-textured,v2,jsons/MX_seq53_2_VE125.json,http://54.235.29.9/FacialAge/BNav_EC2/DepthDuration/MX_fS_VE_MTurk/MX_fS_HTML.html#146,146,1872,958,1920,1080,1-12-2024,22-40-44,2,VR_target_stimuli/s3_1.3x_5_390.png,125,1.3x,5.0,8,3349,123,meters,jsons/MX_seq53_2_VE125.json,214751,340431,29,Woman
2,244101,final-intermixed-textured,v2,jsons/MX_seq53_2_VE125.json,http://54.235.29.9/FacialAge/BNav_EC2/DepthDuration/MX_fS_VE_MTurk/MX_fS_HTML.html#146,146,1872,958,1920,1080,1-12-2024,22-40-44,3,VR_target_stimuli/s1_0.75x_1.7_265.png,125,0.75x,1.7,3,3658,125,meters,jsons/MX_seq53_2_VE125.json,214751,340431,29,Woman
3,244101,final-intermixed-textured,v2,jsons/MX_seq53_2_VE125.json,http://54.235.29.9/FacialAge/BNav_EC2/DepthDuration/MX_fS_VE_MTurk/MX_fS_HTML.html#146,146,1872,958,1920,1080,1-12-2024,22-40-44,4,VR_target_stimuli/s11_1.3x_5_363_BC.png,125,1.3x,5.0,8,3151,124,meters,jsons/MX_seq53_2_VE125.json,214751,340431,29,Woman
4,244101,final-intermixed-textured,v2,jsons/MX_seq53_2_VE125.json,http://54.235.29.9/FacialAge/BNav_EC2/DepthDuration/MX_fS_VE_MTurk/MX_fS_HTML.html#146,146,1872,958,1920,1080,1-12-2024,22-40-44,5,VR_target_stimuli/s2_1x_2.7_390_BC.png,125,1x,2.7,4,3791,124,meters,jsons/MX_seq53_2_VE125.json,214751,340431,29,Woman
5,244101,final-intermixed-textured,v2,jsons/MX_seq53_2_VE125.json,http://54.235.29.9/FacialAge/BNav_EC2/DepthDuration/MX_fS_VE_MTurk/MX_fS_HTML.html#146,146,1872,958,1920,1080,1-12-2024,22-40-44,6,VR_target_stimuli/s6_0.75x_2.1_290_BC.png,125,0.75x,2.1,5,3120,124,meters,jsons/MX_seq53_2_VE125.json,214751,340431,29,Woman
6,244101,final-intermixed-textured,v2,jsons/MX_seq53_2_VE125.json,http://54.235.29.9/FacialAge/BNav_EC2/DepthDuration/MX_fS_VE_MTurk/MX_fS_HTML.html#146,146,1872,958,1920,1080,1-12-2024,22-40-44,7,catch_stimuli/c0.png,125,,,0,3339,125,meters,jsons/MX_seq53_2_VE125.json,214751,340431,29,Woman
7,244101,final-intermixed-textured,v2,jsons/MX_seq53_2_VE125.json,http://54.235.29.9/FacialAge/BNav_EC2/DepthDuration/MX_fS_VE_MTurk/MX_fS_HTML.html#146,146,1872,958,1920,1080,1-12-2024,22-40-44,8,VR_target_stimuli/s0_0.75x_2.6_345_BC.png,125,0.75x,2.6,4,2989,123,meters,jsons/MX_seq53_2_VE125.json,214751,340431,29,Woman
8,244101,final-intermixed-textured,v2,jsons/MX_seq53_2_VE125.json,http://54.235.29.9/FacialAge/BNav_EC2/DepthDuration/MX_fS_VE_MTurk/MX_fS_HTML.html#146,146,1872,958,1920,1080,1-12-2024,22-40-44,9,VR_target_stimuli/s34_1.3x_2.8_294.png,125,1.3x,2.8,6,3250,124,meters,jsons/MX_seq53_2_VE125.json,214751,340431,29,Woman
9,244101,final-intermixed-textured,v2,jsons/MX_seq53_2_VE125.json,http://54.235.29.9/FacialAge/BNav_EC2/DepthDuration/MX_fS_VE_MTurk/MX_fS_HTML.html#146,146,1872,958,1920,1080,1-12-2024,22-40-44,10,VR_target_stimuli/s13_1x_2.4_310_BC.png,125,1x,2.4,5,3085,128,meters,jsons/MX_seq53_2_VE125.json,214751,340431,29,Woman
10,244101,final-intermixed-textured,v2,jsons/MX_seq53_2_VE125.json,http://54.235.29.9/FacialAge/BNav_EC2/DepthDuration/MX_fS_VE_MTurk/MX_fS_HTML.html#146,146,1872,958,1920,1080,1-12-2024,22-40-44,11,VR_target_stimuli/s14_1.3x_3.83_359_BC.png,125,1.3x,3.83,6,2837,126,meters,jsons/MX_seq53_2_VE125.json,214751,340431,29,Woman
11,244101,final-intermixed-textured,v2,jsons/MX_seq53_2_VE125.json,http://54.235.29.9/FacialAge/BNav_EC2/DepthDuration/MX_fS_VE_MTurk/MX_fS_HTML.html#146,146,1872,958,1920,1080,1-12-2024,22-40-44,12,VR_target_stimuli/s47_0.75x_3.45_366.png,125,0.75x,3.45,5,4264,125,meters,jsons/MX_seq53_2_VE125.json,214751,340431,29,Woman
12,244101,final-intermixed-textured,v2,jsons/MX_seq53_2_VE125.json,http://54.235.29.9/FacialAge/BNav_EC2/DepthDuration/MX_fS_VE_MTurk/MX_fS_HTML.html#146,146,1872,958,1920,1080,1-12-2024,22-40-44,13,VR_target_stimuli/s29_1x_1.3_250.png,125,1x,1.3,4,3335,121,meters,jsons/MX_seq53_2_VE125.json,214751,340431,29,Woman
13,244101,final-intermixed-textured,v2,jsons/MX_seq53_2_VE125.json,http://54.235.29.9/FacialAge/BNav_EC2/DepthDuration/MX_fS_VE_MTurk/MX_fS_HTML.html#146,146,1872,958,1920,1080,1-12-2024,22-40-44,14,VR_target_stimuli/s28_0.75x_3.2_357_BC.png,125,0.75x,3.2,4,3096,125,meters,jsons/MX_seq53_2_VE125.json,214751,340431,29,Woman
14,244101,final-intermixed-textured,v2,jsons/MX_seq53_2_VE125.json,http://54.235.29.9/FacialAge/BNav_EC2/DepthDuration/MX_fS_VE_MTurk/MX_fS_HTML.html#146,146,1872,958,1920,1080,1-12-2024,22-40-44,15,VR_target_stimuli/s48_1.3x_2.55_255_BC.png,125,1.3x,2.55,5,3027,126,meters,jsons/MX_seq53_2_VE125.json,214751,340431,29,Woman
15,244101,final-intermixed-textured,v2,jsons/MX_seq53_2_VE125.json,http://54.235.29.9/FacialAge/BNav_EC2/DepthDuration/MX_fS_VE_MTurk/MX_fS_HTML.html#146,146,1872,958,1920,1080,1-12-2024,22-40-44,16,VR_target_stimuli/s19_1x_1.21_263.png,125,1x,1.21,3,3073,125,meters,jsons/MX_seq53_2_VE125.json,214751,340431,29,Woman
16,244101,final-intermixed-textured,v2,jsons/MX_seq53_2_VE125.json,http://54.235.29.9/FacialAge/BNav_EC2/DepthDuration/MX_fS_VE_MTurk/MX_fS_HTML.html#146,146,1872,958,1920,1080,1-12-2024,22-40-44,17,catch_stimuli/c1.png,125,,,0,2833,111,meters,jsons/MX_seq53_2_VE125.json,214751,340431,29,Woman
17,244101,final-intermixed-textured,v2,jsons/MX_seq53_2_VE125.json,http://54.235.29.9/FacialAge/BNav_EC2/DepthDuration/MX_fS_VE_MTurk/MX_fS_HTML.html#146,146,1872,958,1920,1080,1-12-2024,22-40-44,18,VR_target_stimuli/s21_1x_4.22_379_BC.png,125,1x,4.22,4,7478,125,meters,jsons/MX_seq53_2_VE125.json,214751,340431,29,Woman
18,244101,final-intermixed-textured,v2,jsons/MX_seq53_2_VE125.json,http://54.235.29.9/FacialAge/BNav_EC2/DepthDuration/MX_fS_VE_MTurk/MX_fS_HTML.html#146,146,1872,958,1920,1080,1-12-2024,22-40-44,19,VR_target_stimuli/s8_0.75x_3.1_325.png,125,0.75x,3.1,5,3022,126,meters,jsons/MX_seq53_2_VE125.json,214751,340431,29,Woman
19,244101,final-intermixed-textured,v2,jsons/MX_seq53_2_VE125.json,http://54.235.29.9/FacialAge/BNav_EC2/DepthDuration/MX_fS_VE_MTurk/MX_fS_HTML.html#146,146,1872,958,1920,1080,1-12-2024,22-40-44,20,VR_target_stimuli/s27_1.3x_1.76_250.png,125,1.3x,1.76,5,2793,140,meters,jsons/MX_seq53_2_VE125.json,214751,340431,29,Woman
20,244101,final-intermixed-textured,v2,jsons/MX_seq53_2_VE125.json,http://54.235.29.9/FacialAge/BNav_EC2/DepthDuration/MX_fS_VE_MTurk/MX_fS_HTML.html#146,146,1872,958,1920,1080,1-12-2024,22-40-44,21,VR_target_stimuli/s15_0.75x_4.2_388.png,125,0.75x,4.2,8,2769,134,meters,jsons/MX_seq53_2_VE125.json,214751,340431,29,Woman
21,244101,final-intermixed-textured,v2,jsons/MX_seq53_2_VE125.json,http://54.235.29.9/FacialAge/BNav_EC2/DepthDuration/MX_fS_VE_MTurk/MX_fS_HTML.html#146,146,1872,958,1920,1080,1-12-2024,22-40-44,22,VR_target_stimuli/s4_1x_1.4_313_BC.png,125,1x,1.4,4,3315,123,meters,jsons/MX_seq53_2_VE125.json,214751,340431,29,Woman
22,244101,final-intermixed-textured,v2,jsons/MX_seq53_2_VE125.json,http://54.235.29.9/FacialAge/BNav_EC2/DepthDuration/MX_fS_VE_MTurk/MX_fS_HTML.html#146,146,1872,958,1920,1080,1-12-2024,22-40-44,23,VR_target_stimuli/s35_1.3x_2_338_BC.png,125,1.3x,2.0,5,2760,125,meters,jsons/MX_seq53_2_VE125.json,214751,340431,29,Woman
23,244101,final-intermixed-textured,v2,jsons/MX_seq53_2_VE125.json,http://54.235.29.9/FacialAge/BNav_EC2/DepthDuration/MX_fS_VE_MTurk/MX_fS_HTML.html#146,146,1872,958,1920,1080,1-12-2024,22-40-44,24,VR_target_stimuli/s49_1x_4.67_341.png,125,1x,4.67,9,3105,124,meters,jsons/MX_seq53_2_VE125.json,214751,340431,29,Woman
24,244101,final-intermixed-textured,v2,jsons/MX_seq53_2_VE125.json,http://54.235.29.9/FacialAge/BNav_EC2/DepthDuration/MX_fS_VE_MTurk/MX_fS_HTML.html#146,146,1872,958,1920,1080,1-12-2024,22-40-44,25,VR_target_stimuli/s7_0.75x_1.5_253_BC.png,125,0.75x,1.5,6,3123,124,meters,jsons/MX_seq53_2_VE125.json,214751,340431,29,Woman
25,244101,final-intermixed-textured,v2,jsons/MX_seq53_2_VE125.json,http://54.235.29.9/FacialAge/BNav_EC2/DepthDuration/MX_fS_VE_MTurk/MX_fS_HTML.html#146,146,1872,958,1920,1080,1-12-2024,22-40-44,26,catch_stimuli/c2.png,125,,,0,3764,123,meters,jsons/MX_seq53_2_VE125.json,214751,340431,29,Woman
26,244101,final-intermixed-textured,v2,jsons/MX_seq53_2_VE125.json,http://54.235.29.9/FacialAge/BNav_EC2/DepthDuration/MX_fS_VE_MTurk/MX_fS_HTML.html#146,146,1872,958,1920,1080,1-12-2024,22-40-44,27,VR_target_stimuli/s20_1.3x_4.99_412.png,125,1.3x,4.99,7,3179,126,meters,jsons/MX_seq53_2_VE125.json,214751,340431,29,Woman
27,244101,final-intermixed-textured,v2,jsons/MX_seq53_2_VE125.json,http://54.235.29.9/FacialAge/BNav_EC2/DepthDuration/MX_fS_VE_MTurk/MX_fS_HTML.html#146,146,1872,958,1920,1080,1-12-2024,22-40-44,28,VR_target_stimuli/s31_1.3x_4.96_342_BC.png,125,1.3x,4.96,6,2655,112,meters,jsons/MX_seq53_2_VE125.json,214751,340431,29,Woman
28,244101,final-intermixed-textured,v2,jsons/MX_seq53_2_VE125.json,http://54.235.29.9/FacialAge/BNav_EC2/DepthDuration/MX_fS_VE_MTurk/MX_fS_HTML.html#146,146,1872,958,1920,1080,1-12-2024,22-40-44,29,VR_target_stimuli/s33_1x_3.1_366.png,125,1x,3.1,6,2730,125,meters,jsons/MX_seq53_2_VE125.json,214751,340431,29,Woman
29,244101,final-intermixed-textured,v2,jsons/MX_seq53_2_VE125.json,http://54.235.29.9/FacialAge/BNav_EC2/DepthDuration/MX_fS_VE_MTurk/MX_fS_HTML.html#146,146,1872,958,1920,1080,1-12-2024,22-40-44,30,VR_target_stimuli/s52_0.75x_3.2_270_BC.png,125,0.75x,3.2,8,2754,125,meters,jsons/MX_seq53_2_VE125.json,214751,340431,29,Woman
30,244101,final-intermixed-textured,v2,jsons/MX_seq53_2_VE125.json,http://54.235.29.9/FacialAge/BNav_EC2/DepthDuration/MX_fS_VE_MTurk/MX_fS_HTML.html#146,146,1872,958,1920,1080,1-12-2024,22-40-44,31,VR_target_stimuli/s32_1.3x_1.5_224.png,125,1.3x,1.5,6,3294,124,meters,jsons/MX_seq53_2_VE125.json,214751,340431,29,Woman
31,244101,final-intermixed-textured,v2,jsons/MX_seq53_2_VE125.json,http://54.235.29.9/FacialAge/BNav_EC2/DepthDuration/MX_fS_VE_MTurk/MX_fS_HTML.html#146,146,1872,958,1920,1080,1-12-2024,22-40-44,32,VR_target_stimuli/s18_0.75x_2.25_341.png,125,0.75x,2.25,4,2807,125,meters,jsons/MX_seq53_2_VE125.json,214751,340431,29,Woman
32,244101,final-intermixed-textured,v2,jsons/MX_seq53_2_VE125.json,http://54.235.29.9/FacialAge/BNav_EC2/DepthDuration/MX_fS_VE_MTurk/MX_fS_HTML.html#146,146,1872,958,1920,1080,1-12-2024,22-40-44,33,VR_target_stimuli/s39_1x_1_207_BC.png,125,1x,1.0,2,2808,124,meters,jsons/MX_seq53_2_VE125.json,214751,340431,29,Woman
33,244101,final-intermixed-textured,v2,jsons/MX_seq53_2_VE125.json,http://54.235.29.9/FacialAge/BNav_EC2/DepthDuration/MX_fS_VE_MTurk/MX_fS_HTML.html#146,146,1872,958,1920,1080,1-12-2024,22-40-44,34,catch_stimuli/c3.png,125,,,0,2666,125,meters,jsons/MX_seq53_2_VE125.json,214751,340431,29,Woman
34,244101,final-intermixed-textured,v2,jsons/MX_seq53_2_VE125.json,http://54.235.29.9/FacialAge/BNav_EC2/DepthDuration/MX_fS_VE_MTurk/MX_fS_HTML.html#146,146,1872,958,1920,1080,1-12-2024,22-40-44,35,VR_target_stimuli/s51_0.75x_3.64_460_BC.png,125,0.75x,3.64,4,2767,126,meters,jsons/MX_seq53_2_VE125.json,214751,340431,29,Woman
35,244101,final-intermixed-textured,v2,jsons/MX_seq53_2_VE125.json,http://54.235.29.9/FacialAge/BNav_EC2/DepthDuration/MX_fS_VE_MTurk/MX_fS_HTML.html#146,146,1872,958,1920,1080,1-12-2024,22-40-44,36,VR_target_stimuli/s43_1.3x_2.2_363.png,125,1.3x,2.2,5,2740,124,meters,jsons/MX_seq53_2_VE125.json,214751,340431,29,Woman
36,244101,final-intermixed-textured,v2,jsons/MX_seq53_2_VE125.json,http://54.235.29.9/FacialAge/BNav_EC2/DepthDuration/MX_fS_VE_MTurk/MX_fS_HTML.html#146,146,1872,958,1920,1080,1-12-2024,22-40-44,37,VR_target_stimuli/s24_1x_3.3_349_BC.png,125,1x,3.3,5,2916,123,meters,jsons/MX_seq53_2_VE125.json,214751,340431,29,Woman
37,244101,final-intermixed-textured,v2,jsons/MX_seq53_2_VE125.json,http://54.235.29.9/FacialAge/BNav_EC2/DepthDuration/MX_fS_VE_MTurk/MX_fS_HTML.html#146,146,1872,958,1920,1080,1-12-2024,22-40-44,38,VR_target_stimuli/s10_1x_2.7_324.png,125,1x,2.7,7,2815,126,meters,jsons/MX_seq53_2_VE125.json,214751,340431,29,Woman
38,244101,final-intermixed-textured,v2,jsons/MX_seq53_2_VE125.json,http://54.235.29.9/FacialAge/BNav_EC2/DepthDuration/MX_fS_VE_MTurk/MX_fS_HTML.html#146,146,1872,958,1920,1080,1-12-2024,22-40-44,39,VR_target_stimuli/s36_0.75x_4.1_407.png,125,0.75x,4.1,7,2775,125,meters,jsons/MX_seq53_2_VE125.json,214751,340431,29,Woman
39,244101,final-intermixed-textured,v2,jsons/MX_seq53_2_VE125.json,http://54.235.29.9/FacialAge/BNav_EC2/DepthDuration/MX_fS_VE_MTurk/MX_fS_HTML.html#146,146,1872,958,1920,1080,1-12-2024,22-40-44,40,VR_target_stimuli/s40_1.3x_1.2_332_BC.png,125,1.3x,1.2,5,2712,125,meters,jsons/MX_seq53_2_VE125.json,214751,340431,29,Woman
40,244101,final-intermixed-textured,v2,jsons/MX_seq53_2_VE125.json,http://54.235.29.9/FacialAge/BNav_EC2/DepthDuration/MX_fS_VE_MTurk/MX_fS_HTML.html#146,146,1872,958,1920,1080,1-12-2024,22-40-44,41,VR_target_stimuli/s41_0.75x_2.1_281.png,125,0.75x,2.1,4,2874,124,meters,jsons/MX_seq53_2_VE125.json,214751,340431,29,Woman
41,244101,final-intermixed-textured,v2,jsons/MX_seq53_2_VE125.json,http://54.235.29.9/FacialAge/BNav_EC2/DepthDuration/MX_fS_VE_MTurk/MX_fS_HTML.html#146,146,1872,958,1920,1080,1-12-2024,22-40-44,42,VR_target_stimuli/s45_1x_3.5_368.png,125,1x,3.5,6,2763,124,meters,jsons/MX_seq53_2_VE125.json,214751,340431,29,Woman
42,244101,final-intermixed-textured,v2,jsons/MX_seq53_2_VE125.json,http://54.235.29.9/FacialAge/BNav_EC2/DepthDuration/MX_fS_VE_MTurk/MX_fS_HTML.html#146,146,1872,958,1920,1080,1-12-2024,22-40-44,43,VR_target_stimuli/s23_1.3x_3.65_354_BC.png,125,1.3x,3.65,5,2591,126,meters,jsons/MX_seq53_2_VE125.json,214751,340431,29,Woman
43,244101,final-intermixed-textured,v2,jsons/MX_seq53_2_VE125.json,http://54.235.29.9/FacialAge/BNav_EC2/DepthDuration/MX_fS_VE_MTurk/MX_fS_HTML.html#146,146,1872,958,1920,1080,1-12-2024,22-40-44,44,VR_target_stimuli/s26_1x_4_433_BC.png,125,1x,4.0,8,2802,124,meters,jsons/MX_seq53_2_VE125.json,214751,340431,29,Woman
44,244101,final-intermixed-textured,v2,jsons/MX_seq53_2_VE125.json,http://54.235.29.9/FacialAge/BNav_EC2/DepthDuration/MX_fS_VE_MTurk/MX_fS_HTML.html#146,146,1872,958,1920,1080,1-12-2024,22-40-44,45,catch_stimuli/c4.png,125,,,0,2868,125,meters,jsons/MX_seq53_2_VE125.json,214751,340431,29,Woman
45,244101,final-intermixed-textured,v2,jsons/MX_seq53_2_VE125.json,http://54.235.29.9/FacialAge/BNav_EC2/DepthDuration/MX_fS_VE_MTurk/MX_fS_HTML.html#146,146,1872,958,1920,1080,1-12-2024,22-40-44,46,VR_target_stimuli/s12_0.75x_3.1_364_BC.png,125,0.75x,3.1,4,2875,123,meters,jsons/MX_seq53_2_VE125.json,214751,340431,29,Woman
46,244101,final-intermixed-textured,v2,jsons/MX_seq53_2_VE125.json,http://54.235.29.9/FacialAge/BNav_EC2/DepthDuration/MX_fS_VE_MTurk/MX_fS_HTML.html#146,146,1872,958,1920,1080,1-12-2024,22-40-44,47,VR_target_stimuli/s30_1.3x_2.3_337.png,125,1.3x,2.3,5,2720,124,meters,jsons/MX_seq53_2_VE125.json,214751,340431,29,Woman
47,244101,final-intermixed-textured,v2,jsons/MX_seq53_2_VE125.json,http://54.235.29.9/FacialAge/BNav_EC2/DepthDuration/MX_fS_VE_MTurk/MX_fS_HTML.html#146,146,1872,958,1920,1080,1-12-2024,22-40-44,48,VR_target_stimuli/s16_1.3x_1_223_BC.png,125,1.3x,1.0,3,3088,125,meters,jsons/MX_seq53_2_VE125.json,214751,340431,29,Woman
48,244101,final-intermixed-textured,v2,jsons/MX_seq53_2_VE125.json,http://54.235.29.9/FacialAge/BNav_EC2/DepthDuration/MX_fS_VE_MTurk/MX_fS_HTML.html#146,146,1872,958,1920,1080,1-12-2024,22-40-44,49,VR_target_stimuli/s17_1x_1.8_291_BC.png,125,1x,1.8,4,2584,126,meters,jsons/MX_seq53_2_VE125.json,214751,340431,29,Woman
49,244101,final-intermixed-textured,v2,jsons/MX_seq53_2_VE125.json,http://54.235.29.9/FacialAge/BNav_EC2/DepthDuration/MX_fS_VE_MTurk/MX_fS_HTML.html#146,146,1872,958,1920,1080,1-12-2024,22-40-44,50,VR_target_stimuli/s5_0.75x_4_375.png,125,0.75x,4.0,5,2819,125,meters,jsons/MX_seq53_2_VE125.json,214751,340431,29,Woman
50,244101,final-intermixed-textured,v2,jsons/MX_seq53_2_VE125.json,http://54.235.29.9/FacialAge/BNav_EC2/DepthDuration/MX_fS_VE_MTurk/MX_fS_HTML.html#146,146,1872,958,1920,1080,1-12-2024,22-40-44,51,VR_target_stimuli/s37_1x_3.3_563.png,125,1x,3.3,3,2966,127,meters,jsons/MX_seq53_2_VE125.json,214751,340431,29,Woman
51,244101,final-intermixed-textured,v2,jsons/MX_seq53_2_VE125.json,http://54.235.29.9/FacialAge/BNav_EC2/DepthDuration/MX_fS_VE_MTurk/MX_fS_HTML.html#146,146,1872,958,1920,1080,1-12-2024,22-40-44,52,VR_target_stimuli/s46_1.3x_2.42_354.png,125,1.3x,2.42,4,3127,123,meters,jsons/MX_seq53_2_VE125.json,214751,340431,29,Woman
52,244101,final-intermixed-textured,v2,jsons/MX_seq53_2_VE125.json,http://54.235.29.9/FacialAge/BNav_EC2/DepthDuration/MX_fS_VE_MTurk/MX_fS_HTML.html#146,146,1872,958,1920,1080,1-12-2024,22-40-44,53,catch_stimuli/c5.png,125,,,0,2490,123,meters,jsons/MX_seq53_2_VE125.json,214751,340431,29,Woman
53,244101,final-intermixed-textured,v2,jsons/MX_seq53_2_VE125.json,http://54.235.29.9/FacialAge/BNav_EC2/DepthDuration/MX_fS_VE_MTurk/MX_fS_HTML.html#146,146,1872,958,1920,1080,1-12-2024,22-40-44,54,VR_target_stimuli/s22_0.75x_4.29_348_BC.png,125,0.75x,4.29,3,2855,124,meters,jsons/MX_seq53_2_VE125.json,214751,340431,29,Woman
54,244101,final-intermixed-textured,v2,jsons/MX_seq53_2_VE125.json,http://54.235.29.9/FacialAge/BNav_EC2/DepthDuration/MX_fS_VE_MTurk/MX_fS_HTML.html#146,146,1872,958,1920,1080,1-12-2024,22-40-44,55,VR_target_stimuli/s42_1.3x_3.2_305_BC.png,125,1.3x,3.2,5,2585,125,meters,jsons/MX_seq53_2_VE125.json,214751,340431,29,Woman
55,244101,final-intermixed-textured,v2,jsons/MX_seq53_2_VE125.json,http://54.235.29.9/FacialAge/BNav_EC2/DepthDuration/MX_fS_VE_MTurk/MX_fS_HTML.html#146,146,1872,958,1920,1080,1-12-2024,22-40-44,56,VR_target_stimuli/s25_1x_1.4_290_BC.png,125,1x,1.4,3,2560,137,meters,jsons/MX_seq53_2_VE125.json,214751,340431,29,Woman
56,244101,final-intermixed-textured,v2,jsons/MX_seq53_2_VE125.json,http://54.235.29.9/FacialAge/BNav_EC2/DepthDuration/MX_fS_VE_MTurk/MX_fS_HTML.html#146,146,1872,958,1920,1080,1-12-2024,22-40-44,57,VR_target_stimuli/s50_0.75x_4.53_517.png,125,0.75x,4.53,5,2643,113,meters,jsons/MX_seq53_2_VE125.json,214751,340431,29,Woman
57,244101,final-intermixed-textured,v2,jsons/MX_seq53_2_VE125.json,http://54.235.29.9/FacialAge/BNav_EC2/DepthDuration/MX_fS_VE_MTurk/MX_fS_HTML.html#146,146,1872,958,1920,1080,1-12-2024,22-40-44,58,VR_target_stimuli/s53_0.75x_1.6_403_BC.png,125,0.75x,1.6,2,3206,126,meters,jsons/MX_seq53_2_VE125.json,214751,340431,29,Woman
58,244101,final-intermixed-textured,v2,jsons/MX_seq53_2_VE125.json,http://54.235.29.9/FacialAge/BNav_EC2/DepthDuration/MX_fS_VE_MTurk/MX_fS_HTML.html#146,146,1872,958,1920,1080,1-12-2024,22-40-44,59,VR_target_stimuli/s38_1.3x_3.55_358.png,125,1.3x,3.55,6,3032,125,meters,jsons/MX_seq53_2_VE125.json,214751,340431,29,Woman
59,244101,final-intermixed-textured,v2,jsons/MX_seq53_2_VE125.json,http://54.235.29.9/FacialAge/BNav_EC2/DepthDuration/MX_fS_VE_MTurk/MX_fS_HTML.html#146,146,1872,958,1920,1080,1-12-2024,22-40-44,60,VR_target_stimuli/s9_1x_1.2_263.png,125,1x,1.2,4,2889,125,meters,jsons/MX_seq53_2_VE125.json,214751,340431,29,Woman
