,subjID,experimentName,versionName,sequenceName,url,selected_row,windowWidth,windowHeight,screenWidth,screenHeight,startDate,startTime,trial,stimulus,duration,scale,actual_depth,depth_estimate,trial_RT,log_sceneDuration,unitSelection,seq_filepath,experimentTime,totalTime,age,gender
0,263736,final-intermixed-textured,v2,jsons/MX_seq18_2_VE125.json,http://54.235.29.9/FacialAge/BNav_EC2/DepthDuration/MX_fS_VE_MTurk/MX_fS_HTML.html#44,44,1536,742,1536,864,1-12-2024,18-17-24,1,VR_target_stimuli/s4_1x_1.4_313_BC.png,125,1x,1.4,2.0,6388,131,meters,jsons/MX_seq18_2_VE125.json,266016,464053,28,Woman
1,263736,final-intermixed-textured,v2,jsons/MX_seq18_2_VE125.json,http://54.235.29.9/FacialAge/BNav_EC2/DepthDuration/MX_fS_VE_MTurk/MX_fS_HTML.html#44,44,1536,742,1536,864,1-12-2024,18-17-24,2,VR_target_stimuli/s35_1.3x_2_338.png,125,1.3x,2.0,1.5,9979,126,meters,jsons/MX_seq18_2_VE125.json,266016,464053,28,Woman
2,263736,final-intermixed-textured,v2,jsons/MX_seq18_2_VE125.json,http://54.235.29.9/FacialAge/BNav_EC2/DepthDuration/MX_fS_VE_MTurk/MX_fS_HTML.html#44,44,1536,742,1536,864,1-12-2024,18-17-24,3,VR_target_stimuli/s49_0.75x_4.67_328_BC.png,125,0.75x,4.67,5.0,3768,126,meters,jsons/MX_seq18_2_VE125.json,266016,464053,28,Woman
3,263736,final-intermixed-textured,v2,jsons/MX_seq18_2_VE125.json,http://54.235.29.9/FacialAge/BNav_EC2/DepthDuration/MX_fS_VE_MTurk/MX_fS_HTML.html#44,44,1536,742,1536,864,1-12-2024,18-17-24,4,VR_target_stimuli/s7_1.3x_1.5_256_BC.png,125,1.3x,1.5,2.0,4018,127,meters,jsons/MX_seq18_2_VE125.json,266016,464053,28,Woman
4,263736,final-intermixed-textured,v2,jsons/MX_seq18_2_VE125.json,http://54.235.29.9/FacialAge/BNav_EC2/DepthDuration/MX_fS_VE_MTurk/MX_fS_HTML.html#44,44,1536,742,1536,864,1-12-2024,18-17-24,5,VR_target_stimuli/s20_1x_4.99_398.png,125,1x,4.99,2.0,3868,126,meters,jsons/MX_seq18_2_VE125.json,266016,464053,28,Woman
5,263736,final-intermixed-textured,v2,jsons/MX_seq18_2_VE125.json,http://54.235.29.9/FacialAge/BNav_EC2/DepthDuration/MX_fS_VE_MTurk/MX_fS_HTML.html#44,44,1536,742,1536,864,1-12-2024,18-17-24,6,VR_target_stimuli/s31_0.75x_4.96_329.png,125,0.75x,4.96,1.5,7317,127,meters,jsons/MX_seq18_2_VE125.json,266016,464053,28,Woman
6,263736,final-intermixed-textured,v2,jsons/MX_seq18_2_VE125.json,http://54.235.29.9/FacialAge/BNav_EC2/DepthDuration/MX_fS_VE_MTurk/MX_fS_HTML.html#44,44,1536,742,1536,864,1-12-2024,18-17-24,7,catch_stimuli/c0.png,125,,,0.0,3254,126,meters,jsons/MX_seq18_2_VE125.json,266016,464053,28,Woman
7,263736,final-intermixed-textured,v2,jsons/MX_seq18_2_VE125.json,http://54.235.29.9/FacialAge/BNav_EC2/DepthDuration/MX_fS_VE_MTurk/MX_fS_HTML.html#44,44,1536,742,1536,864,1-12-2024,18-17-24,8,VR_target_stimuli/s33_0.75x_3.1_361.png,125,0.75x,3.1,2.0,7448,128,meters,jsons/MX_seq18_2_VE125.json,266016,464053,28,Woman
8,263736,final-intermixed-textured,v2,jsons/MX_seq18_2_VE125.json,http://54.235.29.9/FacialAge/BNav_EC2/DepthDuration/MX_fS_VE_MTurk/MX_fS_HTML.html#44,44,1536,742,1536,864,1-12-2024,18-17-24,9,VR_target_stimuli/s52_1.3x_3.2_280.png,125,1.3x,3.2,3.0,4533,110,meters,jsons/MX_seq18_2_VE125.json,266016,464053,28,Woman
9,263736,final-intermixed-textured,v2,jsons/MX_seq18_2_VE125.json,http://54.235.29.9/FacialAge/BNav_EC2/DepthDuration/MX_fS_VE_MTurk/MX_fS_HTML.html#44,44,1536,742,1536,864,1-12-2024,18-17-24,10,VR_target_stimuli/s32_1x_1.5_218_BC.png,125,1x,1.5,2.0,3303,126,meters,jsons/MX_seq18_2_VE125.json,266016,464053,28,Woman
10,263736,final-intermixed-textured,v2,jsons/MX_seq18_2_VE125.json,http://54.235.29.9/FacialAge/BNav_EC2/DepthDuration/MX_fS_VE_MTurk/MX_fS_HTML.html#44,44,1536,742,1536,864,1-12-2024,18-17-24,11,VR_target_stimuli/s18_1.3x_2.25_368_BC.png,125,1.3x,2.25,1.5,5581,128,meters,jsons/MX_seq18_2_VE125.json,266016,464053,28,Woman
11,263736,final-intermixed-textured,v2,jsons/MX_seq18_2_VE125.json,http://54.235.29.9/FacialAge/BNav_EC2/DepthDuration/MX_fS_VE_MTurk/MX_fS_HTML.html#44,44,1536,742,1536,864,1-12-2024,18-17-24,12,VR_target_stimuli/s39_0.75x_1_205_BC.png,125,0.75x,1.0,1.0,4566,111,meters,jsons/MX_seq18_2_VE125.json,266016,464053,28,Woman
12,263736,final-intermixed-textured,v2,jsons/MX_seq18_2_VE125.json,http://54.235.29.9/FacialAge/BNav_EC2/DepthDuration/MX_fS_VE_MTurk/MX_fS_HTML.html#44,44,1536,742,1536,864,1-12-2024,18-17-24,13,VR_target_stimuli/s51_1x_3.64_461.png,125,1x,3.64,1.5,3735,127,meters,jsons/MX_seq18_2_VE125.json,266016,464053,28,Woman
13,263736,final-intermixed-textured,v2,jsons/MX_seq18_2_VE125.json,http://54.235.29.9/FacialAge/BNav_EC2/DepthDuration/MX_fS_VE_MTurk/MX_fS_HTML.html#44,44,1536,742,1536,864,1-12-2024,18-17-24,14,VR_target_stimuli/s43_0.75x_2.2_348_BC.png,125,0.75x,2.2,1.5,3654,127,meters,jsons/MX_seq18_2_VE125.json,266016,464053,28,Woman
14,263736,final-intermixed-textured,v2,jsons/MX_seq18_2_VE125.json,http://54.235.29.9/FacialAge/BNav_EC2/DepthDuration/MX_fS_VE_MTurk/MX_fS_HTML.html#44,44,1536,742,1536,864,1-12-2024,18-17-24,15,VR_target_stimuli/s24_1.3x_3.3_352_BC.png,125,1.3x,3.3,2.0,6767,128,meters,jsons/MX_seq18_2_VE125.json,266016,464053,28,Woman
15,263736,final-intermixed-textured,v2,jsons/MX_seq18_2_VE125.json,http://54.235.29.9/FacialAge/BNav_EC2/DepthDuration/MX_fS_VE_MTurk/MX_fS_HTML.html#44,44,1536,742,1536,864,1-12-2024,18-17-24,16,VR_target_stimuli/s10_1x_2.7_324.png,125,1x,2.7,2.0,6031,127,meters,jsons/MX_seq18_2_VE125.json,266016,464053,28,Woman
16,263736,final-intermixed-textured,v2,jsons/MX_seq18_2_VE125.json,http://54.235.29.9/FacialAge/BNav_EC2/DepthDuration/MX_fS_VE_MTurk/MX_fS_HTML.html#44,44,1536,742,1536,864,1-12-2024,18-17-24,17,catch_stimuli/c1.png,125,,,0.0,3234,126,meters,jsons/MX_seq18_2_VE125.json,266016,464053,28,Woman
17,263736,final-intermixed-textured,v2,jsons/MX_seq18_2_VE125.json,http://54.235.29.9/FacialAge/BNav_EC2/DepthDuration/MX_fS_VE_MTurk/MX_fS_HTML.html#44,44,1536,742,1536,864,1-12-2024,18-17-24,18,VR_target_stimuli/s36_1x_4.1_423_BC.png,125,1x,4.1,2.5,6466,126,meters,jsons/MX_seq18_2_VE125.json,266016,464053,28,Woman
18,263736,final-intermixed-textured,v2,jsons/MX_seq18_2_VE125.json,http://54.235.29.9/FacialAge/BNav_EC2/DepthDuration/MX_fS_VE_MTurk/MX_fS_HTML.html#44,44,1536,742,1536,864,1-12-2024,18-17-24,19,VR_target_stimuli/s40_0.75x_1.2_308.png,125,0.75x,1.2,1.0,4516,126,meters,jsons/MX_seq18_2_VE125.json,266016,464053,28,Woman
19,263736,final-intermixed-textured,v2,jsons/MX_seq18_2_VE125.json,http://54.235.29.9/FacialAge/BNav_EC2/DepthDuration/MX_fS_VE_MTurk/MX_fS_HTML.html#44,44,1536,742,1536,864,1-12-2024,18-17-24,20,VR_target_stimuli/s41_1.3x_2.1_294.png,125,1.3x,2.1,1.5,3370,127,meters,jsons/MX_seq18_2_VE125.json,266016,464053,28,Woman
20,263736,final-intermixed-textured,v2,jsons/MX_seq18_2_VE125.json,http://54.235.29.9/FacialAge/BNav_EC2/DepthDuration/MX_fS_VE_MTurk/MX_fS_HTML.html#44,44,1536,742,1536,864,1-12-2024,18-17-24,21,VR_target_stimuli/s45_0.75x_3.5_362.png,125,0.75x,3.5,2.0,3058,134,meters,jsons/MX_seq18_2_VE125.json,266016,464053,28,Woman
21,263736,final-intermixed-textured,v2,jsons/MX_seq18_2_VE125.json,http://54.235.29.9/FacialAge/BNav_EC2/DepthDuration/MX_fS_VE_MTurk/MX_fS_HTML.html#44,44,1536,742,1536,864,1-12-2024,18-17-24,22,VR_target_stimuli/s23_1x_3.65_353_BC.png,125,1x,3.65,1.5,3388,126,meters,jsons/MX_seq18_2_VE125.json,266016,464053,28,Woman
22,263736,final-intermixed-textured,v2,jsons/MX_seq18_2_VE125.json,http://54.235.29.9/FacialAge/BNav_EC2/DepthDuration/MX_fS_VE_MTurk/MX_fS_HTML.html#44,44,1536,742,1536,864,1-12-2024,18-17-24,23,VR_target_stimuli/s26_1.3x_4_441_BC.png,125,1.3x,4.0,1.5,3934,126,meters,jsons/MX_seq18_2_VE125.json,266016,464053,28,Woman
23,263736,final-intermixed-textured,v2,jsons/MX_seq18_2_VE125.json,http://54.235.29.9/FacialAge/BNav_EC2/DepthDuration/MX_fS_VE_MTurk/MX_fS_HTML.html#44,44,1536,742,1536,864,1-12-2024,18-17-24,24,VR_target_stimuli/s12_1x_3.1_372.png,125,1x,3.1,1.5,3269,126,meters,jsons/MX_seq18_2_VE125.json,266016,464053,28,Woman
24,263736,final-intermixed-textured,v2,jsons/MX_seq18_2_VE125.json,http://54.235.29.9/FacialAge/BNav_EC2/DepthDuration/MX_fS_VE_MTurk/MX_fS_HTML.html#44,44,1536,742,1536,864,1-12-2024,18-17-24,25,VR_target_stimuli/s30_0.75x_2.3_332_BC.png,125,0.75x,2.3,1.5,3600,126,meters,jsons/MX_seq18_2_VE125.json,266016,464053,28,Woman
25,263736,final-intermixed-textured,v2,jsons/MX_seq18_2_VE125.json,http://54.235.29.9/FacialAge/BNav_EC2/DepthDuration/MX_fS_VE_MTurk/MX_fS_HTML.html#44,44,1536,742,1536,864,1-12-2024,18-17-24,26,catch_stimuli/c2.png,125,,,0.0,3219,125,meters,jsons/MX_seq18_2_VE125.json,266016,464053,28,Woman
26,263736,final-intermixed-textured,v2,jsons/MX_seq18_2_VE125.json,http://54.235.29.9/FacialAge/BNav_EC2/DepthDuration/MX_fS_VE_MTurk/MX_fS_HTML.html#44,44,1536,742,1536,864,1-12-2024,18-17-24,27,VR_target_stimuli/s16_1.3x_1_223.png,125,1.3x,1.0,1.0,2767,124,meters,jsons/MX_seq18_2_VE125.json,266016,464053,28,Woman
27,263736,final-intermixed-textured,v2,jsons/MX_seq18_2_VE125.json,http://54.235.29.9/FacialAge/BNav_EC2/DepthDuration/MX_fS_VE_MTurk/MX_fS_HTML.html#44,44,1536,742,1536,864,1-12-2024,18-17-24,28,VR_target_stimuli/s17_1.3x_1.8_300.png,125,1.3x,1.8,1.0,2719,126,meters,jsons/MX_seq18_2_VE125.json,266016,464053,28,Woman
28,263736,final-intermixed-textured,v2,jsons/MX_seq18_2_VE125.json,http://54.235.29.9/FacialAge/BNav_EC2/DepthDuration/MX_fS_VE_MTurk/MX_fS_HTML.html#44,44,1536,742,1536,864,1-12-2024,18-17-24,29,VR_target_stimuli/s5_1x_4_378.png,125,1x,4.0,2.0,2920,128,meters,jsons/MX_seq18_2_VE125.json,266016,464053,28,Woman
29,263736,final-intermixed-textured,v2,jsons/MX_seq18_2_VE125.json,http://54.235.29.9/FacialAge/BNav_EC2/DepthDuration/MX_fS_VE_MTurk/MX_fS_HTML.html#44,44,1536,742,1536,864,1-12-2024,18-17-24,30,VR_target_stimuli/s37_0.75x_3.3_567.png,125,0.75x,3.3,1.0,4182,126,meters,jsons/MX_seq18_2_VE125.json,266016,464053,28,Woman
30,263736,final-intermixed-textured,v2,jsons/MX_seq18_2_VE125.json,http://54.235.29.9/FacialAge/BNav_EC2/DepthDuration/MX_fS_VE_MTurk/MX_fS_HTML.html#44,44,1536,742,1536,864,1-12-2024,18-17-24,31,VR_target_stimuli/s46_1.3x_2.42_354_BC.png,125,1.3x,2.42,1.5,3517,125,meters,jsons/MX_seq18_2_VE125.json,266016,464053,28,Woman
31,263736,final-intermixed-textured,v2,jsons/MX_seq18_2_VE125.json,http://54.235.29.9/FacialAge/BNav_EC2/DepthDuration/MX_fS_VE_MTurk/MX_fS_HTML.html#44,44,1536,742,1536,864,1-12-2024,18-17-24,32,VR_target_stimuli/s22_0.75x_4.29_348_BC.png,125,0.75x,4.29,2.0,5299,127,meters,jsons/MX_seq18_2_VE125.json,266016,464053,28,Woman
32,263736,final-intermixed-textured,v2,jsons/MX_seq18_2_VE125.json,http://54.235.29.9/FacialAge/BNav_EC2/DepthDuration/MX_fS_VE_MTurk/MX_fS_HTML.html#44,44,1536,742,1536,864,1-12-2024,18-17-24,33,VR_target_stimuli/s42_1x_3.2_303_BC.png,125,1x,3.2,2.0,2735,127,meters,jsons/MX_seq18_2_VE125.json,266016,464053,28,Woman
33,263736,final-intermixed-textured,v2,jsons/MX_seq18_2_VE125.json,http://54.235.29.9/FacialAge/BNav_EC2/DepthDuration/MX_fS_VE_MTurk/MX_fS_HTML.html#44,44,1536,742,1536,864,1-12-2024,18-17-24,34,catch_stimuli/c3.png,125,,,0.0,3234,126,meters,jsons/MX_seq18_2_VE125.json,266016,464053,28,Woman
34,263736,final-intermixed-textured,v2,jsons/MX_seq18_2_VE125.json,http://54.235.29.9/FacialAge/BNav_EC2/DepthDuration/MX_fS_VE_MTurk/MX_fS_HTML.html#44,44,1536,742,1536,864,1-12-2024,18-17-24,35,VR_target_stimuli/s25_0.75x_1.4_281_BC.png,125,0.75x,1.4,1.0,2951,124,meters,jsons/MX_seq18_2_VE125.json,266016,464053,28,Woman
35,263736,final-intermixed-textured,v2,jsons/MX_seq18_2_VE125.json,http://54.235.29.9/FacialAge/BNav_EC2/DepthDuration/MX_fS_VE_MTurk/MX_fS_HTML.html#44,44,1536,742,1536,864,1-12-2024,18-17-24,36,VR_target_stimuli/s50_1.3x_4.53_518.png,125,1.3x,4.53,2.0,3704,128,meters,jsons/MX_seq18_2_VE125.json,266016,464053,28,Woman
36,263736,final-intermixed-textured,v2,jsons/MX_seq18_2_VE125.json,http://54.235.29.9/FacialAge/BNav_EC2/DepthDuration/MX_fS_VE_MTurk/MX_fS_HTML.html#44,44,1536,742,1536,864,1-12-2024,18-17-24,37,VR_target_stimuli/s53_1x_1.6_387_BC.png,125,1x,1.6,1.0,2934,127,meters,jsons/MX_seq18_2_VE125.json,266016,464053,28,Woman
37,263736,final-intermixed-textured,v2,jsons/MX_seq18_2_VE125.json,http://54.235.29.9/FacialAge/BNav_EC2/DepthDuration/MX_fS_VE_MTurk/MX_fS_HTML.html#44,44,1536,742,1536,864,1-12-2024,18-17-24,38,VR_target_stimuli/s38_1x_3.55_353.png,125,1x,3.55,1.5,3337,128,meters,jsons/MX_seq18_2_VE125.json,266016,464053,28,Woman
38,263736,final-intermixed-textured,v2,jsons/MX_seq18_2_VE125.json,http://54.235.29.9/FacialAge/BNav_EC2/DepthDuration/MX_fS_VE_MTurk/MX_fS_HTML.html#44,44,1536,742,1536,864,1-12-2024,18-17-24,39,VR_target_stimuli/s9_0.75x_1.2_260.png,125,0.75x,1.2,1.0,2734,126,meters,jsons/MX_seq18_2_VE125.json,266016,464053,28,Woman
39,263736,final-intermixed-textured,v2,jsons/MX_seq18_2_VE125.json,http://54.235.29.9/FacialAge/BNav_EC2/DepthDuration/MX_fS_VE_MTurk/MX_fS_HTML.html#44,44,1536,742,1536,864,1-12-2024,18-17-24,40,VR_target_stimuli/s44_1.3x_4.4_325_BC.png,125,1.3x,4.4,0.0,4037,127,meters,jsons/MX_seq18_2_VE125.json,266016,464053,28,Woman
40,263736,final-intermixed-textured,v2,jsons/MX_seq18_2_VE125.json,http://54.235.29.9/FacialAge/BNav_EC2/DepthDuration/MX_fS_VE_MTurk/MX_fS_HTML.html#44,44,1536,742,1536,864,1-12-2024,18-17-24,41,VR_target_stimuli/s3_0.75x_5_381_BC.png,125,0.75x,5.0,2.0,2686,127,meters,jsons/MX_seq18_2_VE125.json,266016,464053,28,Woman
41,263736,final-intermixed-textured,v2,jsons/MX_seq18_2_VE125.json,http://54.235.29.9/FacialAge/BNav_EC2/DepthDuration/MX_fS_VE_MTurk/MX_fS_HTML.html#44,44,1536,742,1536,864,1-12-2024,18-17-24,42,VR_target_stimuli/s1_1x_1.7_262_BC.png,125,1x,1.7,1.0,2851,126,meters,jsons/MX_seq18_2_VE125.json,266016,464053,28,Woman
42,263736,final-intermixed-textured,v2,jsons/MX_seq18_2_VE125.json,http://54.235.29.9/FacialAge/BNav_EC2/DepthDuration/MX_fS_VE_MTurk/MX_fS_HTML.html#44,44,1536,742,1536,864,1-12-2024,18-17-24,43,VR_target_stimuli/s11_1.3x_5_363_BC.png,125,1.3x,5.0,2.0,3053,126,meters,jsons/MX_seq18_2_VE125.json,266016,464053,28,Woman
43,263736,final-intermixed-textured,v2,jsons/MX_seq18_2_VE125.json,http://54.235.29.9/FacialAge/BNav_EC2/DepthDuration/MX_fS_VE_MTurk/MX_fS_HTML.html#44,44,1536,742,1536,864,1-12-2024,18-17-24,44,VR_target_stimuli/s2_1x_2.7_390.png,125,1x,2.7,1.5,3184,125,meters,jsons/MX_seq18_2_VE125.json,266016,464053,28,Woman
44,263736,final-intermixed-textured,v2,jsons/MX_seq18_2_VE125.json,http://54.235.29.9/FacialAge/BNav_EC2/DepthDuration/MX_fS_VE_MTurk/MX_fS_HTML.html#44,44,1536,742,1536,864,1-12-2024,18-17-24,45,catch_stimuli/c4.png,125,,,0.0,3484,127,meters,jsons/MX_seq18_2_VE125.json,266016,464053,28,Woman
45,263736,final-intermixed-textured,v2,jsons/MX_seq18_2_VE125.json,http://54.235.29.9/FacialAge/BNav_EC2/DepthDuration/MX_fS_VE_MTurk/MX_fS_HTML.html#44,44,1536,742,1536,864,1-12-2024,18-17-24,46,VR_target_stimuli/s6_0.75x_2.1_290.png,125,0.75x,2.1,1.5,3320,129,meters,jsons/MX_seq18_2_VE125.json,266016,464053,28,Woman
46,263736,final-intermixed-textured,v2,jsons/MX_seq18_2_VE125.json,http://54.235.29.9/FacialAge/BNav_EC2/DepthDuration/MX_fS_VE_MTurk/MX_fS_HTML.html#44,44,1536,742,1536,864,1-12-2024,18-17-24,47,VR_target_stimuli/s0_1.3x_2.6_356.png,125,1.3x,2.6,1.0,3004,127,meters,jsons/MX_seq18_2_VE125.json,266016,464053,28,Woman
47,263736,final-intermixed-textured,v2,jsons/MX_seq18_2_VE125.json,http://54.235.29.9/FacialAge/BNav_EC2/DepthDuration/MX_fS_VE_MTurk/MX_fS_HTML.html#44,44,1536,742,1536,864,1-12-2024,18-17-24,48,VR_target_stimuli/s34_1.3x_2.8_294_BC.png,125,1.3x,2.8,1.0,3253,126,meters,jsons/MX_seq18_2_VE125.json,266016,464053,28,Woman
48,263736,final-intermixed-textured,v2,jsons/MX_seq18_2_VE125.json,http://54.235.29.9/FacialAge/BNav_EC2/DepthDuration/MX_fS_VE_MTurk/MX_fS_HTML.html#44,44,1536,742,1536,864,1-12-2024,18-17-24,49,VR_target_stimuli/s13_1x_2.4_310.png,125,1x,2.4,1.0,2901,126,meters,jsons/MX_seq18_2_VE125.json,266016,464053,28,Woman
49,263736,final-intermixed-textured,v2,jsons/MX_seq18_2_VE125.json,http://54.235.29.9/FacialAge/BNav_EC2/DepthDuration/MX_fS_VE_MTurk/MX_fS_HTML.html#44,44,1536,742,1536,864,1-12-2024,18-17-24,50,VR_target_stimuli/s14_0.75x_3.83_355_BC.png,125,0.75x,3.83,2.0,2715,126,meters,jsons/MX_seq18_2_VE125.json,266016,464053,28,Woman
50,263736,final-intermixed-textured,v2,jsons/MX_seq18_2_VE125.json,http://54.235.29.9/FacialAge/BNav_EC2/DepthDuration/MX_fS_VE_MTurk/MX_fS_HTML.html#44,44,1536,742,1536,864,1-12-2024,18-17-24,51,VR_target_stimuli/s47_1x_3.45_370_BC.png,125,1x,3.45,1.5,3982,138,meters,jsons/MX_seq18_2_VE125.json,266016,464053,28,Woman
51,263736,final-intermixed-textured,v2,jsons/MX_seq18_2_VE125.json,http://54.235.29.9/FacialAge/BNav_EC2/DepthDuration/MX_fS_VE_MTurk/MX_fS_HTML.html#44,44,1536,742,1536,864,1-12-2024,18-17-24,52,VR_target_stimuli/s29_1.3x_1.3_253.png,125,1.3x,1.3,1.0,2902,127,meters,jsons/MX_seq18_2_VE125.json,266016,464053,28,Woman
52,263736,final-intermixed-textured,v2,jsons/MX_seq18_2_VE125.json,http://54.235.29.9/FacialAge/BNav_EC2/DepthDuration/MX_fS_VE_MTurk/MX_fS_HTML.html#44,44,1536,742,1536,864,1-12-2024,18-17-24,53,catch_stimuli/c5.png,125,,,0.0,3435,126,meters,jsons/MX_seq18_2_VE125.json,266016,464053,28,Woman
53,263736,final-intermixed-textured,v2,jsons/MX_seq18_2_VE125.json,http://54.235.29.9/FacialAge/BNav_EC2/DepthDuration/MX_fS_VE_MTurk/MX_fS_HTML.html#44,44,1536,742,1536,864,1-12-2024,18-17-24,54,VR_target_stimuli/s28_0.75x_3.2_357.png,125,0.75x,3.2,1.0,4168,125,meters,jsons/MX_seq18_2_VE125.json,266016,464053,28,Woman
54,263736,final-intermixed-textured,v2,jsons/MX_seq18_2_VE125.json,http://54.235.29.9/FacialAge/BNav_EC2/DepthDuration/MX_fS_VE_MTurk/MX_fS_HTML.html#44,44,1536,742,1536,864,1-12-2024,18-17-24,55,VR_target_stimuli/s48_1.3x_2.55_255_BC.png,125,1.3x,2.55,1.5,3303,127,meters,jsons/MX_seq18_2_VE125.json,266016,464053,28,Woman
55,263736,final-intermixed-textured,v2,jsons/MX_seq18_2_VE125.json,http://54.235.29.9/FacialAge/BNav_EC2/DepthDuration/MX_fS_VE_MTurk/MX_fS_HTML.html#44,44,1536,742,1536,864,1-12-2024,18-17-24,56,VR_target_stimuli/s19_1x_1.21_263_BC.png,125,1x,1.21,1.0,3219,125,meters,jsons/MX_seq18_2_VE125.json,266016,464053,28,Woman
56,263736,final-intermixed-textured,v2,jsons/MX_seq18_2_VE125.json,http://54.235.29.9/FacialAge/BNav_EC2/DepthDuration/MX_fS_VE_MTurk/MX_fS_HTML.html#44,44,1536,742,1536,864,1-12-2024,18-17-24,57,VR_target_stimuli/s21_0.75x_4.22_374_BC.png,125,0.75x,4.22,2.0,2754,125,meters,jsons/MX_seq18_2_VE125.json,266016,464053,28,Woman
57,263736,final-intermixed-textured,v2,jsons/MX_seq18_2_VE125.json,http://54.235.29.9/FacialAge/BNav_EC2/DepthDuration/MX_fS_VE_MTurk/MX_fS_HTML.html#44,44,1536,742,1536,864,1-12-2024,18-17-24,58,VR_target_stimuli/s8_0.75x_3.1_325.png,125,0.75x,3.1,1.5,5383,127,meters,jsons/MX_seq18_2_VE125.json,266016,464053,28,Woman
58,263736,final-intermixed-textured,v2,jsons/MX_seq18_2_VE125.json,http://54.235.29.9/FacialAge/BNav_EC2/DepthDuration/MX_fS_VE_MTurk/MX_fS_HTML.html#44,44,1536,742,1536,864,1-12-2024,18-17-24,59,VR_target_stimuli/s27_1.3x_1.76_250.png,125,1.3x,1.76,1.5,3502,127,meters,jsons/MX_seq18_2_VE125.json,266016,464053,28,Woman
59,263736,final-intermixed-textured,v2,jsons/MX_seq18_2_VE125.json,http://54.235.29.9/FacialAge/BNav_EC2/DepthDuration/MX_fS_VE_MTurk/MX_fS_HTML.html#44,44,1536,742,1536,864,1-12-2024,18-17-24,60,VR_target_stimuli/s15_1x_4.2_390.png,125,1x,4.2,2.0,2936,125,meters,jsons/MX_seq18_2_VE125.json,266016,464053,28,Woman
