,subjID,experimentName,versionName,sequenceName,url,selected_row,windowWidth,windowHeight,screenWidth,screenHeight,startDate,startTime,trial,stimulus,duration,scale,actual_depth,depth_estimate,trial_RT,log_sceneDuration,unitSelection,seq_filepath,experimentTime,totalTime,age,gender
0,263863,final-intermixed-textured,v2,jsons/MX_seq11_0_VE125_flipped.json,http://54.235.29.9/FacialAge/BNav_EC2/DepthDuration/MX_fS_VE_MTurk/MX_fS_HTML.html#53,53,1600,785,1600,900,1-12-2024,19-18-15,1,VR_target_stimuli/s28_0.75x_3.2_357.png,125,0.75x,3.2,0,5394,129,meters,jsons/MX_seq11_0_VE125_flipped.json,223720,490144,31,Woman
1,263863,final-intermixed-textured,v2,jsons/MX_seq11_0_VE125_flipped.json,http://54.235.29.9/FacialAge/BNav_EC2/DepthDuration/MX_fS_VE_MTurk/MX_fS_HTML.html#53,53,1600,785,1600,900,1-12-2024,19-18-15,2,VR_target_stimuli/s48_1x_2.55_256_BC.png,125,1x,2.55,2,3524,113,meters,jsons/MX_seq11_0_VE125_flipped.json,223720,490144,31,Woman
2,263863,final-intermixed-textured,v2,jsons/MX_seq11_0_VE125_flipped.json,http://54.235.29.9/FacialAge/BNav_EC2/DepthDuration/MX_fS_VE_MTurk/MX_fS_HTML.html#53,53,1600,785,1600,900,1-12-2024,19-18-15,3,VR_target_stimuli/s19_1.3x_1.21_270.png,125,1.3x,1.21,1,5679,114,meters,jsons/MX_seq11_0_VE125_flipped.json,223720,490144,31,Woman
3,263863,final-intermixed-textured,v2,jsons/MX_seq11_0_VE125_flipped.json,http://54.235.29.9/FacialAge/BNav_EC2/DepthDuration/MX_fS_VE_MTurk/MX_fS_HTML.html#53,53,1600,785,1600,900,1-12-2024,19-18-15,4,VR_target_stimuli/s21_1x_4.22_379.png,125,1x,4.22,5,8519,112,meters,jsons/MX_seq11_0_VE125_flipped.json,223720,490144,31,Woman
4,263863,final-intermixed-textured,v2,jsons/MX_seq11_0_VE125_flipped.json,http://54.235.29.9/FacialAge/BNav_EC2/DepthDuration/MX_fS_VE_MTurk/MX_fS_HTML.html#53,53,1600,785,1600,900,1-12-2024,19-18-15,5,VR_target_stimuli/s8_0.75x_3.1_325_BC.png,125,0.75x,3.1,4,4383,119,meters,jsons/MX_seq11_0_VE125_flipped.json,223720,490144,31,Woman
5,263863,final-intermixed-textured,v2,jsons/MX_seq11_0_VE125_flipped.json,http://54.235.29.9/FacialAge/BNav_EC2/DepthDuration/MX_fS_VE_MTurk/MX_fS_HTML.html#53,53,1600,785,1600,900,1-12-2024,19-18-15,6,VR_target_stimuli/s27_1.3x_1.76_250_BC.png,125,1.3x,1.76,3,5837,129,meters,jsons/MX_seq11_0_VE125_flipped.json,223720,490144,31,Woman
6,263863,final-intermixed-textured,v2,jsons/MX_seq11_0_VE125_flipped.json,http://54.235.29.9/FacialAge/BNav_EC2/DepthDuration/MX_fS_VE_MTurk/MX_fS_HTML.html#53,53,1600,785,1600,900,1-12-2024,19-18-15,7,catch_stimuli/c0_BC.png,125,,,0,3005,135,meters,jsons/MX_seq11_0_VE125_flipped.json,223720,490144,31,Woman
7,263863,final-intermixed-textured,v2,jsons/MX_seq11_0_VE125_flipped.json,http://54.235.29.9/FacialAge/BNav_EC2/DepthDuration/MX_fS_VE_MTurk/MX_fS_HTML.html#53,53,1600,785,1600,900,1-12-2024,19-18-15,8,VR_target_stimuli/s15_1.3x_4.2_389.png,125,1.3x,4.2,3,5189,134,meters,jsons/MX_seq11_0_VE125_flipped.json,223720,490144,31,Woman
8,263863,final-intermixed-textured,v2,jsons/MX_seq11_0_VE125_flipped.json,http://54.235.29.9/FacialAge/BNav_EC2/DepthDuration/MX_fS_VE_MTurk/MX_fS_HTML.html#53,53,1600,785,1600,900,1-12-2024,19-18-15,9,VR_target_stimuli/s4_1x_1.4_313_BC.png,125,1x,1.4,3,6104,82,meters,jsons/MX_seq11_0_VE125_flipped.json,223720,490144,31,Woman
9,263863,final-intermixed-textured,v2,jsons/MX_seq11_0_VE125_flipped.json,http://54.235.29.9/FacialAge/BNav_EC2/DepthDuration/MX_fS_VE_MTurk/MX_fS_HTML.html#53,53,1600,785,1600,900,1-12-2024,19-18-15,10,VR_target_stimuli/s35_0.75x_2_323_BC.png,125,0.75x,2.0,2,2801,113,meters,jsons/MX_seq11_0_VE125_flipped.json,223720,490144,31,Woman
10,263863,final-intermixed-textured,v2,jsons/MX_seq11_0_VE125_flipped.json,http://54.235.29.9/FacialAge/BNav_EC2/DepthDuration/MX_fS_VE_MTurk/MX_fS_HTML.html#53,53,1600,785,1600,900,1-12-2024,19-18-15,11,VR_target_stimuli/s49_1x_4.67_341.png,125,1x,4.67,2,2662,113,meters,jsons/MX_seq11_0_VE125_flipped.json,223720,490144,31,Woman
11,263863,final-intermixed-textured,v2,jsons/MX_seq11_0_VE125_flipped.json,http://54.235.29.9/FacialAge/BNav_EC2/DepthDuration/MX_fS_VE_MTurk/MX_fS_HTML.html#53,53,1600,785,1600,900,1-12-2024,19-18-15,12,VR_target_stimuli/s7_1.3x_1.5_256_BC.png,125,1.3x,1.5,1,2887,129,meters,jsons/MX_seq11_0_VE125_flipped.json,223720,490144,31,Woman
12,263863,final-intermixed-textured,v2,jsons/MX_seq11_0_VE125_flipped.json,http://54.235.29.9/FacialAge/BNav_EC2/DepthDuration/MX_fS_VE_MTurk/MX_fS_HTML.html#53,53,1600,785,1600,900,1-12-2024,19-18-15,13,VR_target_stimuli/s20_0.75x_4.99_390.png,125,0.75x,4.99,4,5946,128,meters,jsons/MX_seq11_0_VE125_flipped.json,223720,490144,31,Woman
13,263863,final-intermixed-textured,v2,jsons/MX_seq11_0_VE125_flipped.json,http://54.235.29.9/FacialAge/BNav_EC2/DepthDuration/MX_fS_VE_MTurk/MX_fS_HTML.html#53,53,1600,785,1600,900,1-12-2024,19-18-15,14,VR_target_stimuli/s31_1.3x_4.96_342_BC.png,125,1.3x,4.96,5,2292,114,meters,jsons/MX_seq11_0_VE125_flipped.json,223720,490144,31,Woman
14,263863,final-intermixed-textured,v2,jsons/MX_seq11_0_VE125_flipped.json,http://54.235.29.9/FacialAge/BNav_EC2/DepthDuration/MX_fS_VE_MTurk/MX_fS_HTML.html#53,53,1600,785,1600,900,1-12-2024,19-18-15,15,VR_target_stimuli/s33_1x_3.1_366.png,125,1x,3.1,4,5858,130,meters,jsons/MX_seq11_0_VE125_flipped.json,223720,490144,31,Woman
15,263863,final-intermixed-textured,v2,jsons/MX_seq11_0_VE125_flipped.json,http://54.235.29.9/FacialAge/BNav_EC2/DepthDuration/MX_fS_VE_MTurk/MX_fS_HTML.html#53,53,1600,785,1600,900,1-12-2024,19-18-15,16,VR_target_stimuli/s52_0.75x_3.2_270_BC.png,125,0.75x,3.2,3,5641,115,meters,jsons/MX_seq11_0_VE125_flipped.json,223720,490144,31,Woman
16,263863,final-intermixed-textured,v2,jsons/MX_seq11_0_VE125_flipped.json,http://54.235.29.9/FacialAge/BNav_EC2/DepthDuration/MX_fS_VE_MTurk/MX_fS_HTML.html#53,53,1600,785,1600,900,1-12-2024,19-18-15,17,catch_stimuli/c1_BC.png,125,,,0,2554,131,meters,jsons/MX_seq11_0_VE125_flipped.json,223720,490144,31,Woman
17,263863,final-intermixed-textured,v2,jsons/MX_seq11_0_VE125_flipped.json,http://54.235.29.9/FacialAge/BNav_EC2/DepthDuration/MX_fS_VE_MTurk/MX_fS_HTML.html#53,53,1600,785,1600,900,1-12-2024,19-18-15,18,VR_target_stimuli/s32_0.75x_1.5_213.png,125,0.75x,1.5,0,2644,136,meters,jsons/MX_seq11_0_VE125_flipped.json,223720,490144,31,Woman
18,263863,final-intermixed-textured,v2,jsons/MX_seq11_0_VE125_flipped.json,http://54.235.29.9/FacialAge/BNav_EC2/DepthDuration/MX_fS_VE_MTurk/MX_fS_HTML.html#53,53,1600,785,1600,900,1-12-2024,19-18-15,19,VR_target_stimuli/s18_1.3x_2.25_368.png,125,1.3x,2.25,2,8120,131,meters,jsons/MX_seq11_0_VE125_flipped.json,223720,490144,31,Woman
19,263863,final-intermixed-textured,v2,jsons/MX_seq11_0_VE125_flipped.json,http://54.235.29.9/FacialAge/BNav_EC2/DepthDuration/MX_fS_VE_MTurk/MX_fS_HTML.html#53,53,1600,785,1600,900,1-12-2024,19-18-15,20,VR_target_stimuli/s39_1x_1_207_BC.png,125,1x,1.0,1,4471,115,meters,jsons/MX_seq11_0_VE125_flipped.json,223720,490144,31,Woman
20,263863,final-intermixed-textured,v2,jsons/MX_seq11_0_VE125_flipped.json,http://54.235.29.9/FacialAge/BNav_EC2/DepthDuration/MX_fS_VE_MTurk/MX_fS_HTML.html#53,53,1600,785,1600,900,1-12-2024,19-18-15,21,VR_target_stimuli/s51_1.3x_3.64_479_BC.png,125,1.3x,3.64,2,2685,115,meters,jsons/MX_seq11_0_VE125_flipped.json,223720,490144,31,Woman
21,263863,final-intermixed-textured,v2,jsons/MX_seq11_0_VE125_flipped.json,http://54.235.29.9/FacialAge/BNav_EC2/DepthDuration/MX_fS_VE_MTurk/MX_fS_HTML.html#53,53,1600,785,1600,900,1-12-2024,19-18-15,22,VR_target_stimuli/s43_0.75x_2.2_348_BC.png,125,0.75x,2.2,2,3323,132,meters,jsons/MX_seq11_0_VE125_flipped.json,223720,490144,31,Woman
22,263863,final-intermixed-textured,v2,jsons/MX_seq11_0_VE125_flipped.json,http://54.235.29.9/FacialAge/BNav_EC2/DepthDuration/MX_fS_VE_MTurk/MX_fS_HTML.html#53,53,1600,785,1600,900,1-12-2024,19-18-15,23,VR_target_stimuli/s24_1x_3.3_349_BC.png,125,1x,3.3,3,2006,136,meters,jsons/MX_seq11_0_VE125_flipped.json,223720,490144,31,Woman
23,263863,final-intermixed-textured,v2,jsons/MX_seq11_0_VE125_flipped.json,http://54.235.29.9/FacialAge/BNav_EC2/DepthDuration/MX_fS_VE_MTurk/MX_fS_HTML.html#53,53,1600,785,1600,900,1-12-2024,19-18-15,24,VR_target_stimuli/s10_0.75x_2.7_321.png,125,0.75x,2.7,3,1978,136,meters,jsons/MX_seq11_0_VE125_flipped.json,223720,490144,31,Woman
24,263863,final-intermixed-textured,v2,jsons/MX_seq11_0_VE125_flipped.json,http://54.235.29.9/FacialAge/BNav_EC2/DepthDuration/MX_fS_VE_MTurk/MX_fS_HTML.html#53,53,1600,785,1600,900,1-12-2024,19-18-15,25,VR_target_stimuli/s36_1.3x_4.1_442.png,125,1.3x,4.1,4,2516,114,meters,jsons/MX_seq11_0_VE125_flipped.json,223720,490144,31,Woman
25,263863,final-intermixed-textured,v2,jsons/MX_seq11_0_VE125_flipped.json,http://54.235.29.9/FacialAge/BNav_EC2/DepthDuration/MX_fS_VE_MTurk/MX_fS_HTML.html#53,53,1600,785,1600,900,1-12-2024,19-18-15,26,catch_stimuli/c2_BC.png,125,,,0,2745,114,meters,jsons/MX_seq11_0_VE125_flipped.json,223720,490144,31,Woman
26,263863,final-intermixed-textured,v2,jsons/MX_seq11_0_VE125_flipped.json,http://54.235.29.9/FacialAge/BNav_EC2/DepthDuration/MX_fS_VE_MTurk/MX_fS_HTML.html#53,53,1600,785,1600,900,1-12-2024,19-18-15,27,VR_target_stimuli/s40_1x_1.2_319.png,125,1x,1.2,0,1959,81,meters,jsons/MX_seq11_0_VE125_flipped.json,223720,490144,31,Woman
27,263863,final-intermixed-textured,v2,jsons/MX_seq11_0_VE125_flipped.json,http://54.235.29.9/FacialAge/BNav_EC2/DepthDuration/MX_fS_VE_MTurk/MX_fS_HTML.html#53,53,1600,785,1600,900,1-12-2024,19-18-15,28,VR_target_stimuli/s41_1x_2.1_286_BC.png,125,1x,2.1,4,2551,129,meters,jsons/MX_seq11_0_VE125_flipped.json,223720,490144,31,Woman
28,263863,final-intermixed-textured,v2,jsons/MX_seq11_0_VE125_flipped.json,http://54.235.29.9/FacialAge/BNav_EC2/DepthDuration/MX_fS_VE_MTurk/MX_fS_HTML.html#53,53,1600,785,1600,900,1-12-2024,19-18-15,29,VR_target_stimuli/s45_0.75x_3.5_362_BC.png,125,0.75x,3.5,5,2786,113,meters,jsons/MX_seq11_0_VE125_flipped.json,223720,490144,31,Woman
29,263863,final-intermixed-textured,v2,jsons/MX_seq11_0_VE125_flipped.json,http://54.235.29.9/FacialAge/BNav_EC2/DepthDuration/MX_fS_VE_MTurk/MX_fS_HTML.html#53,53,1600,785,1600,900,1-12-2024,19-18-15,30,VR_target_stimuli/s23_1.3x_3.65_354.png,125,1.3x,3.65,4,3744,113,meters,jsons/MX_seq11_0_VE125_flipped.json,223720,490144,31,Woman
30,263863,final-intermixed-textured,v2,jsons/MX_seq11_0_VE125_flipped.json,http://54.235.29.9/FacialAge/BNav_EC2/DepthDuration/MX_fS_VE_MTurk/MX_fS_HTML.html#53,53,1600,785,1600,900,1-12-2024,19-18-15,31,VR_target_stimuli/s26_1x_4_433.png,125,1x,4.0,5,1725,137,meters,jsons/MX_seq11_0_VE125_flipped.json,223720,490144,31,Woman
31,263863,final-intermixed-textured,v2,jsons/MX_seq11_0_VE125_flipped.json,http://54.235.29.9/FacialAge/BNav_EC2/DepthDuration/MX_fS_VE_MTurk/MX_fS_HTML.html#53,53,1600,785,1600,900,1-12-2024,19-18-15,32,VR_target_stimuli/s12_1.3x_3.1_375_BC.png,125,1.3x,3.1,5,2365,113,meters,jsons/MX_seq11_0_VE125_flipped.json,223720,490144,31,Woman
32,263863,final-intermixed-textured,v2,jsons/MX_seq11_0_VE125_flipped.json,http://54.235.29.9/FacialAge/BNav_EC2/DepthDuration/MX_fS_VE_MTurk/MX_fS_HTML.html#53,53,1600,785,1600,900,1-12-2024,19-18-15,33,VR_target_stimuli/s30_0.75x_2.3_332.png,125,0.75x,2.3,3,2324,59,meters,jsons/MX_seq11_0_VE125_flipped.json,223720,490144,31,Woman
33,263863,final-intermixed-textured,v2,jsons/MX_seq11_0_VE125_flipped.json,http://54.235.29.9/FacialAge/BNav_EC2/DepthDuration/MX_fS_VE_MTurk/MX_fS_HTML.html#53,53,1600,785,1600,900,1-12-2024,19-18-15,34,catch_stimuli/c3_BC.png,125,,,0,2144,129,meters,jsons/MX_seq11_0_VE125_flipped.json,223720,490144,31,Woman
34,263863,final-intermixed-textured,v2,jsons/MX_seq11_0_VE125_flipped.json,http://54.235.29.9/FacialAge/BNav_EC2/DepthDuration/MX_fS_VE_MTurk/MX_fS_HTML.html#53,53,1600,785,1600,900,1-12-2024,19-18-15,35,VR_target_stimuli/s16_1.3x_1_223.png,125,1.3x,1.0,1,2222,120,meters,jsons/MX_seq11_0_VE125_flipped.json,223720,490144,31,Woman
35,263863,final-intermixed-textured,v2,jsons/MX_seq11_0_VE125_flipped.json,http://54.235.29.9/FacialAge/BNav_EC2/DepthDuration/MX_fS_VE_MTurk/MX_fS_HTML.html#53,53,1600,785,1600,900,1-12-2024,19-18-15,36,VR_target_stimuli/s17_1x_1.8_291_BC.png,125,1x,1.8,1,1688,84,meters,jsons/MX_seq11_0_VE125_flipped.json,223720,490144,31,Woman
36,263863,final-intermixed-textured,v2,jsons/MX_seq11_0_VE125_flipped.json,http://54.235.29.9/FacialAge/BNav_EC2/DepthDuration/MX_fS_VE_MTurk/MX_fS_HTML.html#53,53,1600,785,1600,900,1-12-2024,19-18-15,37,VR_target_stimuli/s5_0.75x_4_375.png,125,0.75x,4.0,2,2222,130,meters,jsons/MX_seq11_0_VE125_flipped.json,223720,490144,31,Woman
37,263863,final-intermixed-textured,v2,jsons/MX_seq11_0_VE125_flipped.json,http://54.235.29.9/FacialAge/BNav_EC2/DepthDuration/MX_fS_VE_MTurk/MX_fS_HTML.html#53,53,1600,785,1600,900,1-12-2024,19-18-15,38,VR_target_stimuli/s37_0.75x_3.3_567_BC.png,125,0.75x,3.3,3,3169,117,meters,jsons/MX_seq11_0_VE125_flipped.json,223720,490144,31,Woman
38,263863,final-intermixed-textured,v2,jsons/MX_seq11_0_VE125_flipped.json,http://54.235.29.9/FacialAge/BNav_EC2/DepthDuration/MX_fS_VE_MTurk/MX_fS_HTML.html#53,53,1600,785,1600,900,1-12-2024,19-18-15,39,VR_target_stimuli/s46_1.3x_2.42_354_BC.png,125,1.3x,2.42,2,1692,114,meters,jsons/MX_seq11_0_VE125_flipped.json,223720,490144,31,Woman
39,263863,final-intermixed-textured,v2,jsons/MX_seq11_0_VE125_flipped.json,http://54.235.29.9/FacialAge/BNav_EC2/DepthDuration/MX_fS_VE_MTurk/MX_fS_HTML.html#53,53,1600,785,1600,900,1-12-2024,19-18-15,40,VR_target_stimuli/s22_1x_4.29_354.png,125,1x,4.29,3,2758,68,meters,jsons/MX_seq11_0_VE125_flipped.json,223720,490144,31,Woman
40,263863,final-intermixed-textured,v2,jsons/MX_seq11_0_VE125_flipped.json,http://54.235.29.9/FacialAge/BNav_EC2/DepthDuration/MX_fS_VE_MTurk/MX_fS_HTML.html#53,53,1600,785,1600,900,1-12-2024,19-18-15,41,VR_target_stimuli/s42_1.3x_3.2_305.png,125,1.3x,3.2,3,1689,113,meters,jsons/MX_seq11_0_VE125_flipped.json,223720,490144,31,Woman
41,263863,final-intermixed-textured,v2,jsons/MX_seq11_0_VE125_flipped.json,http://54.235.29.9/FacialAge/BNav_EC2/DepthDuration/MX_fS_VE_MTurk/MX_fS_HTML.html#53,53,1600,785,1600,900,1-12-2024,19-18-15,42,VR_target_stimuli/s25_0.75x_1.4_281_BC.png,125,0.75x,1.4,2,1687,123,meters,jsons/MX_seq11_0_VE125_flipped.json,223720,490144,31,Woman
42,263863,final-intermixed-textured,v2,jsons/MX_seq11_0_VE125_flipped.json,http://54.235.29.9/FacialAge/BNav_EC2/DepthDuration/MX_fS_VE_MTurk/MX_fS_HTML.html#53,53,1600,785,1600,900,1-12-2024,19-18-15,43,VR_target_stimuli/s50_1x_4.53_518_BC.png,125,1x,4.53,2,2922,136,meters,jsons/MX_seq11_0_VE125_flipped.json,223720,490144,31,Woman
43,263863,final-intermixed-textured,v2,jsons/MX_seq11_0_VE125_flipped.json,http://54.235.29.9/FacialAge/BNav_EC2/DepthDuration/MX_fS_VE_MTurk/MX_fS_HTML.html#53,53,1600,785,1600,900,1-12-2024,19-18-15,44,VR_target_stimuli/s53_0.75x_1.6_403.png,125,0.75x,1.6,1,3061,110,meters,jsons/MX_seq11_0_VE125_flipped.json,223720,490144,31,Woman
44,263863,final-intermixed-textured,v2,jsons/MX_seq11_0_VE125_flipped.json,http://54.235.29.9/FacialAge/BNav_EC2/DepthDuration/MX_fS_VE_MTurk/MX_fS_HTML.html#53,53,1600,785,1600,900,1-12-2024,19-18-15,45,catch_stimuli/c4_BC.png,125,,,0,2204,124,meters,jsons/MX_seq11_0_VE125_flipped.json,223720,490144,31,Woman
45,263863,final-intermixed-textured,v2,jsons/MX_seq11_0_VE125_flipped.json,http://54.235.29.9/FacialAge/BNav_EC2/DepthDuration/MX_fS_VE_MTurk/MX_fS_HTML.html#53,53,1600,785,1600,900,1-12-2024,19-18-15,46,VR_target_stimuli/s38_1.3x_3.55_358_BC.png,125,1.3x,3.55,2,5711,126,meters,jsons/MX_seq11_0_VE125_flipped.json,223720,490144,31,Woman
46,263863,final-intermixed-textured,v2,jsons/MX_seq11_0_VE125_flipped.json,http://54.235.29.9/FacialAge/BNav_EC2/DepthDuration/MX_fS_VE_MTurk/MX_fS_HTML.html#53,53,1600,785,1600,900,1-12-2024,19-18-15,47,VR_target_stimuli/s9_1x_1.2_263.png,125,1x,1.2,1,1976,124,meters,jsons/MX_seq11_0_VE125_flipped.json,223720,490144,31,Woman
47,263863,final-intermixed-textured,v2,jsons/MX_seq11_0_VE125_flipped.json,http://54.235.29.9/FacialAge/BNav_EC2/DepthDuration/MX_fS_VE_MTurk/MX_fS_HTML.html#53,53,1600,785,1600,900,1-12-2024,19-18-15,48,VR_target_stimuli/s44_1x_4.4_317.png,125,1x,4.4,1,1828,122,meters,jsons/MX_seq11_0_VE125_flipped.json,223720,490144,31,Woman
48,263863,final-intermixed-textured,v2,jsons/MX_seq11_0_VE125_flipped.json,http://54.235.29.9/FacialAge/BNav_EC2/DepthDuration/MX_fS_VE_MTurk/MX_fS_HTML.html#53,53,1600,785,1600,900,1-12-2024,19-18-15,49,VR_target_stimuli/s3_0.75x_5_381_BC.png,125,0.75x,5.0,4,2755,123,meters,jsons/MX_seq11_0_VE125_flipped.json,223720,490144,31,Woman
49,263863,final-intermixed-textured,v2,jsons/MX_seq11_0_VE125_flipped.json,http://54.235.29.9/FacialAge/BNav_EC2/DepthDuration/MX_fS_VE_MTurk/MX_fS_HTML.html#53,53,1600,785,1600,900,1-12-2024,19-18-15,50,VR_target_stimuli/s1_1.3x_1.7_261.png,125,1.3x,1.7,5,3401,72,meters,jsons/MX_seq11_0_VE125_flipped.json,223720,490144,31,Woman
50,263863,final-intermixed-textured,v2,jsons/MX_seq11_0_VE125_flipped.json,http://54.235.29.9/FacialAge/BNav_EC2/DepthDuration/MX_fS_VE_MTurk/MX_fS_HTML.html#53,53,1600,785,1600,900,1-12-2024,19-18-15,51,VR_target_stimuli/s11_0.75x_5_359.png,125,0.75x,5.0,5,2391,123,meters,jsons/MX_seq11_0_VE125_flipped.json,223720,490144,31,Woman
51,263863,final-intermixed-textured,v2,jsons/MX_seq11_0_VE125_flipped.json,http://54.235.29.9/FacialAge/BNav_EC2/DepthDuration/MX_fS_VE_MTurk/MX_fS_HTML.html#53,53,1600,785,1600,900,1-12-2024,19-18-15,52,VR_target_stimuli/s2_1x_2.7_390_BC.png,125,1x,2.7,3,2254,136,meters,jsons/MX_seq11_0_VE125_flipped.json,223720,490144,31,Woman
52,263863,final-intermixed-textured,v2,jsons/MX_seq11_0_VE125_flipped.json,http://54.235.29.9/FacialAge/BNav_EC2/DepthDuration/MX_fS_VE_MTurk/MX_fS_HTML.html#53,53,1600,785,1600,900,1-12-2024,19-18-15,53,catch_stimuli/c5_BC.png,125,,,0,2224,120,meters,jsons/MX_seq11_0_VE125_flipped.json,223720,490144,31,Woman
53,263863,final-intermixed-textured,v2,jsons/MX_seq11_0_VE125_flipped.json,http://54.235.29.9/FacialAge/BNav_EC2/DepthDuration/MX_fS_VE_MTurk/MX_fS_HTML.html#53,53,1600,785,1600,900,1-12-2024,19-18-15,54,VR_target_stimuli/s6_1.3x_2.1_298_BC.png,125,1.3x,2.1,3,3316,123,meters,jsons/MX_seq11_0_VE125_flipped.json,223720,490144,31,Woman
54,263863,final-intermixed-textured,v2,jsons/MX_seq11_0_VE125_flipped.json,http://54.235.29.9/FacialAge/BNav_EC2/DepthDuration/MX_fS_VE_MTurk/MX_fS_HTML.html#53,53,1600,785,1600,900,1-12-2024,19-18-15,55,VR_target_stimuli/s0_1x_2.6_351.png,125,1x,2.6,3,1962,87,meters,jsons/MX_seq11_0_VE125_flipped.json,223720,490144,31,Woman
55,263863,final-intermixed-textured,v2,jsons/MX_seq11_0_VE125_flipped.json,http://54.235.29.9/FacialAge/BNav_EC2/DepthDuration/MX_fS_VE_MTurk/MX_fS_HTML.html#53,53,1600,785,1600,900,1-12-2024,19-18-15,56,VR_target_stimuli/s34_0.75x_2.8_269_BC.png,125,0.75x,2.8,2,1788,124,meters,jsons/MX_seq11_0_VE125_flipped.json,223720,490144,31,Woman
56,263863,final-intermixed-textured,v2,jsons/MX_seq11_0_VE125_flipped.json,http://54.235.29.9/FacialAge/BNav_EC2/DepthDuration/MX_fS_VE_MTurk/MX_fS_HTML.html#53,53,1600,785,1600,900,1-12-2024,19-18-15,57,VR_target_stimuli/s13_1.3x_2.4_313_BC.png,125,1.3x,2.4,1,2326,126,meters,jsons/MX_seq11_0_VE125_flipped.json,223720,490144,31,Woman
57,263863,final-intermixed-textured,v2,jsons/MX_seq11_0_VE125_flipped.json,http://54.235.29.9/FacialAge/BNav_EC2/DepthDuration/MX_fS_VE_MTurk/MX_fS_HTML.html#53,53,1600,785,1600,900,1-12-2024,19-18-15,58,VR_target_stimuli/s14_1.3x_3.83_359.png,125,1.3x,3.83,2,1631,124,meters,jsons/MX_seq11_0_VE125_flipped.json,223720,490144,31,Woman
58,263863,final-intermixed-textured,v2,jsons/MX_seq11_0_VE125_flipped.json,http://54.235.29.9/FacialAge/BNav_EC2/DepthDuration/MX_fS_VE_MTurk/MX_fS_HTML.html#53,53,1600,785,1600,900,1-12-2024,19-18-15,59,VR_target_stimuli/s47_1x_3.45_370_BC.png,125,1x,3.45,3,3984,122,meters,jsons/MX_seq11_0_VE125_flipped.json,223720,490144,31,Woman
59,263863,final-intermixed-textured,v2,jsons/MX_seq11_0_VE125_flipped.json,http://54.235.29.9/FacialAge/BNav_EC2/DepthDuration/MX_fS_VE_MTurk/MX_fS_HTML.html#53,53,1600,785,1600,900,1-12-2024,19-18-15,60,VR_target_stimuli/s29_0.75x_1.3_246.png,125,0.75x,1.3,2,1612,138,meters,jsons/MX_seq11_0_VE125_flipped.json,223720,490144,31,Woman
