,subjID,experimentName,versionName,sequenceName,url,selected_row,windowWidth,windowHeight,screenWidth,screenHeight,startDate,startTime,trial,stimulus,duration,scale,actual_depth,depth_estimate,trial_RT,log_sceneDuration,unitSelection,seq_filepath,experimentTime,totalTime,age,gender
0,266280,final-intermixed-textured,v2,jsons/MX_seq24_0_VE125_flipped.json,http://54.235.29.9/FacialAge/BNav_EC2/DepthDuration/MX_fS_VE_MTurk/MX_fS_HTML.html#199,199,1920,919,1920,1080,1-12-2024,20-13-41,1,VR_target_stimuli/s33_0.75x_3.1_361.png,125,0.75x,3.1,4,3452,124,meters,jsons/MX_seq24_0_VE125_flipped.json,163351,235186,24,Man
1,266280,final-intermixed-textured,v2,jsons/MX_seq24_0_VE125_flipped.json,http://54.235.29.9/FacialAge/BNav_EC2/DepthDuration/MX_fS_VE_MTurk/MX_fS_HTML.html#199,199,1920,919,1920,1080,1-12-2024,20-13-41,2,VR_target_stimuli/s52_1x_3.2_275.png,125,1x,3.2,2,1720,132,meters,jsons/MX_seq24_0_VE125_flipped.json,163351,235186,24,Man
2,266280,final-intermixed-textured,v2,jsons/MX_seq24_0_VE125_flipped.json,http://54.235.29.9/FacialAge/BNav_EC2/DepthDuration/MX_fS_VE_MTurk/MX_fS_HTML.html#199,199,1920,919,1920,1080,1-12-2024,20-13-41,3,VR_target_stimuli/s32_1.3x_1.5_224_BC.png,125,1.3x,1.5,2,1735,125,meters,jsons/MX_seq24_0_VE125_flipped.json,163351,235186,24,Man
3,266280,final-intermixed-textured,v2,jsons/MX_seq24_0_VE125_flipped.json,http://54.235.29.9/FacialAge/BNav_EC2/DepthDuration/MX_fS_VE_MTurk/MX_fS_HTML.html#199,199,1920,919,1920,1080,1-12-2024,20-13-41,4,VR_target_stimuli/s18_1x_2.25_353_BC.png,125,1x,2.25,1,2080,124,meters,jsons/MX_seq24_0_VE125_flipped.json,163351,235186,24,Man
4,266280,final-intermixed-textured,v2,jsons/MX_seq24_0_VE125_flipped.json,http://54.235.29.9/FacialAge/BNav_EC2/DepthDuration/MX_fS_VE_MTurk/MX_fS_HTML.html#199,199,1920,919,1920,1080,1-12-2024,20-13-41,5,VR_target_stimuli/s39_0.75x_1_205_BC.png,125,0.75x,1.0,1,1500,124,meters,jsons/MX_seq24_0_VE125_flipped.json,163351,235186,24,Man
5,266280,final-intermixed-textured,v2,jsons/MX_seq24_0_VE125_flipped.json,http://54.235.29.9/FacialAge/BNav_EC2/DepthDuration/MX_fS_VE_MTurk/MX_fS_HTML.html#199,199,1920,919,1920,1080,1-12-2024,20-13-41,6,VR_target_stimuli/s51_1.3x_3.64_479.png,125,1.3x,3.64,2,2014,140,meters,jsons/MX_seq24_0_VE125_flipped.json,163351,235186,24,Man
6,266280,final-intermixed-textured,v2,jsons/MX_seq24_0_VE125_flipped.json,http://54.235.29.9/FacialAge/BNav_EC2/DepthDuration/MX_fS_VE_MTurk/MX_fS_HTML.html#199,199,1920,919,1920,1080,1-12-2024,20-13-41,7,catch_stimuli/c0_BC.png,125,,,2,2308,124,meters,jsons/MX_seq24_0_VE125_flipped.json,163351,235186,24,Man
7,266280,final-intermixed-textured,v2,jsons/MX_seq24_0_VE125_flipped.json,http://54.235.29.9/FacialAge/BNav_EC2/DepthDuration/MX_fS_VE_MTurk/MX_fS_HTML.html#199,199,1920,919,1920,1080,1-12-2024,20-13-41,8,VR_target_stimuli/s43_1.3x_2.2_363_BC.png,125,1.3x,2.2,3,1556,138,meters,jsons/MX_seq24_0_VE125_flipped.json,163351,235186,24,Man
8,266280,final-intermixed-textured,v2,jsons/MX_seq24_0_VE125_flipped.json,http://54.235.29.9/FacialAge/BNav_EC2/DepthDuration/MX_fS_VE_MTurk/MX_fS_HTML.html#199,199,1920,919,1920,1080,1-12-2024,20-13-41,9,VR_target_stimuli/s24_1x_3.3_349.png,125,1x,3.3,7,4202,124,meters,jsons/MX_seq24_0_VE125_flipped.json,163351,235186,24,Man
9,266280,final-intermixed-textured,v2,jsons/MX_seq24_0_VE125_flipped.json,http://54.235.29.9/FacialAge/BNav_EC2/DepthDuration/MX_fS_VE_MTurk/MX_fS_HTML.html#199,199,1920,919,1920,1080,1-12-2024,20-13-41,10,VR_target_stimuli/s10_0.75x_2.7_321.png,125,0.75x,2.7,2,1560,124,meters,jsons/MX_seq24_0_VE125_flipped.json,163351,235186,24,Man
10,266280,final-intermixed-textured,v2,jsons/MX_seq24_0_VE125_flipped.json,http://54.235.29.9/FacialAge/BNav_EC2/DepthDuration/MX_fS_VE_MTurk/MX_fS_HTML.html#199,199,1920,919,1920,1080,1-12-2024,20-13-41,11,VR_target_stimuli/s36_1x_4.1_423_BC.png,125,1x,4.1,4,2669,124,meters,jsons/MX_seq24_0_VE125_flipped.json,163351,235186,24,Man
11,266280,final-intermixed-textured,v2,jsons/MX_seq24_0_VE125_flipped.json,http://54.235.29.9/FacialAge/BNav_EC2/DepthDuration/MX_fS_VE_MTurk/MX_fS_HTML.html#199,199,1920,919,1920,1080,1-12-2024,20-13-41,12,VR_target_stimuli/s40_1.3x_1.2_332.png,125,1.3x,1.2,2,2622,124,meters,jsons/MX_seq24_0_VE125_flipped.json,163351,235186,24,Man
12,266280,final-intermixed-textured,v2,jsons/MX_seq24_0_VE125_flipped.json,http://54.235.29.9/FacialAge/BNav_EC2/DepthDuration/MX_fS_VE_MTurk/MX_fS_HTML.html#199,199,1920,919,1920,1080,1-12-2024,20-13-41,13,VR_target_stimuli/s41_0.75x_2.1_281_BC.png,125,0.75x,2.1,2,1715,124,meters,jsons/MX_seq24_0_VE125_flipped.json,163351,235186,24,Man
13,266280,final-intermixed-textured,v2,jsons/MX_seq24_0_VE125_flipped.json,http://54.235.29.9/FacialAge/BNav_EC2/DepthDuration/MX_fS_VE_MTurk/MX_fS_HTML.html#199,199,1920,919,1920,1080,1-12-2024,20-13-41,14,VR_target_stimuli/s45_1.3x_3.5_377_BC.png,125,1.3x,3.5,2,1420,124,meters,jsons/MX_seq24_0_VE125_flipped.json,163351,235186,24,Man
14,266280,final-intermixed-textured,v2,jsons/MX_seq24_0_VE125_flipped.json,http://54.235.29.9/FacialAge/BNav_EC2/DepthDuration/MX_fS_VE_MTurk/MX_fS_HTML.html#199,199,1920,919,1920,1080,1-12-2024,20-13-41,15,VR_target_stimuli/s23_1x_3.65_353_BC.png,125,1x,3.65,3,4072,123,meters,jsons/MX_seq24_0_VE125_flipped.json,163351,235186,24,Man
15,266280,final-intermixed-textured,v2,jsons/MX_seq24_0_VE125_flipped.json,http://54.235.29.9/FacialAge/BNav_EC2/DepthDuration/MX_fS_VE_MTurk/MX_fS_HTML.html#199,199,1920,919,1920,1080,1-12-2024,20-13-41,16,VR_target_stimuli/s26_0.75x_4_430.png,125,0.75x,4.0,3,1721,124,meters,jsons/MX_seq24_0_VE125_flipped.json,163351,235186,24,Man
16,266280,final-intermixed-textured,v2,jsons/MX_seq24_0_VE125_flipped.json,http://54.235.29.9/FacialAge/BNav_EC2/DepthDuration/MX_fS_VE_MTurk/MX_fS_HTML.html#199,199,1920,919,1920,1080,1-12-2024,20-13-41,17,catch_stimuli/c1_BC.png,125,,,4,2377,124,meters,jsons/MX_seq24_0_VE125_flipped.json,163351,235186,24,Man
17,266280,final-intermixed-textured,v2,jsons/MX_seq24_0_VE125_flipped.json,http://54.235.29.9/FacialAge/BNav_EC2/DepthDuration/MX_fS_VE_MTurk/MX_fS_HTML.html#199,199,1920,919,1920,1080,1-12-2024,20-13-41,18,VR_target_stimuli/s12_0.75x_3.1_364_BC.png,125,0.75x,3.1,2,1752,123,meters,jsons/MX_seq24_0_VE125_flipped.json,163351,235186,24,Man
18,266280,final-intermixed-textured,v2,jsons/MX_seq24_0_VE125_flipped.json,http://54.235.29.9/FacialAge/BNav_EC2/DepthDuration/MX_fS_VE_MTurk/MX_fS_HTML.html#199,199,1920,919,1920,1080,1-12-2024,20-13-41,19,VR_target_stimuli/s30_1.3x_2.3_337.png,125,1.3x,2.3,2,1515,123,meters,jsons/MX_seq24_0_VE125_flipped.json,163351,235186,24,Man
19,266280,final-intermixed-textured,v2,jsons/MX_seq24_0_VE125_flipped.json,http://54.235.29.9/FacialAge/BNav_EC2/DepthDuration/MX_fS_VE_MTurk/MX_fS_HTML.html#199,199,1920,919,1920,1080,1-12-2024,20-13-41,20,VR_target_stimuli/s16_1x_1_219.png,125,1x,1.0,1,2062,124,meters,jsons/MX_seq24_0_VE125_flipped.json,163351,235186,24,Man
20,266280,final-intermixed-textured,v2,jsons/MX_seq24_0_VE125_flipped.json,http://54.235.29.9/FacialAge/BNav_EC2/DepthDuration/MX_fS_VE_MTurk/MX_fS_HTML.html#199,199,1920,919,1920,1080,1-12-2024,20-13-41,21,VR_target_stimuli/s17_1.3x_1.8_300.png,125,1.3x,1.8,1,1437,124,meters,jsons/MX_seq24_0_VE125_flipped.json,163351,235186,24,Man
21,266280,final-intermixed-textured,v2,jsons/MX_seq24_0_VE125_flipped.json,http://54.235.29.9/FacialAge/BNav_EC2/DepthDuration/MX_fS_VE_MTurk/MX_fS_HTML.html#199,199,1920,919,1920,1080,1-12-2024,20-13-41,22,VR_target_stimuli/s5_0.75x_4_375.png,125,0.75x,4.0,2,2177,124,meters,jsons/MX_seq24_0_VE125_flipped.json,163351,235186,24,Man
22,266280,final-intermixed-textured,v2,jsons/MX_seq24_0_VE125_flipped.json,http://54.235.29.9/FacialAge/BNav_EC2/DepthDuration/MX_fS_VE_MTurk/MX_fS_HTML.html#199,199,1920,919,1920,1080,1-12-2024,20-13-41,23,VR_target_stimuli/s37_1x_3.3_563.png,125,1x,3.3,3,2817,124,meters,jsons/MX_seq24_0_VE125_flipped.json,163351,235186,24,Man
23,266280,final-intermixed-textured,v2,jsons/MX_seq24_0_VE125_flipped.json,http://54.235.29.9/FacialAge/BNav_EC2/DepthDuration/MX_fS_VE_MTurk/MX_fS_HTML.html#199,199,1920,919,1920,1080,1-12-2024,20-13-41,24,VR_target_stimuli/s46_0.75x_2.42_343_BC.png,125,0.75x,2.42,1,1616,124,meters,jsons/MX_seq24_0_VE125_flipped.json,163351,235186,24,Man
24,266280,final-intermixed-textured,v2,jsons/MX_seq24_0_VE125_flipped.json,http://54.235.29.9/FacialAge/BNav_EC2/DepthDuration/MX_fS_VE_MTurk/MX_fS_HTML.html#199,199,1920,919,1920,1080,1-12-2024,20-13-41,25,VR_target_stimuli/s22_1.3x_4.29_364_BC.png,125,1.3x,4.29,2,2760,124,meters,jsons/MX_seq24_0_VE125_flipped.json,163351,235186,24,Man
25,266280,final-intermixed-textured,v2,jsons/MX_seq24_0_VE125_flipped.json,http://54.235.29.9/FacialAge/BNav_EC2/DepthDuration/MX_fS_VE_MTurk/MX_fS_HTML.html#199,199,1920,919,1920,1080,1-12-2024,20-13-41,26,catch_stimuli/c2_BC.png,125,,,2,13777,123,meters,jsons/MX_seq24_0_VE125_flipped.json,163351,235186,24,Man
26,266280,final-intermixed-textured,v2,jsons/MX_seq24_0_VE125_flipped.json,http://54.235.29.9/FacialAge/BNav_EC2/DepthDuration/MX_fS_VE_MTurk/MX_fS_HTML.html#199,199,1920,919,1920,1080,1-12-2024,20-13-41,27,VR_target_stimuli/s42_1x_3.2_303_BC.png,125,1x,3.2,4,2866,130,meters,jsons/MX_seq24_0_VE125_flipped.json,163351,235186,24,Man
27,266280,final-intermixed-textured,v2,jsons/MX_seq24_0_VE125_flipped.json,http://54.235.29.9/FacialAge/BNav_EC2/DepthDuration/MX_fS_VE_MTurk/MX_fS_HTML.html#199,199,1920,919,1920,1080,1-12-2024,20-13-41,28,VR_target_stimuli/s25_1x_1.4_290_BC.png,125,1x,1.4,2,1486,123,meters,jsons/MX_seq24_0_VE125_flipped.json,163351,235186,24,Man
28,266280,final-intermixed-textured,v2,jsons/MX_seq24_0_VE125_flipped.json,http://54.235.29.9/FacialAge/BNav_EC2/DepthDuration/MX_fS_VE_MTurk/MX_fS_HTML.html#199,199,1920,919,1920,1080,1-12-2024,20-13-41,29,VR_target_stimuli/s50_0.75x_4.53_517_BC.png,125,0.75x,4.53,2,2280,134,meters,jsons/MX_seq24_0_VE125_flipped.json,163351,235186,24,Man
29,266280,final-intermixed-textured,v2,jsons/MX_seq24_0_VE125_flipped.json,http://54.235.29.9/FacialAge/BNav_EC2/DepthDuration/MX_fS_VE_MTurk/MX_fS_HTML.html#199,199,1920,919,1920,1080,1-12-2024,20-13-41,30,VR_target_stimuli/s53_1.3x_1.6_355.png,125,1.3x,1.6,1,1292,124,meters,jsons/MX_seq24_0_VE125_flipped.json,163351,235186,24,Man
30,266280,final-intermixed-textured,v2,jsons/MX_seq24_0_VE125_flipped.json,http://54.235.29.9/FacialAge/BNav_EC2/DepthDuration/MX_fS_VE_MTurk/MX_fS_HTML.html#199,199,1920,919,1920,1080,1-12-2024,20-13-41,31,VR_target_stimuli/s38_1x_3.55_353.png,125,1x,3.55,2,1325,124,meters,jsons/MX_seq24_0_VE125_flipped.json,163351,235186,24,Man
31,266280,final-intermixed-textured,v2,jsons/MX_seq24_0_VE125_flipped.json,http://54.235.29.9/FacialAge/BNav_EC2/DepthDuration/MX_fS_VE_MTurk/MX_fS_HTML.html#199,199,1920,919,1920,1080,1-12-2024,20-13-41,32,VR_target_stimuli/s9_1.3x_1.2_276_BC.png,125,1.3x,1.2,1,1283,124,meters,jsons/MX_seq24_0_VE125_flipped.json,163351,235186,24,Man
32,266280,final-intermixed-textured,v2,jsons/MX_seq24_0_VE125_flipped.json,http://54.235.29.9/FacialAge/BNav_EC2/DepthDuration/MX_fS_VE_MTurk/MX_fS_HTML.html#199,199,1920,919,1920,1080,1-12-2024,20-13-41,33,VR_target_stimuli/s44_0.75x_4.4_314.png,125,0.75x,4.4,4,1479,124,meters,jsons/MX_seq24_0_VE125_flipped.json,163351,235186,24,Man
33,266280,final-intermixed-textured,v2,jsons/MX_seq24_0_VE125_flipped.json,http://54.235.29.9/FacialAge/BNav_EC2/DepthDuration/MX_fS_VE_MTurk/MX_fS_HTML.html#199,199,1920,919,1920,1080,1-12-2024,20-13-41,34,catch_stimuli/c3_BC.png,125,,,2,1564,124,meters,jsons/MX_seq24_0_VE125_flipped.json,163351,235186,24,Man
34,266280,final-intermixed-textured,v2,jsons/MX_seq24_0_VE125_flipped.json,http://54.235.29.9/FacialAge/BNav_EC2/DepthDuration/MX_fS_VE_MTurk/MX_fS_HTML.html#199,199,1920,919,1920,1080,1-12-2024,20-13-41,35,VR_target_stimuli/s3_1.3x_5_390_BC.png,125,1.3x,5.0,5,1692,127,meters,jsons/MX_seq24_0_VE125_flipped.json,163351,235186,24,Man
35,266280,final-intermixed-textured,v2,jsons/MX_seq24_0_VE125_flipped.json,http://54.235.29.9/FacialAge/BNav_EC2/DepthDuration/MX_fS_VE_MTurk/MX_fS_HTML.html#199,199,1920,919,1920,1080,1-12-2024,20-13-41,36,VR_target_stimuli/s1_1x_1.7_262.png,125,1x,1.7,2,1308,123,meters,jsons/MX_seq24_0_VE125_flipped.json,163351,235186,24,Man
36,266280,final-intermixed-textured,v2,jsons/MX_seq24_0_VE125_flipped.json,http://54.235.29.9/FacialAge/BNav_EC2/DepthDuration/MX_fS_VE_MTurk/MX_fS_HTML.html#199,199,1920,919,1920,1080,1-12-2024,20-13-41,37,VR_target_stimuli/s11_0.75x_5_359_BC.png,125,0.75x,5.0,2,1397,123,meters,jsons/MX_seq24_0_VE125_flipped.json,163351,235186,24,Man
37,266280,final-intermixed-textured,v2,jsons/MX_seq24_0_VE125_flipped.json,http://54.235.29.9/FacialAge/BNav_EC2/DepthDuration/MX_fS_VE_MTurk/MX_fS_HTML.html#199,199,1920,919,1920,1080,1-12-2024,20-13-41,38,VR_target_stimuli/s2_0.75x_2.7_384.png,125,0.75x,2.7,1,1569,124,meters,jsons/MX_seq24_0_VE125_flipped.json,163351,235186,24,Man
38,266280,final-intermixed-textured,v2,jsons/MX_seq24_0_VE125_flipped.json,http://54.235.29.9/FacialAge/BNav_EC2/DepthDuration/MX_fS_VE_MTurk/MX_fS_HTML.html#199,199,1920,919,1920,1080,1-12-2024,20-13-41,39,VR_target_stimuli/s6_1.3x_2.1_298.png,125,1.3x,2.1,2,2075,124,meters,jsons/MX_seq24_0_VE125_flipped.json,163351,235186,24,Man
39,266280,final-intermixed-textured,v2,jsons/MX_seq24_0_VE125_flipped.json,http://54.235.29.9/FacialAge/BNav_EC2/DepthDuration/MX_fS_VE_MTurk/MX_fS_HTML.html#199,199,1920,919,1920,1080,1-12-2024,20-13-41,40,VR_target_stimuli/s0_1x_2.6_351_BC.png,125,1x,2.6,3,3406,132,meters,jsons/MX_seq24_0_VE125_flipped.json,163351,235186,24,Man
40,266280,final-intermixed-textured,v2,jsons/MX_seq24_0_VE125_flipped.json,http://54.235.29.9/FacialAge/BNav_EC2/DepthDuration/MX_fS_VE_MTurk/MX_fS_HTML.html#199,199,1920,919,1920,1080,1-12-2024,20-13-41,41,VR_target_stimuli/s34_1.3x_2.8_294.png,125,1.3x,2.8,2,2103,124,meters,jsons/MX_seq24_0_VE125_flipped.json,163351,235186,24,Man
41,266280,final-intermixed-textured,v2,jsons/MX_seq24_0_VE125_flipped.json,http://54.235.29.9/FacialAge/BNav_EC2/DepthDuration/MX_fS_VE_MTurk/MX_fS_HTML.html#199,199,1920,919,1920,1080,1-12-2024,20-13-41,42,VR_target_stimuli/s13_0.75x_2.4_308.png,125,0.75x,2.4,3,1793,124,meters,jsons/MX_seq24_0_VE125_flipped.json,163351,235186,24,Man
42,266280,final-intermixed-textured,v2,jsons/MX_seq24_0_VE125_flipped.json,http://54.235.29.9/FacialAge/BNav_EC2/DepthDuration/MX_fS_VE_MTurk/MX_fS_HTML.html#199,199,1920,919,1920,1080,1-12-2024,20-13-41,43,VR_target_stimuli/s14_1x_ 3.83_357.png,125,1x,3.83,1,1439,124,meters,jsons/MX_seq24_0_VE125_flipped.json,163351,235186,24,Man
43,266280,final-intermixed-textured,v2,jsons/MX_seq24_0_VE125_flipped.json,http://54.235.29.9/FacialAge/BNav_EC2/DepthDuration/MX_fS_VE_MTurk/MX_fS_HTML.html#199,199,1920,919,1920,1080,1-12-2024,20-13-41,44,VR_target_stimuli/s47_0.75x_3.45_366_BC.png,125,0.75x,3.45,5,2375,137,meters,jsons/MX_seq24_0_VE125_flipped.json,163351,235186,24,Man
44,266280,final-intermixed-textured,v2,jsons/MX_seq24_0_VE125_flipped.json,http://54.235.29.9/FacialAge/BNav_EC2/DepthDuration/MX_fS_VE_MTurk/MX_fS_HTML.html#199,199,1920,919,1920,1080,1-12-2024,20-13-41,45,catch_stimuli/c4_BC.png,125,,,4,1850,124,meters,jsons/MX_seq24_0_VE125_flipped.json,163351,235186,24,Man
45,266280,final-intermixed-textured,v2,jsons/MX_seq24_0_VE125_flipped.json,http://54.235.29.9/FacialAge/BNav_EC2/DepthDuration/MX_fS_VE_MTurk/MX_fS_HTML.html#199,199,1920,919,1920,1080,1-12-2024,20-13-41,46,VR_target_stimuli/s29_1.3x_1.3_253_BC.png,125,1.3x,1.3,3,2271,124,meters,jsons/MX_seq24_0_VE125_flipped.json,163351,235186,24,Man
46,266280,final-intermixed-textured,v2,jsons/MX_seq24_0_VE125_flipped.json,http://54.235.29.9/FacialAge/BNav_EC2/DepthDuration/MX_fS_VE_MTurk/MX_fS_HTML.html#199,199,1920,919,1920,1080,1-12-2024,20-13-41,47,VR_target_stimuli/s28_1x_3.2_362_BC.png,125,1x,3.2,3,2200,124,meters,jsons/MX_seq24_0_VE125_flipped.json,163351,235186,24,Man
47,266280,final-intermixed-textured,v2,jsons/MX_seq24_0_VE125_flipped.json,http://54.235.29.9/FacialAge/BNav_EC2/DepthDuration/MX_fS_VE_MTurk/MX_fS_HTML.html#199,199,1920,919,1920,1080,1-12-2024,20-13-41,48,VR_target_stimuli/s48_1x_2.55_256.png,125,1x,2.55,5,2065,124,meters,jsons/MX_seq24_0_VE125_flipped.json,163351,235186,24,Man
48,266280,final-intermixed-textured,v2,jsons/MX_seq24_0_VE125_flipped.json,http://54.235.29.9/FacialAge/BNav_EC2/DepthDuration/MX_fS_VE_MTurk/MX_fS_HTML.html#199,199,1920,919,1920,1080,1-12-2024,20-13-41,49,VR_target_stimuli/s19_0.75x_1.21_257_BC.png,125,0.75x,1.21,5,2775,123,meters,jsons/MX_seq24_0_VE125_flipped.json,163351,235186,24,Man
49,266280,final-intermixed-textured,v2,jsons/MX_seq24_0_VE125_flipped.json,http://54.235.29.9/FacialAge/BNav_EC2/DepthDuration/MX_fS_VE_MTurk/MX_fS_HTML.html#199,199,1920,919,1920,1080,1-12-2024,20-13-41,50,VR_target_stimuli/s21_1.3x_4.22_384.png,125,1.3x,4.22,4,2017,136,meters,jsons/MX_seq24_0_VE125_flipped.json,163351,235186,24,Man
50,266280,final-intermixed-textured,v2,jsons/MX_seq24_0_VE125_flipped.json,http://54.235.29.9/FacialAge/BNav_EC2/DepthDuration/MX_fS_VE_MTurk/MX_fS_HTML.html#199,199,1920,919,1920,1080,1-12-2024,20-13-41,51,VR_target_stimuli/s8_0.75x_3.1_325.png,125,0.75x,3.1,2,1498,124,meters,jsons/MX_seq24_0_VE125_flipped.json,163351,235186,24,Man
51,266280,final-intermixed-textured,v2,jsons/MX_seq24_0_VE125_flipped.json,http://54.235.29.9/FacialAge/BNav_EC2/DepthDuration/MX_fS_VE_MTurk/MX_fS_HTML.html#199,199,1920,919,1920,1080,1-12-2024,20-13-41,52,VR_target_stimuli/s27_1x_1.76_248_BC.png,125,1x,1.76,5,2073,124,meters,jsons/MX_seq24_0_VE125_flipped.json,163351,235186,24,Man
52,266280,final-intermixed-textured,v2,jsons/MX_seq24_0_VE125_flipped.json,http://54.235.29.9/FacialAge/BNav_EC2/DepthDuration/MX_fS_VE_MTurk/MX_fS_HTML.html#199,199,1920,919,1920,1080,1-12-2024,20-13-41,53,catch_stimuli/c5_BC.png,125,,,2,1388,125,meters,jsons/MX_seq24_0_VE125_flipped.json,163351,235186,24,Man
53,266280,final-intermixed-textured,v2,jsons/MX_seq24_0_VE125_flipped.json,http://54.235.29.9/FacialAge/BNav_EC2/DepthDuration/MX_fS_VE_MTurk/MX_fS_HTML.html#199,199,1920,919,1920,1080,1-12-2024,20-13-41,54,VR_target_stimuli/s15_1.3x_4.2_389_BC.png,125,1.3x,4.2,2,1600,124,meters,jsons/MX_seq24_0_VE125_flipped.json,163351,235186,24,Man
54,266280,final-intermixed-textured,v2,jsons/MX_seq24_0_VE125_flipped.json,http://54.235.29.9/FacialAge/BNav_EC2/DepthDuration/MX_fS_VE_MTurk/MX_fS_HTML.html#199,199,1920,919,1920,1080,1-12-2024,20-13-41,55,VR_target_stimuli/s4_1x_1.4_313.png,125,1x,1.4,3,1551,124,meters,jsons/MX_seq24_0_VE125_flipped.json,163351,235186,24,Man
55,266280,final-intermixed-textured,v2,jsons/MX_seq24_0_VE125_flipped.json,http://54.235.29.9/FacialAge/BNav_EC2/DepthDuration/MX_fS_VE_MTurk/MX_fS_HTML.html#199,199,1920,919,1920,1080,1-12-2024,20-13-41,56,VR_target_stimuli/s35_0.75x_2_323_BC.png,125,0.75x,2.0,2,1258,124,meters,jsons/MX_seq24_0_VE125_flipped.json,163351,235186,24,Man
56,266280,final-intermixed-textured,v2,jsons/MX_seq24_0_VE125_flipped.json,http://54.235.29.9/FacialAge/BNav_EC2/DepthDuration/MX_fS_VE_MTurk/MX_fS_HTML.html#199,199,1920,919,1920,1080,1-12-2024,20-13-41,57,VR_target_stimuli/s49_1.3x_4.67_354.png,125,1.3x,4.67,3,1448,124,meters,jsons/MX_seq24_0_VE125_flipped.json,163351,235186,24,Man
57,266280,final-intermixed-textured,v2,jsons/MX_seq24_0_VE125_flipped.json,http://54.235.29.9/FacialAge/BNav_EC2/DepthDuration/MX_fS_VE_MTurk/MX_fS_HTML.html#199,199,1920,919,1920,1080,1-12-2024,20-13-41,58,VR_target_stimuli/s7_1.3x_1.5_256_BC.png,125,1.3x,1.5,3,3031,124,meters,jsons/MX_seq24_0_VE125_flipped.json,163351,235186,24,Man
58,266280,final-intermixed-textured,v2,jsons/MX_seq24_0_VE125_flipped.json,http://54.235.29.9/FacialAge/BNav_EC2/DepthDuration/MX_fS_VE_MTurk/MX_fS_HTML.html#199,199,1920,919,1920,1080,1-12-2024,20-13-41,59,VR_target_stimuli/s20_1x_4.99_398_BC.png,125,1x,4.99,2,1366,129,meters,jsons/MX_seq24_0_VE125_flipped.json,163351,235186,24,Man
59,266280,final-intermixed-textured,v2,jsons/MX_seq24_0_VE125_flipped.json,http://54.235.29.9/FacialAge/BNav_EC2/DepthDuration/MX_fS_VE_MTurk/MX_fS_HTML.html#199,199,1920,919,1920,1080,1-12-2024,20-13-41,60,VR_target_stimuli/s31_0.75x_4.96_329.png,125,0.75x,4.96,8,3157,139,meters,jsons/MX_seq24_0_VE125_flipped.json,163351,235186,24,Man
