,subjID,experimentName,versionName,sequenceName,url,selected_row,windowWidth,windowHeight,screenWidth,screenHeight,startDate,startTime,trial,stimulus,duration,scale,actual_depth,depth_estimate,trial_RT,log_sceneDuration,unitSelection,seq_filepath,experimentTime,totalTime,age,gender
0,280629,final-intermixed-textured,v2,jsons/MX_seq52_1_VE125_flipped.json,http://54.235.29.9/FacialAge/BNav_EC2/DepthDuration/MX_fS_VE_MTurk/MX_fS_HTML.html#135,135,1408,793,1549,871,1-12-2024,18-40-47,1,VR_target_stimuli/s9_1.3x_1.2_276.png,125,1.3x,1.2,3,2246,128,meters,jsons/MX_seq52_1_VE125_flipped.json,145125,360545,33,Man
1,280629,final-intermixed-textured,v2,jsons/MX_seq52_1_VE125_flipped.json,http://54.235.29.9/FacialAge/BNav_EC2/DepthDuration/MX_fS_VE_MTurk/MX_fS_HTML.html#135,135,1408,793,1549,871,1-12-2024,18-40-47,2,VR_target_stimuli/s44_0.75x_4.4_314_BC.png,125,0.75x,4.4,0,1918,127,meters,jsons/MX_seq52_1_VE125_flipped.json,145125,360545,33,Man
2,280629,final-intermixed-textured,v2,jsons/MX_seq52_1_VE125_flipped.json,http://54.235.29.9/FacialAge/BNav_EC2/DepthDuration/MX_fS_VE_MTurk/MX_fS_HTML.html#135,135,1408,793,1549,871,1-12-2024,18-40-47,3,VR_target_stimuli/s3_1x_5_385.png,125,1x,5.0,8,3048,129,meters,jsons/MX_seq52_1_VE125_flipped.json,145125,360545,33,Man
3,280629,final-intermixed-textured,v2,jsons/MX_seq52_1_VE125_flipped.json,http://54.235.29.9/FacialAge/BNav_EC2/DepthDuration/MX_fS_VE_MTurk/MX_fS_HTML.html#135,135,1408,793,1549,871,1-12-2024,18-40-47,4,VR_target_stimuli/s1_0.75x_1.7_265.png,125,0.75x,1.7,2,3326,125,meters,jsons/MX_seq52_1_VE125_flipped.json,145125,360545,33,Man
4,280629,final-intermixed-textured,v2,jsons/MX_seq52_1_VE125_flipped.json,http://54.235.29.9/FacialAge/BNav_EC2/DepthDuration/MX_fS_VE_MTurk/MX_fS_HTML.html#135,135,1408,793,1549,871,1-12-2024,18-40-47,5,VR_target_stimuli/s11_1.3x_5_363_BC.png,125,1.3x,5.0,5,3325,116,meters,jsons/MX_seq52_1_VE125_flipped.json,145125,360545,33,Man
5,280629,final-intermixed-textured,v2,jsons/MX_seq52_1_VE125_flipped.json,http://54.235.29.9/FacialAge/BNav_EC2/DepthDuration/MX_fS_VE_MTurk/MX_fS_HTML.html#135,135,1408,793,1549,871,1-12-2024,18-40-47,6,VR_target_stimuli/s2_1x_2.7_390_BC.png,125,1x,2.7,3,1486,125,meters,jsons/MX_seq52_1_VE125_flipped.json,145125,360545,33,Man
6,280629,final-intermixed-textured,v2,jsons/MX_seq52_1_VE125_flipped.json,http://54.235.29.9/FacialAge/BNav_EC2/DepthDuration/MX_fS_VE_MTurk/MX_fS_HTML.html#135,135,1408,793,1549,871,1-12-2024,18-40-47,7,catch_stimuli/c0_BC.png,125,,,0,1544,125,meters,jsons/MX_seq52_1_VE125_flipped.json,145125,360545,33,Man
7,280629,final-intermixed-textured,v2,jsons/MX_seq52_1_VE125_flipped.json,http://54.235.29.9/FacialAge/BNav_EC2/DepthDuration/MX_fS_VE_MTurk/MX_fS_HTML.html#135,135,1408,793,1549,871,1-12-2024,18-40-47,8,VR_target_stimuli/s6_1x_2.1_293.png,125,1x,2.1,4,1534,126,meters,jsons/MX_seq52_1_VE125_flipped.json,145125,360545,33,Man
8,280629,final-intermixed-textured,v2,jsons/MX_seq52_1_VE125_flipped.json,http://54.235.29.9/FacialAge/BNav_EC2/DepthDuration/MX_fS_VE_MTurk/MX_fS_HTML.html#135,135,1408,793,1549,871,1-12-2024,18-40-47,9,VR_target_stimuli/s0_0.75x_2.6_345.png,125,0.75x,2.6,4,1483,125,meters,jsons/MX_seq52_1_VE125_flipped.json,145125,360545,33,Man
9,280629,final-intermixed-textured,v2,jsons/MX_seq52_1_VE125_flipped.json,http://54.235.29.9/FacialAge/BNav_EC2/DepthDuration/MX_fS_VE_MTurk/MX_fS_HTML.html#135,135,1408,793,1549,871,1-12-2024,18-40-47,10,VR_target_stimuli/s34_1.3x_2.8_294.png,125,1.3x,2.8,6,1452,136,meters,jsons/MX_seq52_1_VE125_flipped.json,145125,360545,33,Man
10,280629,final-intermixed-textured,v2,jsons/MX_seq52_1_VE125_flipped.json,http://54.235.29.9/FacialAge/BNav_EC2/DepthDuration/MX_fS_VE_MTurk/MX_fS_HTML.html#135,135,1408,793,1549,871,1-12-2024,18-40-47,11,VR_target_stimuli/s13_0.75x_2.4_308_BC.png,125,0.75x,2.4,4,2095,125,meters,jsons/MX_seq52_1_VE125_flipped.json,145125,360545,33,Man
11,280629,final-intermixed-textured,v2,jsons/MX_seq52_1_VE125_flipped.json,http://54.235.29.9/FacialAge/BNav_EC2/DepthDuration/MX_fS_VE_MTurk/MX_fS_HTML.html#135,135,1408,793,1549,871,1-12-2024,18-40-47,12,VR_target_stimuli/s14_1x_ 3.83_357_BC.png,125,1x,3.83,5,1610,134,meters,jsons/MX_seq52_1_VE125_flipped.json,145125,360545,33,Man
12,280629,final-intermixed-textured,v2,jsons/MX_seq52_1_VE125_flipped.json,http://54.235.29.9/FacialAge/BNav_EC2/DepthDuration/MX_fS_VE_MTurk/MX_fS_HTML.html#135,135,1408,793,1549,871,1-12-2024,18-40-47,13,VR_target_stimuli/s47_1.3x_3.45_373_BC.png,125,1.3x,3.45,5,1863,127,meters,jsons/MX_seq52_1_VE125_flipped.json,145125,360545,33,Man
13,280629,final-intermixed-textured,v2,jsons/MX_seq52_1_VE125_flipped.json,http://54.235.29.9/FacialAge/BNav_EC2/DepthDuration/MX_fS_VE_MTurk/MX_fS_HTML.html#135,135,1408,793,1549,871,1-12-2024,18-40-47,14,VR_target_stimuli/s29_1x_1.3_250_BC.png,125,1x,1.3,2,1279,124,meters,jsons/MX_seq52_1_VE125_flipped.json,145125,360545,33,Man
14,280629,final-intermixed-textured,v2,jsons/MX_seq52_1_VE125_flipped.json,http://54.235.29.9/FacialAge/BNav_EC2/DepthDuration/MX_fS_VE_MTurk/MX_fS_HTML.html#135,135,1408,793,1549,871,1-12-2024,18-40-47,15,VR_target_stimuli/s28_0.75x_3.2_357.png,125,0.75x,3.2,4,2764,127,meters,jsons/MX_seq52_1_VE125_flipped.json,145125,360545,33,Man
15,280629,final-intermixed-textured,v2,jsons/MX_seq52_1_VE125_flipped.json,http://54.235.29.9/FacialAge/BNav_EC2/DepthDuration/MX_fS_VE_MTurk/MX_fS_HTML.html#135,135,1408,793,1549,871,1-12-2024,18-40-47,16,VR_target_stimuli/s48_1.3x_2.55_255.png,125,1.3x,2.55,2,2301,137,meters,jsons/MX_seq52_1_VE125_flipped.json,145125,360545,33,Man
16,280629,final-intermixed-textured,v2,jsons/MX_seq52_1_VE125_flipped.json,http://54.235.29.9/FacialAge/BNav_EC2/DepthDuration/MX_fS_VE_MTurk/MX_fS_HTML.html#135,135,1408,793,1549,871,1-12-2024,18-40-47,17,catch_stimuli/c1_BC.png,125,,,0,1435,128,meters,jsons/MX_seq52_1_VE125_flipped.json,145125,360545,33,Man
17,280629,final-intermixed-textured,v2,jsons/MX_seq52_1_VE125_flipped.json,http://54.235.29.9/FacialAge/BNav_EC2/DepthDuration/MX_fS_VE_MTurk/MX_fS_HTML.html#135,135,1408,793,1549,871,1-12-2024,18-40-47,18,VR_target_stimuli/s19_1.3x_1.21_270_BC.png,125,1.3x,1.21,2,1451,127,meters,jsons/MX_seq52_1_VE125_flipped.json,145125,360545,33,Man
18,280629,final-intermixed-textured,v2,jsons/MX_seq52_1_VE125_flipped.json,http://54.235.29.9/FacialAge/BNav_EC2/DepthDuration/MX_fS_VE_MTurk/MX_fS_HTML.html#135,135,1408,793,1549,871,1-12-2024,18-40-47,19,VR_target_stimuli/s21_1x_4.22_379.png,125,1x,4.22,5,1620,125,meters,jsons/MX_seq52_1_VE125_flipped.json,145125,360545,33,Man
19,280629,final-intermixed-textured,v2,jsons/MX_seq52_1_VE125_flipped.json,http://54.235.29.9/FacialAge/BNav_EC2/DepthDuration/MX_fS_VE_MTurk/MX_fS_HTML.html#135,135,1408,793,1549,871,1-12-2024,18-40-47,20,VR_target_stimuli/s8_0.75x_3.1_325_BC.png,125,0.75x,3.1,3,1343,128,meters,jsons/MX_seq52_1_VE125_flipped.json,145125,360545,33,Man
20,280629,final-intermixed-textured,v2,jsons/MX_seq52_1_VE125_flipped.json,http://54.235.29.9/FacialAge/BNav_EC2/DepthDuration/MX_fS_VE_MTurk/MX_fS_HTML.html#135,135,1408,793,1549,871,1-12-2024,18-40-47,21,VR_target_stimuli/s27_1x_1.76_248.png,125,1x,1.76,2,1617,125,meters,jsons/MX_seq52_1_VE125_flipped.json,145125,360545,33,Man
21,280629,final-intermixed-textured,v2,jsons/MX_seq52_1_VE125_flipped.json,http://54.235.29.9/FacialAge/BNav_EC2/DepthDuration/MX_fS_VE_MTurk/MX_fS_HTML.html#135,135,1408,793,1549,871,1-12-2024,18-40-47,22,VR_target_stimuli/s15_1.3x_4.2_389.png,125,1.3x,4.2,0,1756,112,meters,jsons/MX_seq52_1_VE125_flipped.json,145125,360545,33,Man
22,280629,final-intermixed-textured,v2,jsons/MX_seq52_1_VE125_flipped.json,http://54.235.29.9/FacialAge/BNav_EC2/DepthDuration/MX_fS_VE_MTurk/MX_fS_HTML.html#135,135,1408,793,1549,871,1-12-2024,18-40-47,23,VR_target_stimuli/s4_0.75x_1.4_301.png,125,0.75x,1.4,2,1250,124,meters,jsons/MX_seq52_1_VE125_flipped.json,145125,360545,33,Man
23,280629,final-intermixed-textured,v2,jsons/MX_seq52_1_VE125_flipped.json,http://54.235.29.9/FacialAge/BNav_EC2/DepthDuration/MX_fS_VE_MTurk/MX_fS_HTML.html#135,135,1408,793,1549,871,1-12-2024,18-40-47,24,VR_target_stimuli/s35_1.3x_2_338_BC.png,125,1.3x,2.0,3,1273,124,meters,jsons/MX_seq52_1_VE125_flipped.json,145125,360545,33,Man
24,280629,final-intermixed-textured,v2,jsons/MX_seq52_1_VE125_flipped.json,http://54.235.29.9/FacialAge/BNav_EC2/DepthDuration/MX_fS_VE_MTurk/MX_fS_HTML.html#135,135,1408,793,1549,871,1-12-2024,18-40-47,25,VR_target_stimuli/s49_1x_4.67_341_BC.png,125,1x,4.67,0,1608,127,meters,jsons/MX_seq52_1_VE125_flipped.json,145125,360545,33,Man
25,280629,final-intermixed-textured,v2,jsons/MX_seq52_1_VE125_flipped.json,http://54.235.29.9/FacialAge/BNav_EC2/DepthDuration/MX_fS_VE_MTurk/MX_fS_HTML.html#135,135,1408,793,1549,871,1-12-2024,18-40-47,26,catch_stimuli/c2_BC.png,125,,,0,1849,111,meters,jsons/MX_seq52_1_VE125_flipped.json,145125,360545,33,Man
26,280629,final-intermixed-textured,v2,jsons/MX_seq52_1_VE125_flipped.json,http://54.235.29.9/FacialAge/BNav_EC2/DepthDuration/MX_fS_VE_MTurk/MX_fS_HTML.html#135,135,1408,793,1549,871,1-12-2024,18-40-47,27,VR_target_stimuli/s7_0.75x_1.5_253_BC.png,125,0.75x,1.5,1,1573,111,meters,jsons/MX_seq52_1_VE125_flipped.json,145125,360545,33,Man
27,280629,final-intermixed-textured,v2,jsons/MX_seq52_1_VE125_flipped.json,http://54.235.29.9/FacialAge/BNav_EC2/DepthDuration/MX_fS_VE_MTurk/MX_fS_HTML.html#135,135,1408,793,1549,871,1-12-2024,18-40-47,28,VR_target_stimuli/s20_0.75x_4.99_390.png,125,0.75x,4.99,4,1532,126,meters,jsons/MX_seq52_1_VE125_flipped.json,145125,360545,33,Man
28,280629,final-intermixed-textured,v2,jsons/MX_seq52_1_VE125_flipped.json,http://54.235.29.9/FacialAge/BNav_EC2/DepthDuration/MX_fS_VE_MTurk/MX_fS_HTML.html#135,135,1408,793,1549,871,1-12-2024,18-40-47,29,VR_target_stimuli/s31_1.3x_4.96_342.png,125,1.3x,4.96,3,1298,126,meters,jsons/MX_seq52_1_VE125_flipped.json,145125,360545,33,Man
29,280629,final-intermixed-textured,v2,jsons/MX_seq52_1_VE125_flipped.json,http://54.235.29.9/FacialAge/BNav_EC2/DepthDuration/MX_fS_VE_MTurk/MX_fS_HTML.html#135,135,1408,793,1549,871,1-12-2024,18-40-47,30,VR_target_stimuli/s33_1x_3.1_366_BC.png,125,1x,3.1,0,2713,122,meters,jsons/MX_seq52_1_VE125_flipped.json,145125,360545,33,Man
30,280629,final-intermixed-textured,v2,jsons/MX_seq52_1_VE125_flipped.json,http://54.235.29.9/FacialAge/BNav_EC2/DepthDuration/MX_fS_VE_MTurk/MX_fS_HTML.html#135,135,1408,793,1549,871,1-12-2024,18-40-47,31,VR_target_stimuli/s52_0.75x_3.2_270_BC.png,125,0.75x,3.2,0,1581,125,meters,jsons/MX_seq52_1_VE125_flipped.json,145125,360545,33,Man
31,280629,final-intermixed-textured,v2,jsons/MX_seq52_1_VE125_flipped.json,http://54.235.29.9/FacialAge/BNav_EC2/DepthDuration/MX_fS_VE_MTurk/MX_fS_HTML.html#135,135,1408,793,1549,871,1-12-2024,18-40-47,32,VR_target_stimuli/s32_1x_1.5_218.png,125,1x,1.5,3,1269,112,meters,jsons/MX_seq52_1_VE125_flipped.json,145125,360545,33,Man
32,280629,final-intermixed-textured,v2,jsons/MX_seq52_1_VE125_flipped.json,http://54.235.29.9/FacialAge/BNav_EC2/DepthDuration/MX_fS_VE_MTurk/MX_fS_HTML.html#135,135,1408,793,1549,871,1-12-2024,18-40-47,33,VR_target_stimuli/s18_1.3x_2.25_368_BC.png,125,1.3x,2.25,4,1336,131,meters,jsons/MX_seq52_1_VE125_flipped.json,145125,360545,33,Man
33,280629,final-intermixed-textured,v2,jsons/MX_seq52_1_VE125_flipped.json,http://54.235.29.9/FacialAge/BNav_EC2/DepthDuration/MX_fS_VE_MTurk/MX_fS_HTML.html#135,135,1408,793,1549,871,1-12-2024,18-40-47,34,catch_stimuli/c3_BC.png,125,,,0,1340,130,meters,jsons/MX_seq52_1_VE125_flipped.json,145125,360545,33,Man
34,280629,final-intermixed-textured,v2,jsons/MX_seq52_1_VE125_flipped.json,http://54.235.29.9/FacialAge/BNav_EC2/DepthDuration/MX_fS_VE_MTurk/MX_fS_HTML.html#135,135,1408,793,1549,871,1-12-2024,18-40-47,35,VR_target_stimuli/s39_1x_1_207_BC.png,125,1x,1.0,0,1541,128,meters,jsons/MX_seq52_1_VE125_flipped.json,145125,360545,33,Man
35,280629,final-intermixed-textured,v2,jsons/MX_seq52_1_VE125_flipped.json,http://54.235.29.9/FacialAge/BNav_EC2/DepthDuration/MX_fS_VE_MTurk/MX_fS_HTML.html#135,135,1408,793,1549,871,1-12-2024,18-40-47,36,VR_target_stimuli/s51_0.75x_3.64_460.png,125,0.75x,3.64,3,1293,132,meters,jsons/MX_seq52_1_VE125_flipped.json,145125,360545,33,Man
36,280629,final-intermixed-textured,v2,jsons/MX_seq52_1_VE125_flipped.json,http://54.235.29.9/FacialAge/BNav_EC2/DepthDuration/MX_fS_VE_MTurk/MX_fS_HTML.html#135,135,1408,793,1549,871,1-12-2024,18-40-47,37,VR_target_stimuli/s43_1.3x_2.2_363.png,125,1.3x,2.2,0,2896,111,meters,jsons/MX_seq52_1_VE125_flipped.json,145125,360545,33,Man
37,280629,final-intermixed-textured,v2,jsons/MX_seq52_1_VE125_flipped.json,http://54.235.29.9/FacialAge/BNav_EC2/DepthDuration/MX_fS_VE_MTurk/MX_fS_HTML.html#135,135,1408,793,1549,871,1-12-2024,18-40-47,38,VR_target_stimuli/s24_1.3x_3.3_352_BC.png,125,1.3x,3.3,3,1319,128,meters,jsons/MX_seq52_1_VE125_flipped.json,145125,360545,33,Man
38,280629,final-intermixed-textured,v2,jsons/MX_seq52_1_VE125_flipped.json,http://54.235.29.9/FacialAge/BNav_EC2/DepthDuration/MX_fS_VE_MTurk/MX_fS_HTML.html#135,135,1408,793,1549,871,1-12-2024,18-40-47,39,VR_target_stimuli/s10_1x_2.7_324.png,125,1x,2.7,4,1448,125,meters,jsons/MX_seq52_1_VE125_flipped.json,145125,360545,33,Man
39,280629,final-intermixed-textured,v2,jsons/MX_seq52_1_VE125_flipped.json,http://54.235.29.9/FacialAge/BNav_EC2/DepthDuration/MX_fS_VE_MTurk/MX_fS_HTML.html#135,135,1408,793,1549,871,1-12-2024,18-40-47,40,VR_target_stimuli/s36_0.75x_4.1_407_BC.png,125,0.75x,4.1,0,1368,127,meters,jsons/MX_seq52_1_VE125_flipped.json,145125,360545,33,Man
40,280629,final-intermixed-textured,v2,jsons/MX_seq52_1_VE125_flipped.json,http://54.235.29.9/FacialAge/BNav_EC2/DepthDuration/MX_fS_VE_MTurk/MX_fS_HTML.html#135,135,1408,793,1549,871,1-12-2024,18-40-47,41,VR_target_stimuli/s40_1x_1.2_319_BC.png,125,1x,1.2,0,1507,128,meters,jsons/MX_seq52_1_VE125_flipped.json,145125,360545,33,Man
41,280629,final-intermixed-textured,v2,jsons/MX_seq52_1_VE125_flipped.json,http://54.235.29.9/FacialAge/BNav_EC2/DepthDuration/MX_fS_VE_MTurk/MX_fS_HTML.html#135,135,1408,793,1549,871,1-12-2024,18-40-47,42,VR_target_stimuli/s41_1.3x_2.1_294.png,125,1.3x,2.1,3,1820,121,meters,jsons/MX_seq52_1_VE125_flipped.json,145125,360545,33,Man
42,280629,final-intermixed-textured,v2,jsons/MX_seq52_1_VE125_flipped.json,http://54.235.29.9/FacialAge/BNav_EC2/DepthDuration/MX_fS_VE_MTurk/MX_fS_HTML.html#135,135,1408,793,1549,871,1-12-2024,18-40-47,43,VR_target_stimuli/s45_0.75x_3.5_362_BC.png,125,0.75x,3.5,0,1360,114,meters,jsons/MX_seq52_1_VE125_flipped.json,145125,360545,33,Man
43,280629,final-intermixed-textured,v2,jsons/MX_seq52_1_VE125_flipped.json,http://54.235.29.9/FacialAge/BNav_EC2/DepthDuration/MX_fS_VE_MTurk/MX_fS_HTML.html#135,135,1408,793,1549,871,1-12-2024,18-40-47,44,VR_target_stimuli/s23_1.3x_3.65_354_BC.png,125,1.3x,3.65,2,12590,126,meters,jsons/MX_seq52_1_VE125_flipped.json,145125,360545,33,Man
44,280629,final-intermixed-textured,v2,jsons/MX_seq52_1_VE125_flipped.json,http://54.235.29.9/FacialAge/BNav_EC2/DepthDuration/MX_fS_VE_MTurk/MX_fS_HTML.html#135,135,1408,793,1549,871,1-12-2024,18-40-47,45,catch_stimuli/c4_BC.png,125,,,2,2026,126,meters,jsons/MX_seq52_1_VE125_flipped.json,145125,360545,33,Man
45,280629,final-intermixed-textured,v2,jsons/MX_seq52_1_VE125_flipped.json,http://54.235.29.9/FacialAge/BNav_EC2/DepthDuration/MX_fS_VE_MTurk/MX_fS_HTML.html#135,135,1408,793,1549,871,1-12-2024,18-40-47,46,VR_target_stimuli/s26_1x_4_433.png,125,1x,4.0,4,1507,126,meters,jsons/MX_seq52_1_VE125_flipped.json,145125,360545,33,Man
46,280629,final-intermixed-textured,v2,jsons/MX_seq52_1_VE125_flipped.json,http://54.235.29.9/FacialAge/BNav_EC2/DepthDuration/MX_fS_VE_MTurk/MX_fS_HTML.html#135,135,1408,793,1549,871,1-12-2024,18-40-47,47,VR_target_stimuli/s12_0.75x_3.1_364.png,125,0.75x,3.1,0,3275,125,meters,jsons/MX_seq52_1_VE125_flipped.json,145125,360545,33,Man
47,280629,final-intermixed-textured,v2,jsons/MX_seq52_1_VE125_flipped.json,http://54.235.29.9/FacialAge/BNav_EC2/DepthDuration/MX_fS_VE_MTurk/MX_fS_HTML.html#135,135,1408,793,1549,871,1-12-2024,18-40-47,48,VR_target_stimuli/s30_0.75x_2.3_332_BC.png,125,0.75x,2.3,3,1548,122,meters,jsons/MX_seq52_1_VE125_flipped.json,145125,360545,33,Man
48,280629,final-intermixed-textured,v2,jsons/MX_seq52_1_VE125_flipped.json,http://54.235.29.9/FacialAge/BNav_EC2/DepthDuration/MX_fS_VE_MTurk/MX_fS_HTML.html#135,135,1408,793,1549,871,1-12-2024,18-40-47,49,VR_target_stimuli/s16_1.3x_1_223_BC.png,125,1.3x,1.0,1,1275,128,meters,jsons/MX_seq52_1_VE125_flipped.json,145125,360545,33,Man
49,280629,final-intermixed-textured,v2,jsons/MX_seq52_1_VE125_flipped.json,http://54.235.29.9/FacialAge/BNav_EC2/DepthDuration/MX_fS_VE_MTurk/MX_fS_HTML.html#135,135,1408,793,1549,871,1-12-2024,18-40-47,50,VR_target_stimuli/s17_1x_1.8_291_BC.png,125,1x,1.8,3,1333,125,meters,jsons/MX_seq52_1_VE125_flipped.json,145125,360545,33,Man
50,280629,final-intermixed-textured,v2,jsons/MX_seq52_1_VE125_flipped.json,http://54.235.29.9/FacialAge/BNav_EC2/DepthDuration/MX_fS_VE_MTurk/MX_fS_HTML.html#135,135,1408,793,1549,871,1-12-2024,18-40-47,51,VR_target_stimuli/s5_1.3x_4_393.png,125,1.3x,4.0,3,1387,129,meters,jsons/MX_seq52_1_VE125_flipped.json,145125,360545,33,Man
51,280629,final-intermixed-textured,v2,jsons/MX_seq52_1_VE125_flipped.json,http://54.235.29.9/FacialAge/BNav_EC2/DepthDuration/MX_fS_VE_MTurk/MX_fS_HTML.html#135,135,1408,793,1549,871,1-12-2024,18-40-47,52,VR_target_stimuli/s37_0.75x_3.3_567.png,125,0.75x,3.3,4,1410,125,meters,jsons/MX_seq52_1_VE125_flipped.json,145125,360545,33,Man
52,280629,final-intermixed-textured,v2,jsons/MX_seq52_1_VE125_flipped.json,http://54.235.29.9/FacialAge/BNav_EC2/DepthDuration/MX_fS_VE_MTurk/MX_fS_HTML.html#135,135,1408,793,1549,871,1-12-2024,18-40-47,53,catch_stimuli/c5_BC.png,125,,,0,1646,126,meters,jsons/MX_seq52_1_VE125_flipped.json,145125,360545,33,Man
53,280629,final-intermixed-textured,v2,jsons/MX_seq52_1_VE125_flipped.json,http://54.235.29.9/FacialAge/BNav_EC2/DepthDuration/MX_fS_VE_MTurk/MX_fS_HTML.html#135,135,1408,793,1549,871,1-12-2024,18-40-47,54,VR_target_stimuli/s46_1x_2.42_348.png,125,1x,2.42,5,1646,127,meters,jsons/MX_seq52_1_VE125_flipped.json,145125,360545,33,Man
54,280629,final-intermixed-textured,v2,jsons/MX_seq52_1_VE125_flipped.json,http://54.235.29.9/FacialAge/BNav_EC2/DepthDuration/MX_fS_VE_MTurk/MX_fS_HTML.html#135,135,1408,793,1549,871,1-12-2024,18-40-47,55,VR_target_stimuli/s22_0.75x_4.29_348_BC.png,125,0.75x,4.29,4,1467,132,meters,jsons/MX_seq52_1_VE125_flipped.json,145125,360545,33,Man
55,280629,final-intermixed-textured,v2,jsons/MX_seq52_1_VE125_flipped.json,http://54.235.29.9/FacialAge/BNav_EC2/DepthDuration/MX_fS_VE_MTurk/MX_fS_HTML.html#135,135,1408,793,1549,871,1-12-2024,18-40-47,56,VR_target_stimuli/s42_1.3x_3.2_305_BC.png,125,1.3x,3.2,4,1587,136,meters,jsons/MX_seq52_1_VE125_flipped.json,145125,360545,33,Man
56,280629,final-intermixed-textured,v2,jsons/MX_seq52_1_VE125_flipped.json,http://54.235.29.9/FacialAge/BNav_EC2/DepthDuration/MX_fS_VE_MTurk/MX_fS_HTML.html#135,135,1408,793,1549,871,1-12-2024,18-40-47,57,VR_target_stimuli/s25_1x_1.4_290.png,125,1x,1.4,4,1579,138,meters,jsons/MX_seq52_1_VE125_flipped.json,145125,360545,33,Man
57,280629,final-intermixed-textured,v2,jsons/MX_seq52_1_VE125_flipped.json,http://54.235.29.9/FacialAge/BNav_EC2/DepthDuration/MX_fS_VE_MTurk/MX_fS_HTML.html#135,135,1408,793,1549,871,1-12-2024,18-40-47,58,VR_target_stimuli/s50_1x_4.53_518_BC.png,125,1x,4.53,6,1558,124,meters,jsons/MX_seq52_1_VE125_flipped.json,145125,360545,33,Man
58,280629,final-intermixed-textured,v2,jsons/MX_seq52_1_VE125_flipped.json,http://54.235.29.9/FacialAge/BNav_EC2/DepthDuration/MX_fS_VE_MTurk/MX_fS_HTML.html#135,135,1408,793,1549,871,1-12-2024,18-40-47,59,VR_target_stimuli/s53_0.75x_1.6_403.png,125,0.75x,1.6,0,1542,109,meters,jsons/MX_seq52_1_VE125_flipped.json,145125,360545,33,Man
59,280629,final-intermixed-textured,v2,jsons/MX_seq52_1_VE125_flipped.json,http://54.235.29.9/FacialAge/BNav_EC2/DepthDuration/MX_fS_VE_MTurk/MX_fS_HTML.html#135,135,1408,793,1549,871,1-12-2024,18-40-47,60,VR_target_stimuli/s38_1.3x_3.55_358.png,125,1.3x,3.55,3,1786,125,meters,jsons/MX_seq52_1_VE125_flipped.json,145125,360545,33,Man
