,subjID,experimentName,versionName,sequenceName,url,selected_row,windowWidth,windowHeight,screenWidth,screenHeight,startDate,startTime,trial,stimulus,duration,scale,actual_depth,depth_estimate,trial_RT,log_sceneDuration,unitSelection,seq_filepath,experimentTime,totalTime,age,gender
0,296762,final-intermixed-textured,v2,jsons/MX_seq24_2_VE125_flipped.json,http://54.235.29.9/FacialAge/BNav_EC2/DepthDuration/MX_fS_VE_MTurk/MX_fS_HTML.html#87,87,1536,730,1536,864,1-12-2024,13-41-39,1,VR_target_stimuli/s33_1x_3.1_366_BC.png,125,1x,3.1,5,8054,129,meters,jsons/MX_seq24_2_VE125_flipped.json,311199,556417,29,Woman
1,296762,final-intermixed-textured,v2,jsons/MX_seq24_2_VE125_flipped.json,http://54.235.29.9/FacialAge/BNav_EC2/DepthDuration/MX_fS_VE_MTurk/MX_fS_HTML.html#87,87,1536,730,1536,864,1-12-2024,13-41-39,2,VR_target_stimuli/s52_1.3x_3.2_280_BC.png,125,1.3x,3.2,10,3839,129,meters,jsons/MX_seq24_2_VE125_flipped.json,311199,556417,29,Woman
2,296762,final-intermixed-textured,v2,jsons/MX_seq24_2_VE125_flipped.json,http://54.235.29.9/FacialAge/BNav_EC2/DepthDuration/MX_fS_VE_MTurk/MX_fS_HTML.html#87,87,1536,730,1536,864,1-12-2024,13-41-39,3,VR_target_stimuli/s32_0.75x_1.5_213.png,125,0.75x,1.5,0,4961,129,meters,jsons/MX_seq24_2_VE125_flipped.json,311199,556417,29,Woman
3,296762,final-intermixed-textured,v2,jsons/MX_seq24_2_VE125_flipped.json,http://54.235.29.9/FacialAge/BNav_EC2/DepthDuration/MX_fS_VE_MTurk/MX_fS_HTML.html#87,87,1536,730,1536,864,1-12-2024,13-41-39,4,VR_target_stimuli/s18_1.3x_2.25_368.png,125,1.3x,2.25,0,17679,126,meters,jsons/MX_seq24_2_VE125_flipped.json,311199,556417,29,Woman
4,296762,final-intermixed-textured,v2,jsons/MX_seq24_2_VE125_flipped.json,http://54.235.29.9/FacialAge/BNav_EC2/DepthDuration/MX_fS_VE_MTurk/MX_fS_HTML.html#87,87,1536,730,1536,864,1-12-2024,13-41-39,5,VR_target_stimuli/s39_1x_1_207.png,125,1x,1.0,2,5870,122,meters,jsons/MX_seq24_2_VE125_flipped.json,311199,556417,29,Woman
5,296762,final-intermixed-textured,v2,jsons/MX_seq24_2_VE125_flipped.json,http://54.235.29.9/FacialAge/BNav_EC2/DepthDuration/MX_fS_VE_MTurk/MX_fS_HTML.html#87,87,1536,730,1536,864,1-12-2024,13-41-39,6,VR_target_stimuli/s51_0.75x_3.64_460_BC.png,125,0.75x,3.64,3,3781,110,meters,jsons/MX_seq24_2_VE125_flipped.json,311199,556417,29,Woman
6,296762,final-intermixed-textured,v2,jsons/MX_seq24_2_VE125_flipped.json,http://54.235.29.9/FacialAge/BNav_EC2/DepthDuration/MX_fS_VE_MTurk/MX_fS_HTML.html#87,87,1536,730,1536,864,1-12-2024,13-41-39,7,catch_stimuli/c0_BC.png,125,,,0,2876,124,meters,jsons/MX_seq24_2_VE125_flipped.json,311199,556417,29,Woman
7,296762,final-intermixed-textured,v2,jsons/MX_seq24_2_VE125_flipped.json,http://54.235.29.9/FacialAge/BNav_EC2/DepthDuration/MX_fS_VE_MTurk/MX_fS_HTML.html#87,87,1536,730,1536,864,1-12-2024,13-41-39,8,VR_target_stimuli/s43_0.75x_2.2_348.png,125,0.75x,2.2,2,5790,119,meters,jsons/MX_seq24_2_VE125_flipped.json,311199,556417,29,Woman
8,296762,final-intermixed-textured,v2,jsons/MX_seq24_2_VE125_flipped.json,http://54.235.29.9/FacialAge/BNav_EC2/DepthDuration/MX_fS_VE_MTurk/MX_fS_HTML.html#87,87,1536,730,1536,864,1-12-2024,13-41-39,9,VR_target_stimuli/s24_1.3x_3.3_352_BC.png,125,1.3x,3.3,5,5443,114,meters,jsons/MX_seq24_2_VE125_flipped.json,311199,556417,29,Woman
9,296762,final-intermixed-textured,v2,jsons/MX_seq24_2_VE125_flipped.json,http://54.235.29.9/FacialAge/BNav_EC2/DepthDuration/MX_fS_VE_MTurk/MX_fS_HTML.html#87,87,1536,730,1536,864,1-12-2024,13-41-39,10,VR_target_stimuli/s10_1x_2.7_324_BC.png,125,1x,2.7,2,2631,132,meters,jsons/MX_seq24_2_VE125_flipped.json,311199,556417,29,Woman
10,296762,final-intermixed-textured,v2,jsons/MX_seq24_2_VE125_flipped.json,http://54.235.29.9/FacialAge/BNav_EC2/DepthDuration/MX_fS_VE_MTurk/MX_fS_HTML.html#87,87,1536,730,1536,864,1-12-2024,13-41-39,11,VR_target_stimuli/s36_1.3x_4.1_442.png,125,1.3x,4.1,5,11705,113,meters,jsons/MX_seq24_2_VE125_flipped.json,311199,556417,29,Woman
11,296762,final-intermixed-textured,v2,jsons/MX_seq24_2_VE125_flipped.json,http://54.235.29.9/FacialAge/BNav_EC2/DepthDuration/MX_fS_VE_MTurk/MX_fS_HTML.html#87,87,1536,730,1536,864,1-12-2024,13-41-39,12,VR_target_stimuli/s40_0.75x_1.2_308_BC.png,125,0.75x,1.2,3,5127,137,meters,jsons/MX_seq24_2_VE125_flipped.json,311199,556417,29,Woman
12,296762,final-intermixed-textured,v2,jsons/MX_seq24_2_VE125_flipped.json,http://54.235.29.9/FacialAge/BNav_EC2/DepthDuration/MX_fS_VE_MTurk/MX_fS_HTML.html#87,87,1536,730,1536,864,1-12-2024,13-41-39,13,VR_target_stimuli/s41_1x_2.1_286.png,125,1x,2.1,3,2814,115,meters,jsons/MX_seq24_2_VE125_flipped.json,311199,556417,29,Woman
13,296762,final-intermixed-textured,v2,jsons/MX_seq24_2_VE125_flipped.json,http://54.235.29.9/FacialAge/BNav_EC2/DepthDuration/MX_fS_VE_MTurk/MX_fS_HTML.html#87,87,1536,730,1536,864,1-12-2024,13-41-39,14,VR_target_stimuli/s45_0.75x_3.5_362_BC.png,125,0.75x,3.5,3,6515,128,meters,jsons/MX_seq24_2_VE125_flipped.json,311199,556417,29,Woman
14,296762,final-intermixed-textured,v2,jsons/MX_seq24_2_VE125_flipped.json,http://54.235.29.9/FacialAge/BNav_EC2/DepthDuration/MX_fS_VE_MTurk/MX_fS_HTML.html#87,87,1536,730,1536,864,1-12-2024,13-41-39,15,VR_target_stimuli/s23_1.3x_3.65_354_BC.png,125,1.3x,3.65,3,9327,118,meters,jsons/MX_seq24_2_VE125_flipped.json,311199,556417,29,Woman
15,296762,final-intermixed-textured,v2,jsons/MX_seq24_2_VE125_flipped.json,http://54.235.29.9/FacialAge/BNav_EC2/DepthDuration/MX_fS_VE_MTurk/MX_fS_HTML.html#87,87,1536,730,1536,864,1-12-2024,13-41-39,16,VR_target_stimuli/s26_1x_4_433.png,125,1x,4.0,3,3347,134,meters,jsons/MX_seq24_2_VE125_flipped.json,311199,556417,29,Woman
16,296762,final-intermixed-textured,v2,jsons/MX_seq24_2_VE125_flipped.json,http://54.235.29.9/FacialAge/BNav_EC2/DepthDuration/MX_fS_VE_MTurk/MX_fS_HTML.html#87,87,1536,730,1536,864,1-12-2024,13-41-39,17,catch_stimuli/c1_BC.png,125,,,0,2632,126,meters,jsons/MX_seq24_2_VE125_flipped.json,311199,556417,29,Woman
17,296762,final-intermixed-textured,v2,jsons/MX_seq24_2_VE125_flipped.json,http://54.235.29.9/FacialAge/BNav_EC2/DepthDuration/MX_fS_VE_MTurk/MX_fS_HTML.html#87,87,1536,730,1536,864,1-12-2024,13-41-39,18,VR_target_stimuli/s12_1x_3.1_372_BC.png,125,1x,3.1,4,2277,133,meters,jsons/MX_seq24_2_VE125_flipped.json,311199,556417,29,Woman
18,296762,final-intermixed-textured,v2,jsons/MX_seq24_2_VE125_flipped.json,http://54.235.29.9/FacialAge/BNav_EC2/DepthDuration/MX_fS_VE_MTurk/MX_fS_HTML.html#87,87,1536,730,1536,864,1-12-2024,13-41-39,19,VR_target_stimuli/s30_0.75x_2.3_332.png,125,0.75x,2.3,3,2613,138,meters,jsons/MX_seq24_2_VE125_flipped.json,311199,556417,29,Woman
19,296762,final-intermixed-textured,v2,jsons/MX_seq24_2_VE125_flipped.json,http://54.235.29.9/FacialAge/BNav_EC2/DepthDuration/MX_fS_VE_MTurk/MX_fS_HTML.html#87,87,1536,730,1536,864,1-12-2024,13-41-39,20,VR_target_stimuli/s16_1.3x_1_223.png,125,1.3x,1.0,2,29019,134,meters,jsons/MX_seq24_2_VE125_flipped.json,311199,556417,29,Woman
20,296762,final-intermixed-textured,v2,jsons/MX_seq24_2_VE125_flipped.json,http://54.235.29.9/FacialAge/BNav_EC2/DepthDuration/MX_fS_VE_MTurk/MX_fS_HTML.html#87,87,1536,730,1536,864,1-12-2024,13-41-39,21,VR_target_stimuli/s17_0.75x_1.8_285_BC.png,125,0.75x,1.8,3,3545,120,meters,jsons/MX_seq24_2_VE125_flipped.json,311199,556417,29,Woman
21,296762,final-intermixed-textured,v2,jsons/MX_seq24_2_VE125_flipped.json,http://54.235.29.9/FacialAge/BNav_EC2/DepthDuration/MX_fS_VE_MTurk/MX_fS_HTML.html#87,87,1536,730,1536,864,1-12-2024,13-41-39,22,VR_target_stimuli/s5_1x_4_378.png,125,1x,4.0,3,2073,124,meters,jsons/MX_seq24_2_VE125_flipped.json,311199,556417,29,Woman
22,296762,final-intermixed-textured,v2,jsons/MX_seq24_2_VE125_flipped.json,http://54.235.29.9/FacialAge/BNav_EC2/DepthDuration/MX_fS_VE_MTurk/MX_fS_HTML.html#87,87,1536,730,1536,864,1-12-2024,13-41-39,23,VR_target_stimuli/s37_1.3x_3.3_555.png,125,1.3x,3.3,2,6853,121,meters,jsons/MX_seq24_2_VE125_flipped.json,311199,556417,29,Woman
23,296762,final-intermixed-textured,v2,jsons/MX_seq24_2_VE125_flipped.json,http://54.235.29.9/FacialAge/BNav_EC2/DepthDuration/MX_fS_VE_MTurk/MX_fS_HTML.html#87,87,1536,730,1536,864,1-12-2024,13-41-39,24,VR_target_stimuli/s46_1x_2.42_348_BC.png,125,1x,2.42,3,2045,115,meters,jsons/MX_seq24_2_VE125_flipped.json,311199,556417,29,Woman
24,296762,final-intermixed-textured,v2,jsons/MX_seq24_2_VE125_flipped.json,http://54.235.29.9/FacialAge/BNav_EC2/DepthDuration/MX_fS_VE_MTurk/MX_fS_HTML.html#87,87,1536,730,1536,864,1-12-2024,13-41-39,25,VR_target_stimuli/s22_0.75x_4.29_348.png,125,0.75x,4.29,3,3464,117,meters,jsons/MX_seq24_2_VE125_flipped.json,311199,556417,29,Woman
25,296762,final-intermixed-textured,v2,jsons/MX_seq24_2_VE125_flipped.json,http://54.235.29.9/FacialAge/BNav_EC2/DepthDuration/MX_fS_VE_MTurk/MX_fS_HTML.html#87,87,1536,730,1536,864,1-12-2024,13-41-39,26,catch_stimuli/c2_BC.png,125,,,0,4701,134,meters,jsons/MX_seq24_2_VE125_flipped.json,311199,556417,29,Woman
26,296762,final-intermixed-textured,v2,jsons/MX_seq24_2_VE125_flipped.json,http://54.235.29.9/FacialAge/BNav_EC2/DepthDuration/MX_fS_VE_MTurk/MX_fS_HTML.html#87,87,1536,730,1536,864,1-12-2024,13-41-39,27,VR_target_stimuli/s42_1.3x_3.2_305_BC.png,125,1.3x,3.2,2,2429,119,meters,jsons/MX_seq24_2_VE125_flipped.json,311199,556417,29,Woman
27,296762,final-intermixed-textured,v2,jsons/MX_seq24_2_VE125_flipped.json,http://54.235.29.9/FacialAge/BNav_EC2/DepthDuration/MX_fS_VE_MTurk/MX_fS_HTML.html#87,87,1536,730,1536,864,1-12-2024,13-41-39,28,VR_target_stimuli/s25_1.3x_1.4_299.png,125,1.3x,1.4,2,2647,119,meters,jsons/MX_seq24_2_VE125_flipped.json,311199,556417,29,Woman
28,296762,final-intermixed-textured,v2,jsons/MX_seq24_2_VE125_flipped.json,http://54.235.29.9/FacialAge/BNav_EC2/DepthDuration/MX_fS_VE_MTurk/MX_fS_HTML.html#87,87,1536,730,1536,864,1-12-2024,13-41-39,29,VR_target_stimuli/s50_1x_4.53_518.png,125,1x,4.53,1,3493,122,meters,jsons/MX_seq24_2_VE125_flipped.json,311199,556417,29,Woman
29,296762,final-intermixed-textured,v2,jsons/MX_seq24_2_VE125_flipped.json,http://54.235.29.9/FacialAge/BNav_EC2/DepthDuration/MX_fS_VE_MTurk/MX_fS_HTML.html#87,87,1536,730,1536,864,1-12-2024,13-41-39,30,VR_target_stimuli/s53_0.75x_1.6_403.png,125,0.75x,1.6,1,2134,129,meters,jsons/MX_seq24_2_VE125_flipped.json,311199,556417,29,Woman
30,296762,final-intermixed-textured,v2,jsons/MX_seq24_2_VE125_flipped.json,http://54.235.29.9/FacialAge/BNav_EC2/DepthDuration/MX_fS_VE_MTurk/MX_fS_HTML.html#87,87,1536,730,1536,864,1-12-2024,13-41-39,31,VR_target_stimuli/s38_1.3x_3.55_358_BC.png,125,1.3x,3.55,3,2965,122,meters,jsons/MX_seq24_2_VE125_flipped.json,311199,556417,29,Woman
31,296762,final-intermixed-textured,v2,jsons/MX_seq24_2_VE125_flipped.json,http://54.235.29.9/FacialAge/BNav_EC2/DepthDuration/MX_fS_VE_MTurk/MX_fS_HTML.html#87,87,1536,730,1536,864,1-12-2024,13-41-39,32,VR_target_stimuli/s9_0.75x_1.2_260_BC.png,125,0.75x,1.2,2,2457,117,meters,jsons/MX_seq24_2_VE125_flipped.json,311199,556417,29,Woman
32,296762,final-intermixed-textured,v2,jsons/MX_seq24_2_VE125_flipped.json,http://54.235.29.9/FacialAge/BNav_EC2/DepthDuration/MX_fS_VE_MTurk/MX_fS_HTML.html#87,87,1536,730,1536,864,1-12-2024,13-41-39,33,VR_target_stimuli/s44_1x_4.4_317_BC.png,125,1x,4.4,2,3235,117,meters,jsons/MX_seq24_2_VE125_flipped.json,311199,556417,29,Woman
33,296762,final-intermixed-textured,v2,jsons/MX_seq24_2_VE125_flipped.json,http://54.235.29.9/FacialAge/BNav_EC2/DepthDuration/MX_fS_VE_MTurk/MX_fS_HTML.html#87,87,1536,730,1536,864,1-12-2024,13-41-39,34,catch_stimuli/c3_BC.png,125,,,0,12626,112,meters,jsons/MX_seq24_2_VE125_flipped.json,311199,556417,29,Woman
34,296762,final-intermixed-textured,v2,jsons/MX_seq24_2_VE125_flipped.json,http://54.235.29.9/FacialAge/BNav_EC2/DepthDuration/MX_fS_VE_MTurk/MX_fS_HTML.html#87,87,1536,730,1536,864,1-12-2024,13-41-39,35,VR_target_stimuli/s3_0.75x_5_381.png,125,0.75x,5.0,3,2262,122,meters,jsons/MX_seq24_2_VE125_flipped.json,311199,556417,29,Woman
35,296762,final-intermixed-textured,v2,jsons/MX_seq24_2_VE125_flipped.json,http://54.235.29.9/FacialAge/BNav_EC2/DepthDuration/MX_fS_VE_MTurk/MX_fS_HTML.html#87,87,1536,730,1536,864,1-12-2024,13-41-39,36,VR_target_stimuli/s1_1.3x_1.7_261.png,125,1.3x,1.7,2,1808,133,meters,jsons/MX_seq24_2_VE125_flipped.json,311199,556417,29,Woman
36,296762,final-intermixed-textured,v2,jsons/MX_seq24_2_VE125_flipped.json,http://54.235.29.9/FacialAge/BNav_EC2/DepthDuration/MX_fS_VE_MTurk/MX_fS_HTML.html#87,87,1536,730,1536,864,1-12-2024,13-41-39,37,VR_target_stimuli/s11_1x_5_361.png,125,1x,5.0,2,6642,113,meters,jsons/MX_seq24_2_VE125_flipped.json,311199,556417,29,Woman
37,296762,final-intermixed-textured,v2,jsons/MX_seq24_2_VE125_flipped.json,http://54.235.29.9/FacialAge/BNav_EC2/DepthDuration/MX_fS_VE_MTurk/MX_fS_HTML.html#87,87,1536,730,1536,864,1-12-2024,13-41-39,38,VR_target_stimuli/s2_1x_2.7_390_BC.png,125,1x,2.7,2,2707,123,meters,jsons/MX_seq24_2_VE125_flipped.json,311199,556417,29,Woman
38,296762,final-intermixed-textured,v2,jsons/MX_seq24_2_VE125_flipped.json,http://54.235.29.9/FacialAge/BNav_EC2/DepthDuration/MX_fS_VE_MTurk/MX_fS_HTML.html#87,87,1536,730,1536,864,1-12-2024,13-41-39,39,VR_target_stimuli/s6_0.75x_2.1_290_BC.png,125,0.75x,2.1,3,7199,117,meters,jsons/MX_seq24_2_VE125_flipped.json,311199,556417,29,Woman
39,296762,final-intermixed-textured,v2,jsons/MX_seq24_2_VE125_flipped.json,http://54.235.29.9/FacialAge/BNav_EC2/DepthDuration/MX_fS_VE_MTurk/MX_fS_HTML.html#87,87,1536,730,1536,864,1-12-2024,13-41-39,40,VR_target_stimuli/s0_1.3x_2.6_356_BC.png,125,1.3x,2.6,2,2124,137,meters,jsons/MX_seq24_2_VE125_flipped.json,311199,556417,29,Woman
40,296762,final-intermixed-textured,v2,jsons/MX_seq24_2_VE125_flipped.json,http://54.235.29.9/FacialAge/BNav_EC2/DepthDuration/MX_fS_VE_MTurk/MX_fS_HTML.html#87,87,1536,730,1536,864,1-12-2024,13-41-39,41,VR_target_stimuli/s34_0.75x_2.8_269.png,125,0.75x,2.8,3,2550,123,meters,jsons/MX_seq24_2_VE125_flipped.json,311199,556417,29,Woman
41,296762,final-intermixed-textured,v2,jsons/MX_seq24_2_VE125_flipped.json,http://54.235.29.9/FacialAge/BNav_EC2/DepthDuration/MX_fS_VE_MTurk/MX_fS_HTML.html#87,87,1536,730,1536,864,1-12-2024,13-41-39,42,VR_target_stimuli/s13_1x_2.4_310_BC.png,125,1x,2.4,2,2705,119,meters,jsons/MX_seq24_2_VE125_flipped.json,311199,556417,29,Woman
42,296762,final-intermixed-textured,v2,jsons/MX_seq24_2_VE125_flipped.json,http://54.235.29.9/FacialAge/BNav_EC2/DepthDuration/MX_fS_VE_MTurk/MX_fS_HTML.html#87,87,1536,730,1536,864,1-12-2024,13-41-39,43,VR_target_stimuli/s14_1.3x_3.83_359_BC.png,125,1.3x,3.83,3,2288,126,meters,jsons/MX_seq24_2_VE125_flipped.json,311199,556417,29,Woman
43,296762,final-intermixed-textured,v2,jsons/MX_seq24_2_VE125_flipped.json,http://54.235.29.9/FacialAge/BNav_EC2/DepthDuration/MX_fS_VE_MTurk/MX_fS_HTML.html#87,87,1536,730,1536,864,1-12-2024,13-41-39,44,VR_target_stimuli/s47_1x_3.45_370.png,125,1x,3.45,0,2109,117,meters,jsons/MX_seq24_2_VE125_flipped.json,311199,556417,29,Woman
44,296762,final-intermixed-textured,v2,jsons/MX_seq24_2_VE125_flipped.json,http://54.235.29.9/FacialAge/BNav_EC2/DepthDuration/MX_fS_VE_MTurk/MX_fS_HTML.html#87,87,1536,730,1536,864,1-12-2024,13-41-39,45,catch_stimuli/c4_BC.png,125,,,0,1874,122,meters,jsons/MX_seq24_2_VE125_flipped.json,311199,556417,29,Woman
45,296762,final-intermixed-textured,v2,jsons/MX_seq24_2_VE125_flipped.json,http://54.235.29.9/FacialAge/BNav_EC2/DepthDuration/MX_fS_VE_MTurk/MX_fS_HTML.html#87,87,1536,730,1536,864,1-12-2024,13-41-39,46,VR_target_stimuli/s29_0.75x_1.3_246_BC.png,125,0.75x,1.3,2,1926,133,meters,jsons/MX_seq24_2_VE125_flipped.json,311199,556417,29,Woman
46,296762,final-intermixed-textured,v2,jsons/MX_seq24_2_VE125_flipped.json,http://54.235.29.9/FacialAge/BNav_EC2/DepthDuration/MX_fS_VE_MTurk/MX_fS_HTML.html#87,87,1536,730,1536,864,1-12-2024,13-41-39,47,VR_target_stimuli/s28_1.3x_3.2_365.png,125,1.3x,3.2,0,3148,123,meters,jsons/MX_seq24_2_VE125_flipped.json,311199,556417,29,Woman
47,296762,final-intermixed-textured,v2,jsons/MX_seq24_2_VE125_flipped.json,http://54.235.29.9/FacialAge/BNav_EC2/DepthDuration/MX_fS_VE_MTurk/MX_fS_HTML.html#87,87,1536,730,1536,864,1-12-2024,13-41-39,48,VR_target_stimuli/s48_1.3x_2.55_255.png,125,1.3x,2.55,1,3205,125,meters,jsons/MX_seq24_2_VE125_flipped.json,311199,556417,29,Woman
48,296762,final-intermixed-textured,v2,jsons/MX_seq24_2_VE125_flipped.json,http://54.235.29.9/FacialAge/BNav_EC2/DepthDuration/MX_fS_VE_MTurk/MX_fS_HTML.html#87,87,1536,730,1536,864,1-12-2024,13-41-39,49,VR_target_stimuli/s19_1x_1.21_263.png,125,1x,1.21,1,3478,130,meters,jsons/MX_seq24_2_VE125_flipped.json,311199,556417,29,Woman
49,296762,final-intermixed-textured,v2,jsons/MX_seq24_2_VE125_flipped.json,http://54.235.29.9/FacialAge/BNav_EC2/DepthDuration/MX_fS_VE_MTurk/MX_fS_HTML.html#87,87,1536,730,1536,864,1-12-2024,13-41-39,50,VR_target_stimuli/s21_0.75x_4.22_374.png,125,0.75x,4.22,3,6755,130,meters,jsons/MX_seq24_2_VE125_flipped.json,311199,556417,29,Woman
50,296762,final-intermixed-textured,v2,jsons/MX_seq24_2_VE125_flipped.json,http://54.235.29.9/FacialAge/BNav_EC2/DepthDuration/MX_fS_VE_MTurk/MX_fS_HTML.html#87,87,1536,730,1536,864,1-12-2024,13-41-39,51,VR_target_stimuli/s8_1x_3.1_332_BC.png,125,1x,3.1,3,2941,131,meters,jsons/MX_seq24_2_VE125_flipped.json,311199,556417,29,Woman
51,296762,final-intermixed-textured,v2,jsons/MX_seq24_2_VE125_flipped.json,http://54.235.29.9/FacialAge/BNav_EC2/DepthDuration/MX_fS_VE_MTurk/MX_fS_HTML.html#87,87,1536,730,1536,864,1-12-2024,13-41-39,52,VR_target_stimuli/s27_1.3x_1.76_250_BC.png,125,1.3x,1.76,2,2194,116,meters,jsons/MX_seq24_2_VE125_flipped.json,311199,556417,29,Woman
52,296762,final-intermixed-textured,v2,jsons/MX_seq24_2_VE125_flipped.json,http://54.235.29.9/FacialAge/BNav_EC2/DepthDuration/MX_fS_VE_MTurk/MX_fS_HTML.html#87,87,1536,730,1536,864,1-12-2024,13-41-39,53,catch_stimuli/c5_BC.png,125,,,0,3246,117,meters,jsons/MX_seq24_2_VE125_flipped.json,311199,556417,29,Woman
53,296762,final-intermixed-textured,v2,jsons/MX_seq24_2_VE125_flipped.json,http://54.235.29.9/FacialAge/BNav_EC2/DepthDuration/MX_fS_VE_MTurk/MX_fS_HTML.html#87,87,1536,730,1536,864,1-12-2024,13-41-39,54,VR_target_stimuli/s15_0.75x_4.2_388_BC.png,125,0.75x,4.2,4,2699,124,meters,jsons/MX_seq24_2_VE125_flipped.json,311199,556417,29,Woman
54,296762,final-intermixed-textured,v2,jsons/MX_seq24_2_VE125_flipped.json,http://54.235.29.9/FacialAge/BNav_EC2/DepthDuration/MX_fS_VE_MTurk/MX_fS_HTML.html#87,87,1536,730,1536,864,1-12-2024,13-41-39,55,VR_target_stimuli/s4_1.3x_1.4_328.png,125,1.3x,1.4,3,2299,114,meters,jsons/MX_seq24_2_VE125_flipped.json,311199,556417,29,Woman
55,296762,final-intermixed-textured,v2,jsons/MX_seq24_2_VE125_flipped.json,http://54.235.29.9/FacialAge/BNav_EC2/DepthDuration/MX_fS_VE_MTurk/MX_fS_HTML.html#87,87,1536,730,1536,864,1-12-2024,13-41-39,56,VR_target_stimuli/s35_1x_2_331.png,125,1x,2.0,3,1792,122,meters,jsons/MX_seq24_2_VE125_flipped.json,311199,556417,29,Woman
56,296762,final-intermixed-textured,v2,jsons/MX_seq24_2_VE125_flipped.json,http://54.235.29.9/FacialAge/BNav_EC2/DepthDuration/MX_fS_VE_MTurk/MX_fS_HTML.html#87,87,1536,730,1536,864,1-12-2024,13-41-39,57,VR_target_stimuli/s49_0.75x_4.67_328_BC.png,125,0.75x,4.67,4,2873,128,meters,jsons/MX_seq24_2_VE125_flipped.json,311199,556417,29,Woman
57,296762,final-intermixed-textured,v2,jsons/MX_seq24_2_VE125_flipped.json,http://54.235.29.9/FacialAge/BNav_EC2/DepthDuration/MX_fS_VE_MTurk/MX_fS_HTML.html#87,87,1536,730,1536,864,1-12-2024,13-41-39,58,VR_target_stimuli/s7_0.75x_1.5_253.png,125,0.75x,1.5,2,1824,126,meters,jsons/MX_seq24_2_VE125_flipped.json,311199,556417,29,Woman
58,296762,final-intermixed-textured,v2,jsons/MX_seq24_2_VE125_flipped.json,http://54.235.29.9/FacialAge/BNav_EC2/DepthDuration/MX_fS_VE_MTurk/MX_fS_HTML.html#87,87,1536,730,1536,864,1-12-2024,13-41-39,59,VR_target_stimuli/s20_1.3x_4.99_412_BC.png,125,1.3x,4.99,4,2208,122,meters,jsons/MX_seq24_2_VE125_flipped.json,311199,556417,29,Woman
59,296762,final-intermixed-textured,v2,jsons/MX_seq24_2_VE125_flipped.json,http://54.235.29.9/FacialAge/BNav_EC2/DepthDuration/MX_fS_VE_MTurk/MX_fS_HTML.html#87,87,1536,730,1536,864,1-12-2024,13-41-39,60,VR_target_stimuli/s31_1x_4.96_333_BC.png,125,1x,4.96,2,14809,127,meters,jsons/MX_seq24_2_VE125_flipped.json,311199,556417,29,Woman
