,subjID,experimentName,versionName,sequenceName,url,selected_row,windowWidth,windowHeight,screenWidth,screenHeight,startDate,startTime,trial,stimulus,duration,scale,actual_depth,depth_estimate,trial_RT,log_sceneDuration,unitSelection,seq_filepath,experimentTime,totalTime,age,gender
0,307414,final-intermixed-textured,v2,jsons/MX_seq41_1_VE125.json,http://54.235.29.9/FacialAge/BNav_EC2/DepthDuration/MX_fS_VE_MTurk/MX_fS_HTML.html#194,194,1779,869,1778,1000,1-12-2024,23-41-52,1,VR_target_stimuli/s16_1.3x_1_223_BC.png,125,1.3x,1.0,0.0,4020,125,meters,jsons/MX_seq41_1_VE125.json,218872,734316,26,Man
1,307414,final-intermixed-textured,v2,jsons/MX_seq41_1_VE125.json,http://54.235.29.9/FacialAge/BNav_EC2/DepthDuration/MX_fS_VE_MTurk/MX_fS_HTML.html#194,194,1779,869,1778,1000,1-12-2024,23-41-52,2,VR_target_stimuli/s17_0.75x_1.8_285.png,125,0.75x,1.8,5.0,4958,124,meters,jsons/MX_seq41_1_VE125.json,218872,734316,26,Man
2,307414,final-intermixed-textured,v2,jsons/MX_seq41_1_VE125.json,http://54.235.29.9/FacialAge/BNav_EC2/DepthDuration/MX_fS_VE_MTurk/MX_fS_HTML.html#194,194,1779,869,1778,1000,1-12-2024,23-41-52,3,VR_target_stimuli/s5_1x_4_378.png,125,1x,4.0,4.0,4868,121,meters,jsons/MX_seq41_1_VE125.json,218872,734316,26,Man
3,307414,final-intermixed-textured,v2,jsons/MX_seq41_1_VE125.json,http://54.235.29.9/FacialAge/BNav_EC2/DepthDuration/MX_fS_VE_MTurk/MX_fS_HTML.html#194,194,1779,869,1778,1000,1-12-2024,23-41-52,4,VR_target_stimuli/s37_0.75x_3.3_567_BC.png,125,0.75x,3.3,6.0,4811,125,meters,jsons/MX_seq41_1_VE125.json,218872,734316,26,Man
4,307414,final-intermixed-textured,v2,jsons/MX_seq41_1_VE125.json,http://54.235.29.9/FacialAge/BNav_EC2/DepthDuration/MX_fS_VE_MTurk/MX_fS_HTML.html#194,194,1779,869,1778,1000,1-12-2024,23-41-52,5,VR_target_stimuli/s46_1.3x_2.42_354.png,125,1.3x,2.42,6.0,3379,124,meters,jsons/MX_seq41_1_VE125.json,218872,734316,26,Man
5,307414,final-intermixed-textured,v2,jsons/MX_seq41_1_VE125.json,http://54.235.29.9/FacialAge/BNav_EC2/DepthDuration/MX_fS_VE_MTurk/MX_fS_HTML.html#194,194,1779,869,1778,1000,1-12-2024,23-41-52,6,VR_target_stimuli/s22_1x_4.29_354_BC.png,125,1x,4.29,7.0,3705,128,meters,jsons/MX_seq41_1_VE125.json,218872,734316,26,Man
6,307414,final-intermixed-textured,v2,jsons/MX_seq41_1_VE125.json,http://54.235.29.9/FacialAge/BNav_EC2/DepthDuration/MX_fS_VE_MTurk/MX_fS_HTML.html#194,194,1779,869,1778,1000,1-12-2024,23-41-52,7,catch_stimuli/c0.png,125,,,0.0,4880,126,meters,jsons/MX_seq41_1_VE125.json,218872,734316,26,Man
7,307414,final-intermixed-textured,v2,jsons/MX_seq41_1_VE125.json,http://54.235.29.9/FacialAge/BNav_EC2/DepthDuration/MX_fS_VE_MTurk/MX_fS_HTML.html#194,194,1779,869,1778,1000,1-12-2024,23-41-52,8,VR_target_stimuli/s42_1x_3.2_303_BC.png,125,1x,3.2,5.0,3463,124,meters,jsons/MX_seq41_1_VE125.json,218872,734316,26,Man
8,307414,final-intermixed-textured,v2,jsons/MX_seq41_1_VE125.json,http://54.235.29.9/FacialAge/BNav_EC2/DepthDuration/MX_fS_VE_MTurk/MX_fS_HTML.html#194,194,1779,869,1778,1000,1-12-2024,23-41-52,9,VR_target_stimuli/s25_0.75x_1.4_281.png,125,0.75x,1.4,5.0,3628,123,meters,jsons/MX_seq41_1_VE125.json,218872,734316,26,Man
9,307414,final-intermixed-textured,v2,jsons/MX_seq41_1_VE125.json,http://54.235.29.9/FacialAge/BNav_EC2/DepthDuration/MX_fS_VE_MTurk/MX_fS_HTML.html#194,194,1779,869,1778,1000,1-12-2024,23-41-52,10,VR_target_stimuli/s50_1.3x_4.53_518_BC.png,125,1.3x,4.53,8.0,3909,125,meters,jsons/MX_seq41_1_VE125.json,218872,734316,26,Man
10,307414,final-intermixed-textured,v2,jsons/MX_seq41_1_VE125.json,http://54.235.29.9/FacialAge/BNav_EC2/DepthDuration/MX_fS_VE_MTurk/MX_fS_HTML.html#194,194,1779,869,1778,1000,1-12-2024,23-41-52,11,VR_target_stimuli/s53_0.75x_1.6_403_BC.png,125,0.75x,1.6,5.0,3575,125,meters,jsons/MX_seq41_1_VE125.json,218872,734316,26,Man
11,307414,final-intermixed-textured,v2,jsons/MX_seq41_1_VE125.json,http://54.235.29.9/FacialAge/BNav_EC2/DepthDuration/MX_fS_VE_MTurk/MX_fS_HTML.html#194,194,1779,869,1778,1000,1-12-2024,23-41-52,12,VR_target_stimuli/s38_1x_3.55_353.png,125,1x,3.55,5.0,2388,109,meters,jsons/MX_seq41_1_VE125.json,218872,734316,26,Man
12,307414,final-intermixed-textured,v2,jsons/MX_seq41_1_VE125.json,http://54.235.29.9/FacialAge/BNav_EC2/DepthDuration/MX_fS_VE_MTurk/MX_fS_HTML.html#194,194,1779,869,1778,1000,1-12-2024,23-41-52,13,VR_target_stimuli/s9_1.3x_1.2_276.png,125,1.3x,1.2,4.0,3421,125,meters,jsons/MX_seq41_1_VE125.json,218872,734316,26,Man
13,307414,final-intermixed-textured,v2,jsons/MX_seq41_1_VE125.json,http://54.235.29.9/FacialAge/BNav_EC2/DepthDuration/MX_fS_VE_MTurk/MX_fS_HTML.html#194,194,1779,869,1778,1000,1-12-2024,23-41-52,14,VR_target_stimuli/s44_1x_4.4_317.png,125,1x,4.4,8.0,3402,125,meters,jsons/MX_seq41_1_VE125.json,218872,734316,26,Man
14,307414,final-intermixed-textured,v2,jsons/MX_seq41_1_VE125.json,http://54.235.29.9/FacialAge/BNav_EC2/DepthDuration/MX_fS_VE_MTurk/MX_fS_HTML.html#194,194,1779,869,1778,1000,1-12-2024,23-41-52,15,VR_target_stimuli/s3_0.75x_5_381_BC.png,125,0.75x,5.0,8.0,2235,125,meters,jsons/MX_seq41_1_VE125.json,218872,734316,26,Man
15,307414,final-intermixed-textured,v2,jsons/MX_seq41_1_VE125.json,http://54.235.29.9/FacialAge/BNav_EC2/DepthDuration/MX_fS_VE_MTurk/MX_fS_HTML.html#194,194,1779,869,1778,1000,1-12-2024,23-41-52,16,VR_target_stimuli/s1_1.3x_1.7_261_BC.png,125,1.3x,1.7,3.0,3659,125,meters,jsons/MX_seq41_1_VE125.json,218872,734316,26,Man
16,307414,final-intermixed-textured,v2,jsons/MX_seq41_1_VE125.json,http://54.235.29.9/FacialAge/BNav_EC2/DepthDuration/MX_fS_VE_MTurk/MX_fS_HTML.html#194,194,1779,869,1778,1000,1-12-2024,23-41-52,17,catch_stimuli/c1.png,125,,,8.0,3684,124,meters,jsons/MX_seq41_1_VE125.json,218872,734316,26,Man
17,307414,final-intermixed-textured,v2,jsons/MX_seq41_1_VE125.json,http://54.235.29.9/FacialAge/BNav_EC2/DepthDuration/MX_fS_VE_MTurk/MX_fS_HTML.html#194,194,1779,869,1778,1000,1-12-2024,23-41-52,18,VR_target_stimuli/s11_1.3x_5_363.png,125,1.3x,5.0,8.0,2189,125,meters,jsons/MX_seq41_1_VE125.json,218872,734316,26,Man
18,307414,final-intermixed-textured,v2,jsons/MX_seq41_1_VE125.json,http://54.235.29.9/FacialAge/BNav_EC2/DepthDuration/MX_fS_VE_MTurk/MX_fS_HTML.html#194,194,1779,869,1778,1000,1-12-2024,23-41-52,19,VR_target_stimuli/s2_1x_2.7_390_BC.png,125,1x,2.7,4.0,3052,124,meters,jsons/MX_seq41_1_VE125.json,218872,734316,26,Man
19,307414,final-intermixed-textured,v2,jsons/MX_seq41_1_VE125.json,http://54.235.29.9/FacialAge/BNav_EC2/DepthDuration/MX_fS_VE_MTurk/MX_fS_HTML.html#194,194,1779,869,1778,1000,1-12-2024,23-41-52,20,VR_target_stimuli/s6_0.75x_2.1_290.png,125,0.75x,2.1,4.0,3451,127,meters,jsons/MX_seq41_1_VE125.json,218872,734316,26,Man
20,307414,final-intermixed-textured,v2,jsons/MX_seq41_1_VE125.json,http://54.235.29.9/FacialAge/BNav_EC2/DepthDuration/MX_fS_VE_MTurk/MX_fS_HTML.html#194,194,1779,869,1778,1000,1-12-2024,23-41-52,21,VR_target_stimuli/s0_1x_2.6_351_BC.png,125,1x,2.6,4.0,5826,124,meters,jsons/MX_seq41_1_VE125.json,218872,734316,26,Man
21,307414,final-intermixed-textured,v2,jsons/MX_seq41_1_VE125.json,http://54.235.29.9/FacialAge/BNav_EC2/DepthDuration/MX_fS_VE_MTurk/MX_fS_HTML.html#194,194,1779,869,1778,1000,1-12-2024,23-41-52,22,VR_target_stimuli/s34_1.3x_2.8_294_BC.png,125,1.3x,2.8,5.0,2559,125,meters,jsons/MX_seq41_1_VE125.json,218872,734316,26,Man
22,307414,final-intermixed-textured,v2,jsons/MX_seq41_1_VE125.json,http://54.235.29.9/FacialAge/BNav_EC2/DepthDuration/MX_fS_VE_MTurk/MX_fS_HTML.html#194,194,1779,869,1778,1000,1-12-2024,23-41-52,23,VR_target_stimuli/s13_0.75x_2.4_308.png,125,0.75x,2.4,5.0,2332,123,meters,jsons/MX_seq41_1_VE125.json,218872,734316,26,Man
23,307414,final-intermixed-textured,v2,jsons/MX_seq41_1_VE125.json,http://54.235.29.9/FacialAge/BNav_EC2/DepthDuration/MX_fS_VE_MTurk/MX_fS_HTML.html#194,194,1779,869,1778,1000,1-12-2024,23-41-52,24,VR_target_stimuli/s14_1.3x_3.83_359.png,125,1.3x,3.83,4.0,2264,124,meters,jsons/MX_seq41_1_VE125.json,218872,734316,26,Man
24,307414,final-intermixed-textured,v2,jsons/MX_seq41_1_VE125.json,http://54.235.29.9/FacialAge/BNav_EC2/DepthDuration/MX_fS_VE_MTurk/MX_fS_HTML.html#194,194,1779,869,1778,1000,1-12-2024,23-41-52,25,VR_target_stimuli/s47_1x_3.45_370.png,125,1x,3.45,3.0,3181,125,meters,jsons/MX_seq41_1_VE125.json,218872,734316,26,Man
25,307414,final-intermixed-textured,v2,jsons/MX_seq41_1_VE125.json,http://54.235.29.9/FacialAge/BNav_EC2/DepthDuration/MX_fS_VE_MTurk/MX_fS_HTML.html#194,194,1779,869,1778,1000,1-12-2024,23-41-52,26,catch_stimuli/c2.png,125,,,5.0,2227,124,meters,jsons/MX_seq41_1_VE125.json,218872,734316,26,Man
26,307414,final-intermixed-textured,v2,jsons/MX_seq41_1_VE125.json,http://54.235.29.9/FacialAge/BNav_EC2/DepthDuration/MX_fS_VE_MTurk/MX_fS_HTML.html#194,194,1779,869,1778,1000,1-12-2024,23-41-52,27,VR_target_stimuli/s29_0.75x_1.3_246_BC.png,125,0.75x,1.3,5.0,2237,124,meters,jsons/MX_seq41_1_VE125.json,218872,734316,26,Man
27,307414,final-intermixed-textured,v2,jsons/MX_seq41_1_VE125.json,http://54.235.29.9/FacialAge/BNav_EC2/DepthDuration/MX_fS_VE_MTurk/MX_fS_HTML.html#194,194,1779,869,1778,1000,1-12-2024,23-41-52,28,VR_target_stimuli/s28_0.75x_3.2_357.png,125,0.75x,3.2,5.0,2125,125,meters,jsons/MX_seq41_1_VE125.json,218872,734316,26,Man
28,307414,final-intermixed-textured,v2,jsons/MX_seq41_1_VE125.json,http://54.235.29.9/FacialAge/BNav_EC2/DepthDuration/MX_fS_VE_MTurk/MX_fS_HTML.html#194,194,1779,869,1778,1000,1-12-2024,23-41-52,29,VR_target_stimuli/s48_1.3x_2.55_255_BC.png,125,1.3x,2.55,5.0,1988,124,meters,jsons/MX_seq41_1_VE125.json,218872,734316,26,Man
29,307414,final-intermixed-textured,v2,jsons/MX_seq41_1_VE125.json,http://54.235.29.9/FacialAge/BNav_EC2/DepthDuration/MX_fS_VE_MTurk/MX_fS_HTML.html#194,194,1779,869,1778,1000,1-12-2024,23-41-52,30,VR_target_stimuli/s19_1x_1.21_263.png,125,1x,1.21,4.0,2317,123,meters,jsons/MX_seq41_1_VE125.json,218872,734316,26,Man
30,307414,final-intermixed-textured,v2,jsons/MX_seq41_1_VE125.json,http://54.235.29.9/FacialAge/BNav_EC2/DepthDuration/MX_fS_VE_MTurk/MX_fS_HTML.html#194,194,1779,869,1778,1000,1-12-2024,23-41-52,31,VR_target_stimuli/s21_0.75x_4.22_374_BC.png,125,0.75x,4.22,4.0,2322,127,meters,jsons/MX_seq41_1_VE125.json,218872,734316,26,Man
31,307414,final-intermixed-textured,v2,jsons/MX_seq41_1_VE125.json,http://54.235.29.9/FacialAge/BNav_EC2/DepthDuration/MX_fS_VE_MTurk/MX_fS_HTML.html#194,194,1779,869,1778,1000,1-12-2024,23-41-52,32,VR_target_stimuli/s8_1x_3.1_332_BC.png,125,1x,3.1,6.0,3191,124,meters,jsons/MX_seq41_1_VE125.json,218872,734316,26,Man
32,307414,final-intermixed-textured,v2,jsons/MX_seq41_1_VE125.json,http://54.235.29.9/FacialAge/BNav_EC2/DepthDuration/MX_fS_VE_MTurk/MX_fS_HTML.html#194,194,1779,869,1778,1000,1-12-2024,23-41-52,33,VR_target_stimuli/s27_1.3x_1.76_250.png,125,1.3x,1.76,5.0,2296,124,meters,jsons/MX_seq41_1_VE125.json,218872,734316,26,Man
33,307414,final-intermixed-textured,v2,jsons/MX_seq41_1_VE125.json,http://54.235.29.9/FacialAge/BNav_EC2/DepthDuration/MX_fS_VE_MTurk/MX_fS_HTML.html#194,194,1779,869,1778,1000,1-12-2024,23-41-52,34,catch_stimuli/c3.png,125,,,0.0,6779,125,meters,jsons/MX_seq41_1_VE125.json,218872,734316,26,Man
34,307414,final-intermixed-textured,v2,jsons/MX_seq41_1_VE125.json,http://54.235.29.9/FacialAge/BNav_EC2/DepthDuration/MX_fS_VE_MTurk/MX_fS_HTML.html#194,194,1779,869,1778,1000,1-12-2024,23-41-52,35,VR_target_stimuli/s15_1x_4.2_390_BC.png,125,1x,4.2,4.0,3713,125,meters,jsons/MX_seq41_1_VE125.json,218872,734316,26,Man
35,307414,final-intermixed-textured,v2,jsons/MX_seq41_1_VE125.json,http://54.235.29.9/FacialAge/BNav_EC2/DepthDuration/MX_fS_VE_MTurk/MX_fS_HTML.html#194,194,1779,869,1778,1000,1-12-2024,23-41-52,36,VR_target_stimuli/s4_0.75x_1.4_301_BC.png,125,0.75x,1.4,4.0,2103,124,meters,jsons/MX_seq41_1_VE125.json,218872,734316,26,Man
36,307414,final-intermixed-textured,v2,jsons/MX_seq41_1_VE125.json,http://54.235.29.9/FacialAge/BNav_EC2/DepthDuration/MX_fS_VE_MTurk/MX_fS_HTML.html#194,194,1779,869,1778,1000,1-12-2024,23-41-52,37,VR_target_stimuli/s35_1.3x_2_338.png,125,1.3x,2.0,4.0,2207,124,meters,jsons/MX_seq41_1_VE125.json,218872,734316,26,Man
37,307414,final-intermixed-textured,v2,jsons/MX_seq41_1_VE125.json,http://54.235.29.9/FacialAge/BNav_EC2/DepthDuration/MX_fS_VE_MTurk/MX_fS_HTML.html#194,194,1779,869,1778,1000,1-12-2024,23-41-52,38,VR_target_stimuli/s49_1.3x_4.67_354_BC.png,125,1.3x,4.67,7.0,2988,125,meters,jsons/MX_seq41_1_VE125.json,218872,734316,26,Man
38,307414,final-intermixed-textured,v2,jsons/MX_seq41_1_VE125.json,http://54.235.29.9/FacialAge/BNav_EC2/DepthDuration/MX_fS_VE_MTurk/MX_fS_HTML.html#194,194,1779,869,1778,1000,1-12-2024,23-41-52,39,VR_target_stimuli/s7_1x_1.5_255.png,125,1x,1.5,4.0,3010,128,meters,jsons/MX_seq41_1_VE125.json,218872,734316,26,Man
39,307414,final-intermixed-textured,v2,jsons/MX_seq41_1_VE125.json,http://54.235.29.9/FacialAge/BNav_EC2/DepthDuration/MX_fS_VE_MTurk/MX_fS_HTML.html#194,194,1779,869,1778,1000,1-12-2024,23-41-52,40,VR_target_stimuli/s20_0.75x_4.99_390.png,125,0.75x,4.99,7.0,2229,124,meters,jsons/MX_seq41_1_VE125.json,218872,734316,26,Man
40,307414,final-intermixed-textured,v2,jsons/MX_seq41_1_VE125.json,http://54.235.29.9/FacialAge/BNav_EC2/DepthDuration/MX_fS_VE_MTurk/MX_fS_HTML.html#194,194,1779,869,1778,1000,1-12-2024,23-41-52,41,VR_target_stimuli/s31_1x_4.96_333_BC.png,125,1x,4.96,5.0,3654,124,meters,jsons/MX_seq41_1_VE125.json,218872,734316,26,Man
41,307414,final-intermixed-textured,v2,jsons/MX_seq41_1_VE125.json,http://54.235.29.9/FacialAge/BNav_EC2/DepthDuration/MX_fS_VE_MTurk/MX_fS_HTML.html#194,194,1779,869,1778,1000,1-12-2024,23-41-52,42,VR_target_stimuli/s33_1.3x_3.1_378_BC.png,125,1.3x,3.1,5.0,2166,125,meters,jsons/MX_seq41_1_VE125.json,218872,734316,26,Man
42,307414,final-intermixed-textured,v2,jsons/MX_seq41_1_VE125.json,http://54.235.29.9/FacialAge/BNav_EC2/DepthDuration/MX_fS_VE_MTurk/MX_fS_HTML.html#194,194,1779,869,1778,1000,1-12-2024,23-41-52,43,VR_target_stimuli/s52_0.75x_3.2_270.png,125,0.75x,3.2,4.0,5141,125,meters,jsons/MX_seq41_1_VE125.json,218872,734316,26,Man
43,307414,final-intermixed-textured,v2,jsons/MX_seq41_1_VE125.json,http://54.235.29.9/FacialAge/BNav_EC2/DepthDuration/MX_fS_VE_MTurk/MX_fS_HTML.html#194,194,1779,869,1778,1000,1-12-2024,23-41-52,44,VR_target_stimuli/s32_1.3x_1.5_224.png,125,1.3x,1.5,4.0,2460,124,meters,jsons/MX_seq41_1_VE125.json,218872,734316,26,Man
44,307414,final-intermixed-textured,v2,jsons/MX_seq41_1_VE125.json,http://54.235.29.9/FacialAge/BNav_EC2/DepthDuration/MX_fS_VE_MTurk/MX_fS_HTML.html#194,194,1779,869,1778,1000,1-12-2024,23-41-52,45,catch_stimuli/c4.png,125,,,4.0,2475,123,meters,jsons/MX_seq41_1_VE125.json,218872,734316,26,Man
45,307414,final-intermixed-textured,v2,jsons/MX_seq41_1_VE125.json,http://54.235.29.9/FacialAge/BNav_EC2/DepthDuration/MX_fS_VE_MTurk/MX_fS_HTML.html#194,194,1779,869,1778,1000,1-12-2024,23-41-52,46,VR_target_stimuli/s18_1x_2.25_353.png,125,1x,2.25,4.0,1987,110,meters,jsons/MX_seq41_1_VE125.json,218872,734316,26,Man
46,307414,final-intermixed-textured,v2,jsons/MX_seq41_1_VE125.json,http://54.235.29.9/FacialAge/BNav_EC2/DepthDuration/MX_fS_VE_MTurk/MX_fS_HTML.html#194,194,1779,869,1778,1000,1-12-2024,23-41-52,47,VR_target_stimuli/s39_0.75x_1_205_BC.png,125,0.75x,1.0,3.0,3497,125,meters,jsons/MX_seq41_1_VE125.json,218872,734316,26,Man
47,307414,final-intermixed-textured,v2,jsons/MX_seq41_1_VE125.json,http://54.235.29.9/FacialAge/BNav_EC2/DepthDuration/MX_fS_VE_MTurk/MX_fS_HTML.html#194,194,1779,869,1778,1000,1-12-2024,23-41-52,48,VR_target_stimuli/s51_0.75x_3.64_460.png,125,0.75x,3.64,4.0,3049,123,meters,jsons/MX_seq41_1_VE125.json,218872,734316,26,Man
48,307414,final-intermixed-textured,v2,jsons/MX_seq41_1_VE125.json,http://54.235.29.9/FacialAge/BNav_EC2/DepthDuration/MX_fS_VE_MTurk/MX_fS_HTML.html#194,194,1779,869,1778,1000,1-12-2024,23-41-52,49,VR_target_stimuli/s43_1.3x_2.2_363_BC.png,125,1.3x,2.2,4.0,2166,126,meters,jsons/MX_seq41_1_VE125.json,218872,734316,26,Man
49,307414,final-intermixed-textured,v2,jsons/MX_seq41_1_VE125.json,http://54.235.29.9/FacialAge/BNav_EC2/DepthDuration/MX_fS_VE_MTurk/MX_fS_HTML.html#194,194,1779,869,1778,1000,1-12-2024,23-41-52,50,VR_target_stimuli/s24_1x_3.3_349_BC.png,125,1x,3.3,5.0,3883,139,meters,jsons/MX_seq41_1_VE125.json,218872,734316,26,Man
50,307414,final-intermixed-textured,v2,jsons/MX_seq41_1_VE125.json,http://54.235.29.9/FacialAge/BNav_EC2/DepthDuration/MX_fS_VE_MTurk/MX_fS_HTML.html#194,194,1779,869,1778,1000,1-12-2024,23-41-52,51,VR_target_stimuli/s10_1.3x_2.7_325.png,125,1.3x,2.7,5.0,4028,123,meters,jsons/MX_seq41_1_VE125.json,218872,734316,26,Man
51,307414,final-intermixed-textured,v2,jsons/MX_seq41_1_VE125.json,http://54.235.29.9/FacialAge/BNav_EC2/DepthDuration/MX_fS_VE_MTurk/MX_fS_HTML.html#194,194,1779,869,1778,1000,1-12-2024,23-41-52,52,VR_target_stimuli/s36_0.75x_4.1_407_BC.png,125,0.75x,4.1,5.0,2320,131,meters,jsons/MX_seq41_1_VE125.json,218872,734316,26,Man
52,307414,final-intermixed-textured,v2,jsons/MX_seq41_1_VE125.json,http://54.235.29.9/FacialAge/BNav_EC2/DepthDuration/MX_fS_VE_MTurk/MX_fS_HTML.html#194,194,1779,869,1778,1000,1-12-2024,23-41-52,53,catch_stimuli/c5.png,125,,,0.0,3731,123,meters,jsons/MX_seq41_1_VE125.json,218872,734316,26,Man
53,307414,final-intermixed-textured,v2,jsons/MX_seq41_1_VE125.json,http://54.235.29.9/FacialAge/BNav_EC2/DepthDuration/MX_fS_VE_MTurk/MX_fS_HTML.html#194,194,1779,869,1778,1000,1-12-2024,23-41-52,54,VR_target_stimuli/s40_1x_1.2_319.png,125,1x,1.2,5.0,3238,125,meters,jsons/MX_seq41_1_VE125.json,218872,734316,26,Man
54,307414,final-intermixed-textured,v2,jsons/MX_seq41_1_VE125.json,http://54.235.29.9/FacialAge/BNav_EC2/DepthDuration/MX_fS_VE_MTurk/MX_fS_HTML.html#194,194,1779,869,1778,1000,1-12-2024,23-41-52,55,VR_target_stimuli/s41_0.75x_2.1_281_BC.png,125,0.75x,2.1,5.0,2688,125,meters,jsons/MX_seq41_1_VE125.json,218872,734316,26,Man
55,307414,final-intermixed-textured,v2,jsons/MX_seq41_1_VE125.json,http://54.235.29.9/FacialAge/BNav_EC2/DepthDuration/MX_fS_VE_MTurk/MX_fS_HTML.html#194,194,1779,869,1778,1000,1-12-2024,23-41-52,56,VR_target_stimuli/s45_1.3x_3.5_377.png,125,1.3x,3.5,5.0,2066,137,meters,jsons/MX_seq41_1_VE125.json,218872,734316,26,Man
56,307414,final-intermixed-textured,v2,jsons/MX_seq41_1_VE125.json,http://54.235.29.9/FacialAge/BNav_EC2/DepthDuration/MX_fS_VE_MTurk/MX_fS_HTML.html#194,194,1779,869,1778,1000,1-12-2024,23-41-52,57,VR_target_stimuli/s23_1x_3.65_353_BC.png,125,1x,3.65,5.0,1982,123,meters,jsons/MX_seq41_1_VE125.json,218872,734316,26,Man
57,307414,final-intermixed-textured,v2,jsons/MX_seq41_1_VE125.json,http://54.235.29.9/FacialAge/BNav_EC2/DepthDuration/MX_fS_VE_MTurk/MX_fS_HTML.html#194,194,1779,869,1778,1000,1-12-2024,23-41-52,58,VR_target_stimuli/s26_1x_4_433.png,125,1x,4.0,6.0,2920,123,meters,jsons/MX_seq41_1_VE125.json,218872,734316,26,Man
58,307414,final-intermixed-textured,v2,jsons/MX_seq41_1_VE125.json,http://54.235.29.9/FacialAge/BNav_EC2/DepthDuration/MX_fS_VE_MTurk/MX_fS_HTML.html#194,194,1779,869,1778,1000,1-12-2024,23-41-52,59,VR_target_stimuli/s12_0.75x_3.1_364.png,125,0.75x,3.1,5.0,2288,124,meters,jsons/MX_seq41_1_VE125.json,218872,734316,26,Man
59,307414,final-intermixed-textured,v2,jsons/MX_seq41_1_VE125.json,http://54.235.29.9/FacialAge/BNav_EC2/DepthDuration/MX_fS_VE_MTurk/MX_fS_HTML.html#194,194,1779,869,1778,1000,1-12-2024,23-41-52,60,VR_target_stimuli/s30_1.3x_2.3_337_BC.png,125,1.3x,2.3,5.0,2090,124,meters,jsons/MX_seq41_1_VE125.json,218872,734316,26,Man
