,subjID,experimentName,versionName,sequenceName,url,selected_row,windowWidth,windowHeight,screenWidth,screenHeight,startDate,startTime,trial,stimulus,duration,scale,actual_depth,depth_estimate,trial_RT,log_sceneDuration,unitSelection,seq_filepath,experimentTime,totalTime,age,gender
0,309980,final-intermixed-textured,v2,jsons/MX_seq32_1_VE125.json,http://54.235.29.9/FacialAge/BNav_EC2/DepthDuration/MX_fS_VE_MTurk/MX_fS_HTML.html#123,123,1440,815,1440,900,1-12-2024,21-40-37,1,VR_target_stimuli/s10_1.3x_2.7_325.png,125,1.3x,2.7,6.0,3794,124,meters,jsons/MX_seq32_1_VE125.json,249166,452027,44,Man
1,309980,final-intermixed-textured,v2,jsons/MX_seq32_1_VE125.json,http://54.235.29.9/FacialAge/BNav_EC2/DepthDuration/MX_fS_VE_MTurk/MX_fS_HTML.html#123,123,1440,815,1440,900,1-12-2024,21-40-37,2,VR_target_stimuli/s36_0.75x_4.1_407.png,125,0.75x,4.1,10.0,5296,127,meters,jsons/MX_seq32_1_VE125.json,249166,452027,44,Man
2,309980,final-intermixed-textured,v2,jsons/MX_seq32_1_VE125.json,http://54.235.29.9/FacialAge/BNav_EC2/DepthDuration/MX_fS_VE_MTurk/MX_fS_HTML.html#123,123,1440,815,1440,900,1-12-2024,21-40-37,3,VR_target_stimuli/s40_1x_1.2_319.png,125,1x,1.2,8.0,3560,124,meters,jsons/MX_seq32_1_VE125.json,249166,452027,44,Man
3,309980,final-intermixed-textured,v2,jsons/MX_seq32_1_VE125.json,http://54.235.29.9/FacialAge/BNav_EC2/DepthDuration/MX_fS_VE_MTurk/MX_fS_HTML.html#123,123,1440,815,1440,900,1-12-2024,21-40-37,4,VR_target_stimuli/s41_0.75x_2.1_281_BC.png,125,0.75x,2.1,7.0,3566,125,meters,jsons/MX_seq32_1_VE125.json,249166,452027,44,Man
4,309980,final-intermixed-textured,v2,jsons/MX_seq32_1_VE125.json,http://54.235.29.9/FacialAge/BNav_EC2/DepthDuration/MX_fS_VE_MTurk/MX_fS_HTML.html#123,123,1440,815,1440,900,1-12-2024,21-40-37,5,VR_target_stimuli/s45_1.3x_3.5_377_BC.png,125,1.3x,3.5,9.0,3324,119,meters,jsons/MX_seq32_1_VE125.json,249166,452027,44,Man
5,309980,final-intermixed-textured,v2,jsons/MX_seq32_1_VE125.json,http://54.235.29.9/FacialAge/BNav_EC2/DepthDuration/MX_fS_VE_MTurk/MX_fS_HTML.html#123,123,1440,815,1440,900,1-12-2024,21-40-37,6,VR_target_stimuli/s23_1x_3.65_353_BC.png,125,1x,3.65,6.0,4495,124,meters,jsons/MX_seq32_1_VE125.json,249166,452027,44,Man
6,309980,final-intermixed-textured,v2,jsons/MX_seq32_1_VE125.json,http://54.235.29.9/FacialAge/BNav_EC2/DepthDuration/MX_fS_VE_MTurk/MX_fS_HTML.html#123,123,1440,815,1440,900,1-12-2024,21-40-37,7,catch_stimuli/c0.png,125,,,6.0,3412,123,meters,jsons/MX_seq32_1_VE125.json,249166,452027,44,Man
7,309980,final-intermixed-textured,v2,jsons/MX_seq32_1_VE125.json,http://54.235.29.9/FacialAge/BNav_EC2/DepthDuration/MX_fS_VE_MTurk/MX_fS_HTML.html#123,123,1440,815,1440,900,1-12-2024,21-40-37,8,VR_target_stimuli/s26_1x_4_433_BC.png,125,1x,4.0,9.0,3241,124,meters,jsons/MX_seq32_1_VE125.json,249166,452027,44,Man
8,309980,final-intermixed-textured,v2,jsons/MX_seq32_1_VE125.json,http://54.235.29.9/FacialAge/BNav_EC2/DepthDuration/MX_fS_VE_MTurk/MX_fS_HTML.html#123,123,1440,815,1440,900,1-12-2024,21-40-37,9,VR_target_stimuli/s12_0.75x_3.1_364.png,125,0.75x,3.1,5.0,3162,122,meters,jsons/MX_seq32_1_VE125.json,249166,452027,44,Man
9,309980,final-intermixed-textured,v2,jsons/MX_seq32_1_VE125.json,http://54.235.29.9/FacialAge/BNav_EC2/DepthDuration/MX_fS_VE_MTurk/MX_fS_HTML.html#123,123,1440,815,1440,900,1-12-2024,21-40-37,10,VR_target_stimuli/s30_1.3x_2.3_337_BC.png,125,1.3x,2.3,4.0,5560,119,meters,jsons/MX_seq32_1_VE125.json,249166,452027,44,Man
10,309980,final-intermixed-textured,v2,jsons/MX_seq32_1_VE125.json,http://54.235.29.9/FacialAge/BNav_EC2/DepthDuration/MX_fS_VE_MTurk/MX_fS_HTML.html#123,123,1440,815,1440,900,1-12-2024,21-40-37,11,VR_target_stimuli/s16_0.75x_1_217_BC.png,125,0.75x,1.0,3.0,6048,127,meters,jsons/MX_seq32_1_VE125.json,249166,452027,44,Man
11,309980,final-intermixed-textured,v2,jsons/MX_seq32_1_VE125.json,http://54.235.29.9/FacialAge/BNav_EC2/DepthDuration/MX_fS_VE_MTurk/MX_fS_HTML.html#123,123,1440,815,1440,900,1-12-2024,21-40-37,12,VR_target_stimuli/s17_1x_1.8_291.png,125,1x,1.8,2.0,3610,122,meters,jsons/MX_seq32_1_VE125.json,249166,452027,44,Man
12,309980,final-intermixed-textured,v2,jsons/MX_seq32_1_VE125.json,http://54.235.29.9/FacialAge/BNav_EC2/DepthDuration/MX_fS_VE_MTurk/MX_fS_HTML.html#123,123,1440,815,1440,900,1-12-2024,21-40-37,13,VR_target_stimuli/s5_1.3x_4_393.png,125,1.3x,4.0,6.0,3010,123,meters,jsons/MX_seq32_1_VE125.json,249166,452027,44,Man
13,309980,final-intermixed-textured,v2,jsons/MX_seq32_1_VE125.json,http://54.235.29.9/FacialAge/BNav_EC2/DepthDuration/MX_fS_VE_MTurk/MX_fS_HTML.html#123,123,1440,815,1440,900,1-12-2024,21-40-37,14,VR_target_stimuli/s37_1x_3.3_563_BC.png,125,1x,3.3,10.0,3577,124,meters,jsons/MX_seq32_1_VE125.json,249166,452027,44,Man
14,309980,final-intermixed-textured,v2,jsons/MX_seq32_1_VE125.json,http://54.235.29.9/FacialAge/BNav_EC2/DepthDuration/MX_fS_VE_MTurk/MX_fS_HTML.html#123,123,1440,815,1440,900,1-12-2024,21-40-37,15,VR_target_stimuli/s46_0.75x_2.42_343_BC.png,125,0.75x,2.42,7.0,3478,125,meters,jsons/MX_seq32_1_VE125.json,249166,452027,44,Man
15,309980,final-intermixed-textured,v2,jsons/MX_seq32_1_VE125.json,http://54.235.29.9/FacialAge/BNav_EC2/DepthDuration/MX_fS_VE_MTurk/MX_fS_HTML.html#123,123,1440,815,1440,900,1-12-2024,21-40-37,16,VR_target_stimuli/s22_1.3x_4.29_364.png,125,1.3x,4.29,7.0,2860,123,meters,jsons/MX_seq32_1_VE125.json,249166,452027,44,Man
16,309980,final-intermixed-textured,v2,jsons/MX_seq32_1_VE125.json,http://54.235.29.9/FacialAge/BNav_EC2/DepthDuration/MX_fS_VE_MTurk/MX_fS_HTML.html#123,123,1440,815,1440,900,1-12-2024,21-40-37,17,catch_stimuli/c1.png,125,,,9.0,2648,123,meters,jsons/MX_seq32_1_VE125.json,249166,452027,44,Man
17,309980,final-intermixed-textured,v2,jsons/MX_seq32_1_VE125.json,http://54.235.29.9/FacialAge/BNav_EC2/DepthDuration/MX_fS_VE_MTurk/MX_fS_HTML.html#123,123,1440,815,1440,900,1-12-2024,21-40-37,18,VR_target_stimuli/s42_1.3x_3.2_305_BC.png,125,1.3x,3.2,6.0,2811,119,meters,jsons/MX_seq32_1_VE125.json,249166,452027,44,Man
18,309980,final-intermixed-textured,v2,jsons/MX_seq32_1_VE125.json,http://54.235.29.9/FacialAge/BNav_EC2/DepthDuration/MX_fS_VE_MTurk/MX_fS_HTML.html#123,123,1440,815,1440,900,1-12-2024,21-40-37,19,VR_target_stimuli/s25_1x_1.4_290.png,125,1x,1.4,7.0,2777,123,meters,jsons/MX_seq32_1_VE125.json,249166,452027,44,Man
19,309980,final-intermixed-textured,v2,jsons/MX_seq32_1_VE125.json,http://54.235.29.9/FacialAge/BNav_EC2/DepthDuration/MX_fS_VE_MTurk/MX_fS_HTML.html#123,123,1440,815,1440,900,1-12-2024,21-40-37,20,VR_target_stimuli/s50_0.75x_4.53_517.png,125,0.75x,4.53,11.0,4411,119,meters,jsons/MX_seq32_1_VE125.json,249166,452027,44,Man
20,309980,final-intermixed-textured,v2,jsons/MX_seq32_1_VE125.json,http://54.235.29.9/FacialAge/BNav_EC2/DepthDuration/MX_fS_VE_MTurk/MX_fS_HTML.html#123,123,1440,815,1440,900,1-12-2024,21-40-37,21,VR_target_stimuli/s53_1x_1.6_387_BC.png,125,1x,1.6,5.0,3461,122,meters,jsons/MX_seq32_1_VE125.json,249166,452027,44,Man
21,309980,final-intermixed-textured,v2,jsons/MX_seq32_1_VE125.json,http://54.235.29.9/FacialAge/BNav_EC2/DepthDuration/MX_fS_VE_MTurk/MX_fS_HTML.html#123,123,1440,815,1440,900,1-12-2024,21-40-37,22,VR_target_stimuli/s38_1.3x_3.55_358.png,125,1.3x,3.55,7.0,3312,123,meters,jsons/MX_seq32_1_VE125.json,249166,452027,44,Man
22,309980,final-intermixed-textured,v2,jsons/MX_seq32_1_VE125.json,http://54.235.29.9/FacialAge/BNav_EC2/DepthDuration/MX_fS_VE_MTurk/MX_fS_HTML.html#123,123,1440,815,1440,900,1-12-2024,21-40-37,23,VR_target_stimuli/s9_0.75x_1.2_260.png,125,0.75x,1.2,4.0,4634,129,meters,jsons/MX_seq32_1_VE125.json,249166,452027,44,Man
23,309980,final-intermixed-textured,v2,jsons/MX_seq32_1_VE125.json,http://54.235.29.9/FacialAge/BNav_EC2/DepthDuration/MX_fS_VE_MTurk/MX_fS_HTML.html#123,123,1440,815,1440,900,1-12-2024,21-40-37,24,VR_target_stimuli/s44_1.3x_4.4_325_BC.png,125,1.3x,4.4,4.0,3175,123,meters,jsons/MX_seq32_1_VE125.json,249166,452027,44,Man
24,309980,final-intermixed-textured,v2,jsons/MX_seq32_1_VE125.json,http://54.235.29.9/FacialAge/BNav_EC2/DepthDuration/MX_fS_VE_MTurk/MX_fS_HTML.html#123,123,1440,815,1440,900,1-12-2024,21-40-37,25,VR_target_stimuli/s3_1x_5_385.png,125,1x,5.0,4.0,2877,119,meters,jsons/MX_seq32_1_VE125.json,249166,452027,44,Man
25,309980,final-intermixed-textured,v2,jsons/MX_seq32_1_VE125.json,http://54.235.29.9/FacialAge/BNav_EC2/DepthDuration/MX_fS_VE_MTurk/MX_fS_HTML.html#123,123,1440,815,1440,900,1-12-2024,21-40-37,26,catch_stimuli/c2.png,125,,,15.0,3582,123,meters,jsons/MX_seq32_1_VE125.json,249166,452027,44,Man
26,309980,final-intermixed-textured,v2,jsons/MX_seq32_1_VE125.json,http://54.235.29.9/FacialAge/BNav_EC2/DepthDuration/MX_fS_VE_MTurk/MX_fS_HTML.html#123,123,1440,815,1440,900,1-12-2024,21-40-37,27,VR_target_stimuli/s1_0.75x_1.7_265_BC.png,125,0.75x,1.7,5.0,3060,122,meters,jsons/MX_seq32_1_VE125.json,249166,452027,44,Man
27,309980,final-intermixed-textured,v2,jsons/MX_seq32_1_VE125.json,http://54.235.29.9/FacialAge/BNav_EC2/DepthDuration/MX_fS_VE_MTurk/MX_fS_HTML.html#123,123,1440,815,1440,900,1-12-2024,21-40-37,28,VR_target_stimuli/s11_0.75x_5_359_BC.png,125,0.75x,5.0,10.0,4883,127,meters,jsons/MX_seq32_1_VE125.json,249166,452027,44,Man
28,309980,final-intermixed-textured,v2,jsons/MX_seq32_1_VE125.json,http://54.235.29.9/FacialAge/BNav_EC2/DepthDuration/MX_fS_VE_MTurk/MX_fS_HTML.html#123,123,1440,815,1440,900,1-12-2024,21-40-37,29,VR_target_stimuli/s2_1.3x_2.7_397_BC.png,125,1.3x,2.7,4.0,3615,127,meters,jsons/MX_seq32_1_VE125.json,249166,452027,44,Man
29,309980,final-intermixed-textured,v2,jsons/MX_seq32_1_VE125.json,http://54.235.29.9/FacialAge/BNav_EC2/DepthDuration/MX_fS_VE_MTurk/MX_fS_HTML.html#123,123,1440,815,1440,900,1-12-2024,21-40-37,30,VR_target_stimuli/s6_1x_2.1_293_BC.png,125,1x,2.1,3.0,3061,124,meters,jsons/MX_seq32_1_VE125.json,249166,452027,44,Man
30,309980,final-intermixed-textured,v2,jsons/MX_seq32_1_VE125.json,http://54.235.29.9/FacialAge/BNav_EC2/DepthDuration/MX_fS_VE_MTurk/MX_fS_HTML.html#123,123,1440,815,1440,900,1-12-2024,21-40-37,31,VR_target_stimuli/s0_0.75x_2.6_345.png,125,0.75x,2.6,4.0,2945,119,meters,jsons/MX_seq32_1_VE125.json,249166,452027,44,Man
31,309980,final-intermixed-textured,v2,jsons/MX_seq32_1_VE125.json,http://54.235.29.9/FacialAge/BNav_EC2/DepthDuration/MX_fS_VE_MTurk/MX_fS_HTML.html#123,123,1440,815,1440,900,1-12-2024,21-40-37,32,VR_target_stimuli/s34_1x_2.8_283.png,125,1x,2.8,4.0,2660,124,meters,jsons/MX_seq32_1_VE125.json,249166,452027,44,Man
32,309980,final-intermixed-textured,v2,jsons/MX_seq32_1_VE125.json,http://54.235.29.9/FacialAge/BNav_EC2/DepthDuration/MX_fS_VE_MTurk/MX_fS_HTML.html#123,123,1440,815,1440,900,1-12-2024,21-40-37,33,VR_target_stimuli/s13_1.3x_2.4_313.png,125,1.3x,2.4,6.0,2998,127,meters,jsons/MX_seq32_1_VE125.json,249166,452027,44,Man
33,309980,final-intermixed-textured,v2,jsons/MX_seq32_1_VE125.json,http://54.235.29.9/FacialAge/BNav_EC2/DepthDuration/MX_fS_VE_MTurk/MX_fS_HTML.html#123,123,1440,815,1440,900,1-12-2024,21-40-37,34,catch_stimuli/c3.png,125,,,6.0,2895,124,meters,jsons/MX_seq32_1_VE125.json,249166,452027,44,Man
34,309980,final-intermixed-textured,v2,jsons/MX_seq32_1_VE125.json,http://54.235.29.9/FacialAge/BNav_EC2/DepthDuration/MX_fS_VE_MTurk/MX_fS_HTML.html#123,123,1440,815,1440,900,1-12-2024,21-40-37,35,VR_target_stimuli/s14_1x_ 3.83_357_BC.png,125,1x,3.83,3.5,3995,124,meters,jsons/MX_seq32_1_VE125.json,249166,452027,44,Man
35,309980,final-intermixed-textured,v2,jsons/MX_seq32_1_VE125.json,http://54.235.29.9/FacialAge/BNav_EC2/DepthDuration/MX_fS_VE_MTurk/MX_fS_HTML.html#123,123,1440,815,1440,900,1-12-2024,21-40-37,36,VR_target_stimuli/s47_0.75x_3.45_366_BC.png,125,0.75x,3.45,5.0,2661,124,meters,jsons/MX_seq32_1_VE125.json,249166,452027,44,Man
36,309980,final-intermixed-textured,v2,jsons/MX_seq32_1_VE125.json,http://54.235.29.9/FacialAge/BNav_EC2/DepthDuration/MX_fS_VE_MTurk/MX_fS_HTML.html#123,123,1440,815,1440,900,1-12-2024,21-40-37,37,VR_target_stimuli/s29_1.3x_1.3_253_BC.png,125,1.3x,1.3,4.5,6827,125,meters,jsons/MX_seq32_1_VE125.json,249166,452027,44,Man
37,309980,final-intermixed-textured,v2,jsons/MX_seq32_1_VE125.json,http://54.235.29.9/FacialAge/BNav_EC2/DepthDuration/MX_fS_VE_MTurk/MX_fS_HTML.html#123,123,1440,815,1440,900,1-12-2024,21-40-37,38,VR_target_stimuli/s28_1.3x_3.2_365.png,125,1.3x,3.2,5.0,2730,128,meters,jsons/MX_seq32_1_VE125.json,249166,452027,44,Man
38,309980,final-intermixed-textured,v2,jsons/MX_seq32_1_VE125.json,http://54.235.29.9/FacialAge/BNav_EC2/DepthDuration/MX_fS_VE_MTurk/MX_fS_HTML.html#123,123,1440,815,1440,900,1-12-2024,21-40-37,39,VR_target_stimuli/s48_1x_2.55_256.png,125,1x,2.55,8.0,4782,129,meters,jsons/MX_seq32_1_VE125.json,249166,452027,44,Man
39,309980,final-intermixed-textured,v2,jsons/MX_seq32_1_VE125.json,http://54.235.29.9/FacialAge/BNav_EC2/DepthDuration/MX_fS_VE_MTurk/MX_fS_HTML.html#123,123,1440,815,1440,900,1-12-2024,21-40-37,40,VR_target_stimuli/s19_0.75x_1.21_257.png,125,0.75x,1.21,4.0,3146,125,meters,jsons/MX_seq32_1_VE125.json,249166,452027,44,Man
40,309980,final-intermixed-textured,v2,jsons/MX_seq32_1_VE125.json,http://54.235.29.9/FacialAge/BNav_EC2/DepthDuration/MX_fS_VE_MTurk/MX_fS_HTML.html#123,123,1440,815,1440,900,1-12-2024,21-40-37,41,VR_target_stimuli/s21_1x_4.22_379_BC.png,125,1x,4.22,6.0,3631,125,meters,jsons/MX_seq32_1_VE125.json,249166,452027,44,Man
41,309980,final-intermixed-textured,v2,jsons/MX_seq32_1_VE125.json,http://54.235.29.9/FacialAge/BNav_EC2/DepthDuration/MX_fS_VE_MTurk/MX_fS_HTML.html#123,123,1440,815,1440,900,1-12-2024,21-40-37,42,VR_target_stimuli/s8_1.3x_3.1_345_BC.png,125,1.3x,3.1,5.0,3298,78,meters,jsons/MX_seq32_1_VE125.json,249166,452027,44,Man
42,309980,final-intermixed-textured,v2,jsons/MX_seq32_1_VE125.json,http://54.235.29.9/FacialAge/BNav_EC2/DepthDuration/MX_fS_VE_MTurk/MX_fS_HTML.html#123,123,1440,815,1440,900,1-12-2024,21-40-37,43,VR_target_stimuli/s27_0.75x_1.76_243.png,125,0.75x,1.76,5.0,4510,123,meters,jsons/MX_seq32_1_VE125.json,249166,452027,44,Man
43,309980,final-intermixed-textured,v2,jsons/MX_seq32_1_VE125.json,http://54.235.29.9/FacialAge/BNav_EC2/DepthDuration/MX_fS_VE_MTurk/MX_fS_HTML.html#123,123,1440,815,1440,900,1-12-2024,21-40-37,44,VR_target_stimuli/s15_1.3x_4.2_389.png,125,1.3x,4.2,7.0,2510,124,meters,jsons/MX_seq32_1_VE125.json,249166,452027,44,Man
44,309980,final-intermixed-textured,v2,jsons/MX_seq32_1_VE125.json,http://54.235.29.9/FacialAge/BNav_EC2/DepthDuration/MX_fS_VE_MTurk/MX_fS_HTML.html#123,123,1440,815,1440,900,1-12-2024,21-40-37,45,catch_stimuli/c4.png,125,,,0.0,3263,125,meters,jsons/MX_seq32_1_VE125.json,249166,452027,44,Man
45,309980,final-intermixed-textured,v2,jsons/MX_seq32_1_VE125.json,http://54.235.29.9/FacialAge/BNav_EC2/DepthDuration/MX_fS_VE_MTurk/MX_fS_HTML.html#123,123,1440,815,1440,900,1-12-2024,21-40-37,46,VR_target_stimuli/s4_1x_1.4_313.png,125,1x,1.4,4.0,3549,129,meters,jsons/MX_seq32_1_VE125.json,249166,452027,44,Man
46,309980,final-intermixed-textured,v2,jsons/MX_seq32_1_VE125.json,http://54.235.29.9/FacialAge/BNav_EC2/DepthDuration/MX_fS_VE_MTurk/MX_fS_HTML.html#123,123,1440,815,1440,900,1-12-2024,21-40-37,47,VR_target_stimuli/s35_0.75x_2_323_BC.png,125,0.75x,2.0,4.0,2762,124,meters,jsons/MX_seq32_1_VE125.json,249166,452027,44,Man
47,309980,final-intermixed-textured,v2,jsons/MX_seq32_1_VE125.json,http://54.235.29.9/FacialAge/BNav_EC2/DepthDuration/MX_fS_VE_MTurk/MX_fS_HTML.html#123,123,1440,815,1440,900,1-12-2024,21-40-37,48,VR_target_stimuli/s49_0.75x_4.67_328.png,125,0.75x,4.67,12.0,3431,126,meters,jsons/MX_seq32_1_VE125.json,249166,452027,44,Man
48,309980,final-intermixed-textured,v2,jsons/MX_seq32_1_VE125.json,http://54.235.29.9/FacialAge/BNav_EC2/DepthDuration/MX_fS_VE_MTurk/MX_fS_HTML.html#123,123,1440,815,1440,900,1-12-2024,21-40-37,49,VR_target_stimuli/s7_1.3x_1.5_256.png,125,1.3x,1.5,4.0,4179,128,meters,jsons/MX_seq32_1_VE125.json,249166,452027,44,Man
49,309980,final-intermixed-textured,v2,jsons/MX_seq32_1_VE125.json,http://54.235.29.9/FacialAge/BNav_EC2/DepthDuration/MX_fS_VE_MTurk/MX_fS_HTML.html#123,123,1440,815,1440,900,1-12-2024,21-40-37,50,VR_target_stimuli/s20_1x_4.99_398_BC.png,125,1x,4.99,8.0,2864,127,meters,jsons/MX_seq32_1_VE125.json,249166,452027,44,Man
50,309980,final-intermixed-textured,v2,jsons/MX_seq32_1_VE125.json,http://54.235.29.9/FacialAge/BNav_EC2/DepthDuration/MX_fS_VE_MTurk/MX_fS_HTML.html#123,123,1440,815,1440,900,1-12-2024,21-40-37,51,VR_target_stimuli/s31_1.3x_4.96_342_BC.png,125,1.3x,4.96,9.0,3748,122,meters,jsons/MX_seq32_1_VE125.json,249166,452027,44,Man
51,309980,final-intermixed-textured,v2,jsons/MX_seq32_1_VE125.json,http://54.235.29.9/FacialAge/BNav_EC2/DepthDuration/MX_fS_VE_MTurk/MX_fS_HTML.html#123,123,1440,815,1440,900,1-12-2024,21-40-37,52,VR_target_stimuli/s33_0.75x_3.1_361_BC.png,125,0.75x,3.1,6.0,3296,123,meters,jsons/MX_seq32_1_VE125.json,249166,452027,44,Man
52,309980,final-intermixed-textured,v2,jsons/MX_seq32_1_VE125.json,http://54.235.29.9/FacialAge/BNav_EC2/DepthDuration/MX_fS_VE_MTurk/MX_fS_HTML.html#123,123,1440,815,1440,900,1-12-2024,21-40-37,53,catch_stimuli/c5.png,125,,,0.0,4193,124,meters,jsons/MX_seq32_1_VE125.json,249166,452027,44,Man
53,309980,final-intermixed-textured,v2,jsons/MX_seq32_1_VE125.json,http://54.235.29.9/FacialAge/BNav_EC2/DepthDuration/MX_fS_VE_MTurk/MX_fS_HTML.html#123,123,1440,815,1440,900,1-12-2024,21-40-37,54,VR_target_stimuli/s52_1x_3.2_275.png,125,1x,3.2,6.0,5363,123,meters,jsons/MX_seq32_1_VE125.json,249166,452027,44,Man
54,309980,final-intermixed-textured,v2,jsons/MX_seq32_1_VE125.json,http://54.235.29.9/FacialAge/BNav_EC2/DepthDuration/MX_fS_VE_MTurk/MX_fS_HTML.html#123,123,1440,815,1440,900,1-12-2024,21-40-37,55,VR_target_stimuli/s32_0.75x_1.5_213.png,125,0.75x,1.5,5.0,4163,126,meters,jsons/MX_seq32_1_VE125.json,249166,452027,44,Man
55,309980,final-intermixed-textured,v2,jsons/MX_seq32_1_VE125.json,http://54.235.29.9/FacialAge/BNav_EC2/DepthDuration/MX_fS_VE_MTurk/MX_fS_HTML.html#123,123,1440,815,1440,900,1-12-2024,21-40-37,56,VR_target_stimuli/s18_1.3x_2.25_368.png,125,1.3x,2.25,5.6,3915,128,meters,jsons/MX_seq32_1_VE125.json,249166,452027,44,Man
56,309980,final-intermixed-textured,v2,jsons/MX_seq32_1_VE125.json,http://54.235.29.9/FacialAge/BNav_EC2/DepthDuration/MX_fS_VE_MTurk/MX_fS_HTML.html#123,123,1440,815,1440,900,1-12-2024,21-40-37,57,VR_target_stimuli/s39_1x_1_207.png,125,1x,1.0,5.4,3660,123,meters,jsons/MX_seq32_1_VE125.json,249166,452027,44,Man
57,309980,final-intermixed-textured,v2,jsons/MX_seq32_1_VE125.json,http://54.235.29.9/FacialAge/BNav_EC2/DepthDuration/MX_fS_VE_MTurk/MX_fS_HTML.html#123,123,1440,815,1440,900,1-12-2024,21-40-37,58,VR_target_stimuli/s51_1x_3.64_461_BC.png,125,1x,3.64,4.0,3481,129,meters,jsons/MX_seq32_1_VE125.json,249166,452027,44,Man
58,309980,final-intermixed-textured,v2,jsons/MX_seq32_1_VE125.json,http://54.235.29.9/FacialAge/BNav_EC2/DepthDuration/MX_fS_VE_MTurk/MX_fS_HTML.html#123,123,1440,815,1440,900,1-12-2024,21-40-37,59,VR_target_stimuli/s43_0.75x_2.2_348_BC.png,125,0.75x,2.2,4.0,3014,127,meters,jsons/MX_seq32_1_VE125.json,249166,452027,44,Man
59,309980,final-intermixed-textured,v2,jsons/MX_seq32_1_VE125.json,http://54.235.29.9/FacialAge/BNav_EC2/DepthDuration/MX_fS_VE_MTurk/MX_fS_HTML.html#123,123,1440,815,1440,900,1-12-2024,21-40-37,60,VR_target_stimuli/s24_1.3x_3.3_352_BC.png,125,1.3x,3.3,3.8,4078,123,meters,jsons/MX_seq32_1_VE125.json,249166,452027,44,Man
