,subjID,experimentName,versionName,sequenceName,url,selected_row,windowWidth,windowHeight,screenWidth,screenHeight,startDate,startTime,trial,stimulus,duration,scale,actual_depth,depth_estimate,trial_RT,log_sceneDuration,unitSelection,seq_filepath,experimentTime,totalTime,age,gender
0,313338,final-intermixed-textured,v2,jsons/MX_seq27_0_VE125.json,http://54.235.29.9/FacialAge/BNav_EC2/DepthDuration/MX_fS_VE_MTurk/MX_fS_HTML.html#268,268,1464,824,1463,823,1-12-2024,16-29-5,1,VR_target_stimuli/s18_0.75x_2.25_341_BC.png,125,0.75x,2.25,0,3940,130,meters,jsons/MX_seq27_0_VE125.json,263368,648225,36,Man
1,313338,final-intermixed-textured,v2,jsons/MX_seq27_0_VE125.json,http://54.235.29.9/FacialAge/BNav_EC2/DepthDuration/MX_fS_VE_MTurk/MX_fS_HTML.html#268,268,1464,824,1463,823,1-12-2024,16-29-5,2,VR_target_stimuli/s39_1x_1_207.png,125,1x,1.0,0,4487,114,meters,jsons/MX_seq27_0_VE125.json,263368,648225,36,Man
2,313338,final-intermixed-textured,v2,jsons/MX_seq27_0_VE125.json,http://54.235.29.9/FacialAge/BNav_EC2/DepthDuration/MX_fS_VE_MTurk/MX_fS_HTML.html#268,268,1464,824,1463,823,1-12-2024,16-29-5,3,VR_target_stimuli/s51_1.3x_3.64_479.png,125,1.3x,3.64,0,3807,121,meters,jsons/MX_seq27_0_VE125.json,263368,648225,36,Man
3,313338,final-intermixed-textured,v2,jsons/MX_seq27_0_VE125.json,http://54.235.29.9/FacialAge/BNav_EC2/DepthDuration/MX_fS_VE_MTurk/MX_fS_HTML.html#268,268,1464,824,1463,823,1-12-2024,16-29-5,4,VR_target_stimuli/s43_1x_2.2_354_BC.png,125,1x,2.2,0,3991,130,meters,jsons/MX_seq27_0_VE125.json,263368,648225,36,Man
4,313338,final-intermixed-textured,v2,jsons/MX_seq27_0_VE125.json,http://54.235.29.9/FacialAge/BNav_EC2/DepthDuration/MX_fS_VE_MTurk/MX_fS_HTML.html#268,268,1464,824,1463,823,1-12-2024,16-29-5,5,VR_target_stimuli/s24_0.75x_3.3_344.png,125,0.75x,3.3,0,3216,131,meters,jsons/MX_seq27_0_VE125.json,263368,648225,36,Man
5,313338,final-intermixed-textured,v2,jsons/MX_seq27_0_VE125.json,http://54.235.29.9/FacialAge/BNav_EC2/DepthDuration/MX_fS_VE_MTurk/MX_fS_HTML.html#268,268,1464,824,1463,823,1-12-2024,16-29-5,6,VR_target_stimuli/s10_1.3x_2.7_325_BC.png,125,1.3x,2.7,2,23867,111,meters,jsons/MX_seq27_0_VE125.json,263368,648225,36,Man
6,313338,final-intermixed-textured,v2,jsons/MX_seq27_0_VE125.json,http://54.235.29.9/FacialAge/BNav_EC2/DepthDuration/MX_fS_VE_MTurk/MX_fS_HTML.html#268,268,1464,824,1463,823,1-12-2024,16-29-5,7,catch_stimuli/c0.png,125,,,0,3194,117,meters,jsons/MX_seq27_0_VE125.json,263368,648225,36,Man
7,313338,final-intermixed-textured,v2,jsons/MX_seq27_0_VE125.json,http://54.235.29.9/FacialAge/BNav_EC2/DepthDuration/MX_fS_VE_MTurk/MX_fS_HTML.html#268,268,1464,824,1463,823,1-12-2024,16-29-5,8,VR_target_stimuli/s36_1.3x_4.1_442_BC.png,125,1.3x,4.1,0,3143,132,meters,jsons/MX_seq27_0_VE125.json,263368,648225,36,Man
8,313338,final-intermixed-textured,v2,jsons/MX_seq27_0_VE125.json,http://54.235.29.9/FacialAge/BNav_EC2/DepthDuration/MX_fS_VE_MTurk/MX_fS_HTML.html#268,268,1464,824,1463,823,1-12-2024,16-29-5,9,VR_target_stimuli/s40_1x_1.2_319.png,125,1x,1.2,0,3386,129,meters,jsons/MX_seq27_0_VE125.json,263368,648225,36,Man
9,313338,final-intermixed-textured,v2,jsons/MX_seq27_0_VE125.json,http://54.235.29.9/FacialAge/BNav_EC2/DepthDuration/MX_fS_VE_MTurk/MX_fS_HTML.html#268,268,1464,824,1463,823,1-12-2024,16-29-5,10,VR_target_stimuli/s41_0.75x_2.1_281.png,125,0.75x,2.1,2,7700,123,meters,jsons/MX_seq27_0_VE125.json,263368,648225,36,Man
10,313338,final-intermixed-textured,v2,jsons/MX_seq27_0_VE125.json,http://54.235.29.9/FacialAge/BNav_EC2/DepthDuration/MX_fS_VE_MTurk/MX_fS_HTML.html#268,268,1464,824,1463,823,1-12-2024,16-29-5,11,VR_target_stimuli/s45_1x_3.5_368_BC.png,125,1x,3.5,0,3319,131,meters,jsons/MX_seq27_0_VE125.json,263368,648225,36,Man
11,313338,final-intermixed-textured,v2,jsons/MX_seq27_0_VE125.json,http://54.235.29.9/FacialAge/BNav_EC2/DepthDuration/MX_fS_VE_MTurk/MX_fS_HTML.html#268,268,1464,824,1463,823,1-12-2024,16-29-5,12,VR_target_stimuli/s23_1.3x_3.65_354.png,125,1.3x,3.65,0,2993,116,meters,jsons/MX_seq27_0_VE125.json,263368,648225,36,Man
12,313338,final-intermixed-textured,v2,jsons/MX_seq27_0_VE125.json,http://54.235.29.9/FacialAge/BNav_EC2/DepthDuration/MX_fS_VE_MTurk/MX_fS_HTML.html#268,268,1464,824,1463,823,1-12-2024,16-29-5,13,VR_target_stimuli/s26_0.75x_4_430_BC.png,125,0.75x,4.0,0,2871,117,meters,jsons/MX_seq27_0_VE125.json,263368,648225,36,Man
13,313338,final-intermixed-textured,v2,jsons/MX_seq27_0_VE125.json,http://54.235.29.9/FacialAge/BNav_EC2/DepthDuration/MX_fS_VE_MTurk/MX_fS_HTML.html#268,268,1464,824,1463,823,1-12-2024,16-29-5,14,VR_target_stimuli/s12_1.3x_3.1_375_BC.png,125,1.3x,3.1,0,3065,133,meters,jsons/MX_seq27_0_VE125.json,263368,648225,36,Man
14,313338,final-intermixed-textured,v2,jsons/MX_seq27_0_VE125.json,http://54.235.29.9/FacialAge/BNav_EC2/DepthDuration/MX_fS_VE_MTurk/MX_fS_HTML.html#268,268,1464,824,1463,823,1-12-2024,16-29-5,15,VR_target_stimuli/s30_1x_2.3_334_BC.png,125,1x,2.3,0,2677,132,meters,jsons/MX_seq27_0_VE125.json,263368,648225,36,Man
15,313338,final-intermixed-textured,v2,jsons/MX_seq27_0_VE125.json,http://54.235.29.9/FacialAge/BNav_EC2/DepthDuration/MX_fS_VE_MTurk/MX_fS_HTML.html#268,268,1464,824,1463,823,1-12-2024,16-29-5,16,VR_target_stimuli/s16_0.75x_1_217_BC.png,125,0.75x,1.0,0,3492,115,meters,jsons/MX_seq27_0_VE125.json,263368,648225,36,Man
16,313338,final-intermixed-textured,v2,jsons/MX_seq27_0_VE125.json,http://54.235.29.9/FacialAge/BNav_EC2/DepthDuration/MX_fS_VE_MTurk/MX_fS_HTML.html#268,268,1464,824,1463,823,1-12-2024,16-29-5,17,catch_stimuli/c1.png,125,,,0,3195,128,meters,jsons/MX_seq27_0_VE125.json,263368,648225,36,Man
17,313338,final-intermixed-textured,v2,jsons/MX_seq27_0_VE125.json,http://54.235.29.9/FacialAge/BNav_EC2/DepthDuration/MX_fS_VE_MTurk/MX_fS_HTML.html#268,268,1464,824,1463,823,1-12-2024,16-29-5,18,VR_target_stimuli/s17_0.75x_1.8_285.png,125,0.75x,1.8,0,2857,129,meters,jsons/MX_seq27_0_VE125.json,263368,648225,36,Man
18,313338,final-intermixed-textured,v2,jsons/MX_seq27_0_VE125.json,http://54.235.29.9/FacialAge/BNav_EC2/DepthDuration/MX_fS_VE_MTurk/MX_fS_HTML.html#268,268,1464,824,1463,823,1-12-2024,16-29-5,19,VR_target_stimuli/s5_1.3x_4_393.png,125,1.3x,4.0,0,3675,135,meters,jsons/MX_seq27_0_VE125.json,263368,648225,36,Man
19,313338,final-intermixed-textured,v2,jsons/MX_seq27_0_VE125.json,http://54.235.29.9/FacialAge/BNav_EC2/DepthDuration/MX_fS_VE_MTurk/MX_fS_HTML.html#268,268,1464,824,1463,823,1-12-2024,16-29-5,20,VR_target_stimuli/s37_1x_3.3_563.png,125,1x,3.3,0,3389,119,meters,jsons/MX_seq27_0_VE125.json,263368,648225,36,Man
20,313338,final-intermixed-textured,v2,jsons/MX_seq27_0_VE125.json,http://54.235.29.9/FacialAge/BNav_EC2/DepthDuration/MX_fS_VE_MTurk/MX_fS_HTML.html#268,268,1464,824,1463,823,1-12-2024,16-29-5,21,VR_target_stimuli/s46_1.3x_2.42_354.png,125,1.3x,2.42,0,3829,115,meters,jsons/MX_seq27_0_VE125.json,263368,648225,36,Man
21,313338,final-intermixed-textured,v2,jsons/MX_seq27_0_VE125.json,http://54.235.29.9/FacialAge/BNav_EC2/DepthDuration/MX_fS_VE_MTurk/MX_fS_HTML.html#268,268,1464,824,1463,823,1-12-2024,16-29-5,22,VR_target_stimuli/s22_0.75x_4.29_348.png,125,0.75x,4.29,0,3361,121,meters,jsons/MX_seq27_0_VE125.json,263368,648225,36,Man
22,313338,final-intermixed-textured,v2,jsons/MX_seq27_0_VE125.json,http://54.235.29.9/FacialAge/BNav_EC2/DepthDuration/MX_fS_VE_MTurk/MX_fS_HTML.html#268,268,1464,824,1463,823,1-12-2024,16-29-5,23,VR_target_stimuli/s42_1x_3.2_303.png,125,1x,3.2,0,6070,127,meters,jsons/MX_seq27_0_VE125.json,263368,648225,36,Man
23,313338,final-intermixed-textured,v2,jsons/MX_seq27_0_VE125.json,http://54.235.29.9/FacialAge/BNav_EC2/DepthDuration/MX_fS_VE_MTurk/MX_fS_HTML.html#268,268,1464,824,1463,823,1-12-2024,16-29-5,24,VR_target_stimuli/s25_0.75x_1.4_281_BC.png,125,0.75x,1.4,2,5455,123,meters,jsons/MX_seq27_0_VE125.json,263368,648225,36,Man
24,313338,final-intermixed-textured,v2,jsons/MX_seq27_0_VE125.json,http://54.235.29.9/FacialAge/BNav_EC2/DepthDuration/MX_fS_VE_MTurk/MX_fS_HTML.html#268,268,1464,824,1463,823,1-12-2024,16-29-5,25,VR_target_stimuli/s50_1.3x_4.53_518_BC.png,125,1.3x,4.53,0,3464,115,meters,jsons/MX_seq27_0_VE125.json,263368,648225,36,Man
25,313338,final-intermixed-textured,v2,jsons/MX_seq27_0_VE125.json,http://54.235.29.9/FacialAge/BNav_EC2/DepthDuration/MX_fS_VE_MTurk/MX_fS_HTML.html#268,268,1464,824,1463,823,1-12-2024,16-29-5,26,catch_stimuli/c2.png,125,,,0,2779,128,meters,jsons/MX_seq27_0_VE125.json,263368,648225,36,Man
26,313338,final-intermixed-textured,v2,jsons/MX_seq27_0_VE125.json,http://54.235.29.9/FacialAge/BNav_EC2/DepthDuration/MX_fS_VE_MTurk/MX_fS_HTML.html#268,268,1464,824,1463,823,1-12-2024,16-29-5,27,VR_target_stimuli/s53_1x_1.6_387_BC.png,125,1x,1.6,0,2531,122,meters,jsons/MX_seq27_0_VE125.json,263368,648225,36,Man
27,313338,final-intermixed-textured,v2,jsons/MX_seq27_0_VE125.json,http://54.235.29.9/FacialAge/BNav_EC2/DepthDuration/MX_fS_VE_MTurk/MX_fS_HTML.html#268,268,1464,824,1463,823,1-12-2024,16-29-5,28,VR_target_stimuli/s38_1x_3.55_353_BC.png,125,1x,3.55,3,3947,125,meters,jsons/MX_seq27_0_VE125.json,263368,648225,36,Man
28,313338,final-intermixed-textured,v2,jsons/MX_seq27_0_VE125.json,http://54.235.29.9/FacialAge/BNav_EC2/DepthDuration/MX_fS_VE_MTurk/MX_fS_HTML.html#268,268,1464,824,1463,823,1-12-2024,16-29-5,29,VR_target_stimuli/s9_0.75x_1.2_260_BC.png,125,0.75x,1.2,0,2573,118,meters,jsons/MX_seq27_0_VE125.json,263368,648225,36,Man
29,313338,final-intermixed-textured,v2,jsons/MX_seq27_0_VE125.json,http://54.235.29.9/FacialAge/BNav_EC2/DepthDuration/MX_fS_VE_MTurk/MX_fS_HTML.html#268,268,1464,824,1463,823,1-12-2024,16-29-5,30,VR_target_stimuli/s44_1.3x_4.4_325.png,125,1.3x,4.4,0,2593,131,meters,jsons/MX_seq27_0_VE125.json,263368,648225,36,Man
30,313338,final-intermixed-textured,v2,jsons/MX_seq27_0_VE125.json,http://54.235.29.9/FacialAge/BNav_EC2/DepthDuration/MX_fS_VE_MTurk/MX_fS_HTML.html#268,268,1464,824,1463,823,1-12-2024,16-29-5,31,VR_target_stimuli/s3_1x_5_385.png,125,1x,5.0,0,2535,117,meters,jsons/MX_seq27_0_VE125.json,263368,648225,36,Man
31,313338,final-intermixed-textured,v2,jsons/MX_seq27_0_VE125.json,http://54.235.29.9/FacialAge/BNav_EC2/DepthDuration/MX_fS_VE_MTurk/MX_fS_HTML.html#268,268,1464,824,1463,823,1-12-2024,16-29-5,32,VR_target_stimuli/s1_1.3x_1.7_261_BC.png,125,1.3x,1.7,0,2686,115,meters,jsons/MX_seq27_0_VE125.json,263368,648225,36,Man
32,313338,final-intermixed-textured,v2,jsons/MX_seq27_0_VE125.json,http://54.235.29.9/FacialAge/BNav_EC2/DepthDuration/MX_fS_VE_MTurk/MX_fS_HTML.html#268,268,1464,824,1463,823,1-12-2024,16-29-5,33,VR_target_stimuli/s11_0.75x_5_359.png,125,0.75x,5.0,0,2592,132,meters,jsons/MX_seq27_0_VE125.json,263368,648225,36,Man
33,313338,final-intermixed-textured,v2,jsons/MX_seq27_0_VE125.json,http://54.235.29.9/FacialAge/BNav_EC2/DepthDuration/MX_fS_VE_MTurk/MX_fS_HTML.html#268,268,1464,824,1463,823,1-12-2024,16-29-5,34,catch_stimuli/c3.png,125,,,0,2695,135,meters,jsons/MX_seq27_0_VE125.json,263368,648225,36,Man
34,313338,final-intermixed-textured,v2,jsons/MX_seq27_0_VE125.json,http://54.235.29.9/FacialAge/BNav_EC2/DepthDuration/MX_fS_VE_MTurk/MX_fS_HTML.html#268,268,1464,824,1463,823,1-12-2024,16-29-5,35,VR_target_stimuli/s2_1.3x_2.7_397.png,125,1.3x,2.7,0,4822,116,meters,jsons/MX_seq27_0_VE125.json,263368,648225,36,Man
35,313338,final-intermixed-textured,v2,jsons/MX_seq27_0_VE125.json,http://54.235.29.9/FacialAge/BNav_EC2/DepthDuration/MX_fS_VE_MTurk/MX_fS_HTML.html#268,268,1464,824,1463,823,1-12-2024,16-29-5,36,VR_target_stimuli/s6_1x_2.1_293.png,125,1x,2.1,0,2459,116,meters,jsons/MX_seq27_0_VE125.json,263368,648225,36,Man
36,313338,final-intermixed-textured,v2,jsons/MX_seq27_0_VE125.json,http://54.235.29.9/FacialAge/BNav_EC2/DepthDuration/MX_fS_VE_MTurk/MX_fS_HTML.html#268,268,1464,824,1463,823,1-12-2024,16-29-5,37,VR_target_stimuli/s0_0.75x_2.6_345_BC.png,125,0.75x,2.6,0,3085,115,meters,jsons/MX_seq27_0_VE125.json,263368,648225,36,Man
37,313338,final-intermixed-textured,v2,jsons/MX_seq27_0_VE125.json,http://54.235.29.9/FacialAge/BNav_EC2/DepthDuration/MX_fS_VE_MTurk/MX_fS_HTML.html#268,268,1464,824,1463,823,1-12-2024,16-29-5,38,VR_target_stimuli/s34_0.75x_2.8_269.png,125,0.75x,2.8,0,2837,115,meters,jsons/MX_seq27_0_VE125.json,263368,648225,36,Man
38,313338,final-intermixed-textured,v2,jsons/MX_seq27_0_VE125.json,http://54.235.29.9/FacialAge/BNav_EC2/DepthDuration/MX_fS_VE_MTurk/MX_fS_HTML.html#268,268,1464,824,1463,823,1-12-2024,16-29-5,39,VR_target_stimuli/s13_1.3x_2.4_313_BC.png,125,1.3x,2.4,0,2346,116,meters,jsons/MX_seq27_0_VE125.json,263368,648225,36,Man
39,313338,final-intermixed-textured,v2,jsons/MX_seq27_0_VE125.json,http://54.235.29.9/FacialAge/BNav_EC2/DepthDuration/MX_fS_VE_MTurk/MX_fS_HTML.html#268,268,1464,824,1463,823,1-12-2024,16-29-5,40,VR_target_stimuli/s14_1x_ 3.83_357_BC.png,125,1x,3.83,2,4928,115,meters,jsons/MX_seq27_0_VE125.json,263368,648225,36,Man
40,313338,final-intermixed-textured,v2,jsons/MX_seq27_0_VE125.json,http://54.235.29.9/FacialAge/BNav_EC2/DepthDuration/MX_fS_VE_MTurk/MX_fS_HTML.html#268,268,1464,824,1463,823,1-12-2024,16-29-5,41,VR_target_stimuli/s47_1.3x_3.45_373.png,125,1.3x,3.45,0,2917,122,meters,jsons/MX_seq27_0_VE125.json,263368,648225,36,Man
41,313338,final-intermixed-textured,v2,jsons/MX_seq27_0_VE125.json,http://54.235.29.9/FacialAge/BNav_EC2/DepthDuration/MX_fS_VE_MTurk/MX_fS_HTML.html#268,268,1464,824,1463,823,1-12-2024,16-29-5,42,VR_target_stimuli/s29_0.75x_1.3_246.png,125,0.75x,1.3,2,4076,125,meters,jsons/MX_seq27_0_VE125.json,263368,648225,36,Man
42,313338,final-intermixed-textured,v2,jsons/MX_seq27_0_VE125.json,http://54.235.29.9/FacialAge/BNav_EC2/DepthDuration/MX_fS_VE_MTurk/MX_fS_HTML.html#268,268,1464,824,1463,823,1-12-2024,16-29-5,43,VR_target_stimuli/s28_1x_3.2_362.png,125,1x,3.2,0,3013,131,meters,jsons/MX_seq27_0_VE125.json,263368,648225,36,Man
43,313338,final-intermixed-textured,v2,jsons/MX_seq27_0_VE125.json,http://54.235.29.9/FacialAge/BNav_EC2/DepthDuration/MX_fS_VE_MTurk/MX_fS_HTML.html#268,268,1464,824,1463,823,1-12-2024,16-29-5,44,VR_target_stimuli/s48_0.75x_2.55_243_BC.png,125,0.75x,2.55,5,4521,116,meters,jsons/MX_seq27_0_VE125.json,263368,648225,36,Man
44,313338,final-intermixed-textured,v2,jsons/MX_seq27_0_VE125.json,http://54.235.29.9/FacialAge/BNav_EC2/DepthDuration/MX_fS_VE_MTurk/MX_fS_HTML.html#268,268,1464,824,1463,823,1-12-2024,16-29-5,45,catch_stimuli/c4.png,125,,,0,2882,115,meters,jsons/MX_seq27_0_VE125.json,263368,648225,36,Man
45,313338,final-intermixed-textured,v2,jsons/MX_seq27_0_VE125.json,http://54.235.29.9/FacialAge/BNav_EC2/DepthDuration/MX_fS_VE_MTurk/MX_fS_HTML.html#268,268,1464,824,1463,823,1-12-2024,16-29-5,46,VR_target_stimuli/s19_1.3x_1.21_270_BC.png,125,1.3x,1.21,2,3452,125,meters,jsons/MX_seq27_0_VE125.json,263368,648225,36,Man
46,313338,final-intermixed-textured,v2,jsons/MX_seq27_0_VE125.json,http://54.235.29.9/FacialAge/BNav_EC2/DepthDuration/MX_fS_VE_MTurk/MX_fS_HTML.html#268,268,1464,824,1463,823,1-12-2024,16-29-5,47,VR_target_stimuli/s21_1x_4.22_379_BC.png,125,1x,4.22,5,4532,129,meters,jsons/MX_seq27_0_VE125.json,263368,648225,36,Man
47,313338,final-intermixed-textured,v2,jsons/MX_seq27_0_VE125.json,http://54.235.29.9/FacialAge/BNav_EC2/DepthDuration/MX_fS_VE_MTurk/MX_fS_HTML.html#268,268,1464,824,1463,823,1-12-2024,16-29-5,48,VR_target_stimuli/s8_1x_3.1_332.png,125,1x,3.1,4,3972,127,meters,jsons/MX_seq27_0_VE125.json,263368,648225,36,Man
48,313338,final-intermixed-textured,v2,jsons/MX_seq27_0_VE125.json,http://54.235.29.9/FacialAge/BNav_EC2/DepthDuration/MX_fS_VE_MTurk/MX_fS_HTML.html#268,268,1464,824,1463,823,1-12-2024,16-29-5,49,VR_target_stimuli/s27_0.75x_1.76_243.png,125,0.75x,1.76,3,4376,126,meters,jsons/MX_seq27_0_VE125.json,263368,648225,36,Man
49,313338,final-intermixed-textured,v2,jsons/MX_seq27_0_VE125.json,http://54.235.29.9/FacialAge/BNav_EC2/DepthDuration/MX_fS_VE_MTurk/MX_fS_HTML.html#268,268,1464,824,1463,823,1-12-2024,16-29-5,50,VR_target_stimuli/s15_1.3x_4.2_389.png,125,1.3x,4.2,5,3737,128,meters,jsons/MX_seq27_0_VE125.json,263368,648225,36,Man
50,313338,final-intermixed-textured,v2,jsons/MX_seq27_0_VE125.json,http://54.235.29.9/FacialAge/BNav_EC2/DepthDuration/MX_fS_VE_MTurk/MX_fS_HTML.html#268,268,1464,824,1463,823,1-12-2024,16-29-5,51,VR_target_stimuli/s4_0.75x_1.4_301_BC.png,125,0.75x,1.4,4,4119,125,meters,jsons/MX_seq27_0_VE125.json,263368,648225,36,Man
51,313338,final-intermixed-textured,v2,jsons/MX_seq27_0_VE125.json,http://54.235.29.9/FacialAge/BNav_EC2/DepthDuration/MX_fS_VE_MTurk/MX_fS_HTML.html#268,268,1464,824,1463,823,1-12-2024,16-29-5,52,VR_target_stimuli/s35_1x_2_331_BC.png,125,1x,2.0,3,3797,115,meters,jsons/MX_seq27_0_VE125.json,263368,648225,36,Man
52,313338,final-intermixed-textured,v2,jsons/MX_seq27_0_VE125.json,http://54.235.29.9/FacialAge/BNav_EC2/DepthDuration/MX_fS_VE_MTurk/MX_fS_HTML.html#268,268,1464,824,1463,823,1-12-2024,16-29-5,53,catch_stimuli/c5.png,125,,,2,3219,117,meters,jsons/MX_seq27_0_VE125.json,263368,648225,36,Man
53,313338,final-intermixed-textured,v2,jsons/MX_seq27_0_VE125.json,http://54.235.29.9/FacialAge/BNav_EC2/DepthDuration/MX_fS_VE_MTurk/MX_fS_HTML.html#268,268,1464,824,1463,823,1-12-2024,16-29-5,54,VR_target_stimuli/s49_1.3x_4.67_354_BC.png,125,1.3x,4.67,3,3277,114,meters,jsons/MX_seq27_0_VE125.json,263368,648225,36,Man
54,313338,final-intermixed-textured,v2,jsons/MX_seq27_0_VE125.json,http://54.235.29.9/FacialAge/BNav_EC2/DepthDuration/MX_fS_VE_MTurk/MX_fS_HTML.html#268,268,1464,824,1463,823,1-12-2024,16-29-5,55,VR_target_stimuli/s7_1x_1.5_255_BC.png,125,1x,1.5,3,3407,125,meters,jsons/MX_seq27_0_VE125.json,263368,648225,36,Man
55,313338,final-intermixed-textured,v2,jsons/MX_seq27_0_VE125.json,http://54.235.29.9/FacialAge/BNav_EC2/DepthDuration/MX_fS_VE_MTurk/MX_fS_HTML.html#268,268,1464,824,1463,823,1-12-2024,16-29-5,56,VR_target_stimuli/s20_0.75x_4.99_390_BC.png,125,0.75x,4.99,5,2999,131,meters,jsons/MX_seq27_0_VE125.json,263368,648225,36,Man
56,313338,final-intermixed-textured,v2,jsons/MX_seq27_0_VE125.json,http://54.235.29.9/FacialAge/BNav_EC2/DepthDuration/MX_fS_VE_MTurk/MX_fS_HTML.html#268,268,1464,824,1463,823,1-12-2024,16-29-5,57,VR_target_stimuli/s31_1.3x_4.96_342.png,125,1.3x,4.96,3,3859,132,meters,jsons/MX_seq27_0_VE125.json,263368,648225,36,Man
57,313338,final-intermixed-textured,v2,jsons/MX_seq27_0_VE125.json,http://54.235.29.9/FacialAge/BNav_EC2/DepthDuration/MX_fS_VE_MTurk/MX_fS_HTML.html#268,268,1464,824,1463,823,1-12-2024,16-29-5,58,VR_target_stimuli/s33_1.3x_3.1_378_BC.png,125,1.3x,3.1,4,3417,124,meters,jsons/MX_seq27_0_VE125.json,263368,648225,36,Man
58,313338,final-intermixed-textured,v2,jsons/MX_seq27_0_VE125.json,http://54.235.29.9/FacialAge/BNav_EC2/DepthDuration/MX_fS_VE_MTurk/MX_fS_HTML.html#268,268,1464,824,1463,823,1-12-2024,16-29-5,59,VR_target_stimuli/s52_1x_3.2_275.png,125,1x,3.2,4,3741,130,meters,jsons/MX_seq27_0_VE125.json,263368,648225,36,Man
59,313338,final-intermixed-textured,v2,jsons/MX_seq27_0_VE125.json,http://54.235.29.9/FacialAge/BNav_EC2/DepthDuration/MX_fS_VE_MTurk/MX_fS_HTML.html#268,268,1464,824,1463,823,1-12-2024,16-29-5,60,VR_target_stimuli/s32_0.75x_1.5_213.png,125,0.75x,1.5,3,3675,115,meters,jsons/MX_seq27_0_VE125.json,263368,648225,36,Man
