,subjID,experimentName,versionName,sequenceName,url,selected_row,windowWidth,windowHeight,screenWidth,screenHeight,startDate,startTime,trial,stimulus,duration,scale,actual_depth,depth_estimate,trial_RT,log_sceneDuration,unitSelection,seq_filepath,experimentTime,totalTime,age,gender
0,328802,final-intermixed-textured,v2,jsons/MX_seq19_1_VE125.json,http://54.235.29.9/FacialAge/BNav_EC2/DepthDuration/MX_fS_VE_MTurk/MX_fS_HTML.html#306,306,1920,1080,1920,1080,1-12-2024,15-25-42,1,VR_target_stimuli/s35_1.3x_2_338_BC.png,125,1.3x,2.0,1.0,2112,124,meters,jsons/MX_seq19_1_VE125.json,151513,407165,29,Woman
1,328802,final-intermixed-textured,v2,jsons/MX_seq19_1_VE125.json,http://54.235.29.9/FacialAge/BNav_EC2/DepthDuration/MX_fS_VE_MTurk/MX_fS_HTML.html#306,306,1920,1080,1920,1080,1-12-2024,15-25-42,2,VR_target_stimuli/s49_0.75x_4.67_328.png,125,0.75x,4.67,2.0,2237,122,meters,jsons/MX_seq19_1_VE125.json,151513,407165,29,Woman
2,328802,final-intermixed-textured,v2,jsons/MX_seq19_1_VE125.json,http://54.235.29.9/FacialAge/BNav_EC2/DepthDuration/MX_fS_VE_MTurk/MX_fS_HTML.html#306,306,1920,1080,1920,1080,1-12-2024,15-25-42,3,VR_target_stimuli/s7_1x_1.5_255_BC.png,125,1x,1.5,1.0,1736,125,meters,jsons/MX_seq19_1_VE125.json,151513,407165,29,Woman
3,328802,final-intermixed-textured,v2,jsons/MX_seq19_1_VE125.json,http://54.235.29.9/FacialAge/BNav_EC2/DepthDuration/MX_fS_VE_MTurk/MX_fS_HTML.html#306,306,1920,1080,1920,1080,1-12-2024,15-25-42,4,VR_target_stimuli/s20_0.75x_4.99_390_BC.png,125,0.75x,4.99,2.0,2304,124,meters,jsons/MX_seq19_1_VE125.json,151513,407165,29,Woman
4,328802,final-intermixed-textured,v2,jsons/MX_seq19_1_VE125.json,http://54.235.29.9/FacialAge/BNav_EC2/DepthDuration/MX_fS_VE_MTurk/MX_fS_HTML.html#306,306,1920,1080,1920,1080,1-12-2024,15-25-42,5,VR_target_stimuli/s31_1.3x_4.96_342.png,125,1.3x,4.96,3.0,2230,125,meters,jsons/MX_seq19_1_VE125.json,151513,407165,29,Woman
5,328802,final-intermixed-textured,v2,jsons/MX_seq19_1_VE125.json,http://54.235.29.9/FacialAge/BNav_EC2/DepthDuration/MX_fS_VE_MTurk/MX_fS_HTML.html#306,306,1920,1080,1920,1080,1-12-2024,15-25-42,6,VR_target_stimuli/s33_1x_3.1_366.png,125,1x,3.1,3.0,2172,125,meters,jsons/MX_seq19_1_VE125.json,151513,407165,29,Woman
6,328802,final-intermixed-textured,v2,jsons/MX_seq19_1_VE125.json,http://54.235.29.9/FacialAge/BNav_EC2/DepthDuration/MX_fS_VE_MTurk/MX_fS_HTML.html#306,306,1920,1080,1920,1080,1-12-2024,15-25-42,7,catch_stimuli/c0.png,125,,,0.0,2249,124,meters,jsons/MX_seq19_1_VE125.json,151513,407165,29,Woman
7,328802,final-intermixed-textured,v2,jsons/MX_seq19_1_VE125.json,http://54.235.29.9/FacialAge/BNav_EC2/DepthDuration/MX_fS_VE_MTurk/MX_fS_HTML.html#306,306,1920,1080,1920,1080,1-12-2024,15-25-42,8,VR_target_stimuli/s52_1x_3.2_275.png,125,1x,3.2,1.0,2468,126,meters,jsons/MX_seq19_1_VE125.json,151513,407165,29,Woman
8,328802,final-intermixed-textured,v2,jsons/MX_seq19_1_VE125.json,http://54.235.29.9/FacialAge/BNav_EC2/DepthDuration/MX_fS_VE_MTurk/MX_fS_HTML.html#306,306,1920,1080,1920,1080,1-12-2024,15-25-42,9,VR_target_stimuli/s32_0.75x_1.5_213_BC.png,125,0.75x,1.5,1.0,1754,139,meters,jsons/MX_seq19_1_VE125.json,151513,407165,29,Woman
9,328802,final-intermixed-textured,v2,jsons/MX_seq19_1_VE125.json,http://54.235.29.9/FacialAge/BNav_EC2/DepthDuration/MX_fS_VE_MTurk/MX_fS_HTML.html#306,306,1920,1080,1920,1080,1-12-2024,15-25-42,10,VR_target_stimuli/s18_1.3x_2.25_368_BC.png,125,1.3x,2.25,1.0,1673,126,meters,jsons/MX_seq19_1_VE125.json,151513,407165,29,Woman
10,328802,final-intermixed-textured,v2,jsons/MX_seq19_1_VE125.json,http://54.235.29.9/FacialAge/BNav_EC2/DepthDuration/MX_fS_VE_MTurk/MX_fS_HTML.html#306,306,1920,1080,1920,1080,1-12-2024,15-25-42,11,VR_target_stimuli/s39_0.75x_1_205.png,125,0.75x,1.0,0.5,3397,125,meters,jsons/MX_seq19_1_VE125.json,151513,407165,29,Woman
11,328802,final-intermixed-textured,v2,jsons/MX_seq19_1_VE125.json,http://54.235.29.9/FacialAge/BNav_EC2/DepthDuration/MX_fS_VE_MTurk/MX_fS_HTML.html#306,306,1920,1080,1920,1080,1-12-2024,15-25-42,12,VR_target_stimuli/s51_1x_3.64_461_BC.png,125,1x,3.64,1.0,2249,124,meters,jsons/MX_seq19_1_VE125.json,151513,407165,29,Woman
12,328802,final-intermixed-textured,v2,jsons/MX_seq19_1_VE125.json,http://54.235.29.9/FacialAge/BNav_EC2/DepthDuration/MX_fS_VE_MTurk/MX_fS_HTML.html#306,306,1920,1080,1920,1080,1-12-2024,15-25-42,13,VR_target_stimuli/s43_1.3x_2.2_363.png,125,1.3x,2.2,2.0,2118,124,meters,jsons/MX_seq19_1_VE125.json,151513,407165,29,Woman
13,328802,final-intermixed-textured,v2,jsons/MX_seq19_1_VE125.json,http://54.235.29.9/FacialAge/BNav_EC2/DepthDuration/MX_fS_VE_MTurk/MX_fS_HTML.html#306,306,1920,1080,1920,1080,1-12-2024,15-25-42,14,VR_target_stimuli/s24_1x_3.3_349_BC.png,125,1x,3.3,3.0,1804,123,meters,jsons/MX_seq19_1_VE125.json,151513,407165,29,Woman
14,328802,final-intermixed-textured,v2,jsons/MX_seq19_1_VE125.json,http://54.235.29.9/FacialAge/BNav_EC2/DepthDuration/MX_fS_VE_MTurk/MX_fS_HTML.html#306,306,1920,1080,1920,1080,1-12-2024,15-25-42,15,VR_target_stimuli/s10_0.75x_2.7_321_BC.png,125,0.75x,2.7,2.0,1759,123,meters,jsons/MX_seq19_1_VE125.json,151513,407165,29,Woman
15,328802,final-intermixed-textured,v2,jsons/MX_seq19_1_VE125.json,http://54.235.29.9/FacialAge/BNav_EC2/DepthDuration/MX_fS_VE_MTurk/MX_fS_HTML.html#306,306,1920,1080,1920,1080,1-12-2024,15-25-42,16,VR_target_stimuli/s36_1.3x_4.1_442.png,125,1.3x,4.1,3.0,2083,127,meters,jsons/MX_seq19_1_VE125.json,151513,407165,29,Woman
16,328802,final-intermixed-textured,v2,jsons/MX_seq19_1_VE125.json,http://54.235.29.9/FacialAge/BNav_EC2/DepthDuration/MX_fS_VE_MTurk/MX_fS_HTML.html#306,306,1920,1080,1920,1080,1-12-2024,15-25-42,17,catch_stimuli/c1.png,125,,,0.0,1869,125,meters,jsons/MX_seq19_1_VE125.json,151513,407165,29,Woman
17,328802,final-intermixed-textured,v2,jsons/MX_seq19_1_VE125.json,http://54.235.29.9/FacialAge/BNav_EC2/DepthDuration/MX_fS_VE_MTurk/MX_fS_HTML.html#306,306,1920,1080,1920,1080,1-12-2024,15-25-42,18,VR_target_stimuli/s40_1.3x_1.2_332_BC.png,125,1.3x,1.2,0.5,2493,123,meters,jsons/MX_seq19_1_VE125.json,151513,407165,29,Woman
18,328802,final-intermixed-textured,v2,jsons/MX_seq19_1_VE125.json,http://54.235.29.9/FacialAge/BNav_EC2/DepthDuration/MX_fS_VE_MTurk/MX_fS_HTML.html#306,306,1920,1080,1920,1080,1-12-2024,15-25-42,19,VR_target_stimuli/s41_1x_2.1_286.png,125,1x,2.1,2.0,1681,123,meters,jsons/MX_seq19_1_VE125.json,151513,407165,29,Woman
19,328802,final-intermixed-textured,v2,jsons/MX_seq19_1_VE125.json,http://54.235.29.9/FacialAge/BNav_EC2/DepthDuration/MX_fS_VE_MTurk/MX_fS_HTML.html#306,306,1920,1080,1920,1080,1-12-2024,15-25-42,20,VR_target_stimuli/s45_0.75x_3.5_362.png,125,0.75x,3.5,3.0,1783,123,meters,jsons/MX_seq19_1_VE125.json,151513,407165,29,Woman
20,328802,final-intermixed-textured,v2,jsons/MX_seq19_1_VE125.json,http://54.235.29.9/FacialAge/BNav_EC2/DepthDuration/MX_fS_VE_MTurk/MX_fS_HTML.html#306,306,1920,1080,1920,1080,1-12-2024,15-25-42,21,VR_target_stimuli/s23_1x_3.65_353_BC.png,125,1x,3.65,2.0,1739,123,meters,jsons/MX_seq19_1_VE125.json,151513,407165,29,Woman
21,328802,final-intermixed-textured,v2,jsons/MX_seq19_1_VE125.json,http://54.235.29.9/FacialAge/BNav_EC2/DepthDuration/MX_fS_VE_MTurk/MX_fS_HTML.html#306,306,1920,1080,1920,1080,1-12-2024,15-25-42,22,VR_target_stimuli/s26_1.3x_4_441.png,125,1.3x,4.0,2.0,1925,125,meters,jsons/MX_seq19_1_VE125.json,151513,407165,29,Woman
22,328802,final-intermixed-textured,v2,jsons/MX_seq19_1_VE125.json,http://54.235.29.9/FacialAge/BNav_EC2/DepthDuration/MX_fS_VE_MTurk/MX_fS_HTML.html#306,306,1920,1080,1920,1080,1-12-2024,15-25-42,23,VR_target_stimuli/s12_0.75x_3.1_364.png,125,0.75x,3.1,2.0,1613,110,meters,jsons/MX_seq19_1_VE125.json,151513,407165,29,Woman
23,328802,final-intermixed-textured,v2,jsons/MX_seq19_1_VE125.json,http://54.235.29.9/FacialAge/BNav_EC2/DepthDuration/MX_fS_VE_MTurk/MX_fS_HTML.html#306,306,1920,1080,1920,1080,1-12-2024,15-25-42,24,VR_target_stimuli/s30_1.3x_2.3_337_BC.png,125,1.3x,2.3,2.5,2259,125,meters,jsons/MX_seq19_1_VE125.json,151513,407165,29,Woman
24,328802,final-intermixed-textured,v2,jsons/MX_seq19_1_VE125.json,http://54.235.29.9/FacialAge/BNav_EC2/DepthDuration/MX_fS_VE_MTurk/MX_fS_HTML.html#306,306,1920,1080,1920,1080,1-12-2024,15-25-42,25,VR_target_stimuli/s16_1x_1_219.png,125,1x,1.0,1.0,1746,124,meters,jsons/MX_seq19_1_VE125.json,151513,407165,29,Woman
25,328802,final-intermixed-textured,v2,jsons/MX_seq19_1_VE125.json,http://54.235.29.9/FacialAge/BNav_EC2/DepthDuration/MX_fS_VE_MTurk/MX_fS_HTML.html#306,306,1920,1080,1920,1080,1-12-2024,15-25-42,26,catch_stimuli/c2.png,125,,,0.0,1564,125,meters,jsons/MX_seq19_1_VE125.json,151513,407165,29,Woman
26,328802,final-intermixed-textured,v2,jsons/MX_seq19_1_VE125.json,http://54.235.29.9/FacialAge/BNav_EC2/DepthDuration/MX_fS_VE_MTurk/MX_fS_HTML.html#306,306,1920,1080,1920,1080,1-12-2024,15-25-42,27,VR_target_stimuli/s17_0.75x_1.8_285_BC.png,125,0.75x,1.8,1.0,1601,124,meters,jsons/MX_seq19_1_VE125.json,151513,407165,29,Woman
27,328802,final-intermixed-textured,v2,jsons/MX_seq19_1_VE125.json,http://54.235.29.9/FacialAge/BNav_EC2/DepthDuration/MX_fS_VE_MTurk/MX_fS_HTML.html#306,306,1920,1080,1920,1080,1-12-2024,15-25-42,28,VR_target_stimuli/s5_0.75x_4_375.png,125,0.75x,4.0,2.0,1692,124,meters,jsons/MX_seq19_1_VE125.json,151513,407165,29,Woman
28,328802,final-intermixed-textured,v2,jsons/MX_seq19_1_VE125.json,http://54.235.29.9/FacialAge/BNav_EC2/DepthDuration/MX_fS_VE_MTurk/MX_fS_HTML.html#306,306,1920,1080,1920,1080,1-12-2024,15-25-42,29,VR_target_stimuli/s37_1.3x_3.3_555.png,125,1.3x,3.3,1.0,1636,125,meters,jsons/MX_seq19_1_VE125.json,151513,407165,29,Woman
29,328802,final-intermixed-textured,v2,jsons/MX_seq19_1_VE125.json,http://54.235.29.9/FacialAge/BNav_EC2/DepthDuration/MX_fS_VE_MTurk/MX_fS_HTML.html#306,306,1920,1080,1920,1080,1-12-2024,15-25-42,30,VR_target_stimuli/s46_1x_2.42_348_BC.png,125,1x,2.42,1.5,2299,122,meters,jsons/MX_seq19_1_VE125.json,151513,407165,29,Woman
30,328802,final-intermixed-textured,v2,jsons/MX_seq19_1_VE125.json,http://54.235.29.9/FacialAge/BNav_EC2/DepthDuration/MX_fS_VE_MTurk/MX_fS_HTML.html#306,306,1920,1080,1920,1080,1-12-2024,15-25-42,31,VR_target_stimuli/s22_0.75x_4.29_348_BC.png,125,0.75x,4.29,2.0,1589,126,meters,jsons/MX_seq19_1_VE125.json,151513,407165,29,Woman
31,328802,final-intermixed-textured,v2,jsons/MX_seq19_1_VE125.json,http://54.235.29.9/FacialAge/BNav_EC2/DepthDuration/MX_fS_VE_MTurk/MX_fS_HTML.html#306,306,1920,1080,1920,1080,1-12-2024,15-25-42,32,VR_target_stimuli/s42_1x_3.2_303.png,125,1x,3.2,3.0,1658,124,meters,jsons/MX_seq19_1_VE125.json,151513,407165,29,Woman
32,328802,final-intermixed-textured,v2,jsons/MX_seq19_1_VE125.json,http://54.235.29.9/FacialAge/BNav_EC2/DepthDuration/MX_fS_VE_MTurk/MX_fS_HTML.html#306,306,1920,1080,1920,1080,1-12-2024,15-25-42,33,VR_target_stimuli/s25_1.3x_1.4_299_BC.png,125,1.3x,1.4,1.5,2283,125,meters,jsons/MX_seq19_1_VE125.json,151513,407165,29,Woman
33,328802,final-intermixed-textured,v2,jsons/MX_seq19_1_VE125.json,http://54.235.29.9/FacialAge/BNav_EC2/DepthDuration/MX_fS_VE_MTurk/MX_fS_HTML.html#306,306,1920,1080,1920,1080,1-12-2024,15-25-42,34,catch_stimuli/c3.png,125,,,0.0,1507,126,meters,jsons/MX_seq19_1_VE125.json,151513,407165,29,Woman
34,328802,final-intermixed-textured,v2,jsons/MX_seq19_1_VE125.json,http://54.235.29.9/FacialAge/BNav_EC2/DepthDuration/MX_fS_VE_MTurk/MX_fS_HTML.html#306,306,1920,1080,1920,1080,1-12-2024,15-25-42,35,VR_target_stimuli/s50_1x_4.53_518_BC.png,125,1x,4.53,1.0,2285,124,meters,jsons/MX_seq19_1_VE125.json,151513,407165,29,Woman
35,328802,final-intermixed-textured,v2,jsons/MX_seq19_1_VE125.json,http://54.235.29.9/FacialAge/BNav_EC2/DepthDuration/MX_fS_VE_MTurk/MX_fS_HTML.html#306,306,1920,1080,1920,1080,1-12-2024,15-25-42,36,VR_target_stimuli/s53_0.75x_1.6_403.png,125,0.75x,1.6,0.5,2620,139,meters,jsons/MX_seq19_1_VE125.json,151513,407165,29,Woman
36,328802,final-intermixed-textured,v2,jsons/MX_seq19_1_VE125.json,http://54.235.29.9/FacialAge/BNav_EC2/DepthDuration/MX_fS_VE_MTurk/MX_fS_HTML.html#306,306,1920,1080,1920,1080,1-12-2024,15-25-42,37,VR_target_stimuli/s38_1.3x_3.55_358.png,125,1.3x,3.55,3.0,1777,125,meters,jsons/MX_seq19_1_VE125.json,151513,407165,29,Woman
37,328802,final-intermixed-textured,v2,jsons/MX_seq19_1_VE125.json,http://54.235.29.9/FacialAge/BNav_EC2/DepthDuration/MX_fS_VE_MTurk/MX_fS_HTML.html#306,306,1920,1080,1920,1080,1-12-2024,15-25-42,38,VR_target_stimuli/s9_1.3x_1.2_276_BC.png,125,1.3x,1.2,0.5,2077,124,meters,jsons/MX_seq19_1_VE125.json,151513,407165,29,Woman
38,328802,final-intermixed-textured,v2,jsons/MX_seq19_1_VE125.json,http://54.235.29.9/FacialAge/BNav_EC2/DepthDuration/MX_fS_VE_MTurk/MX_fS_HTML.html#306,306,1920,1080,1920,1080,1-12-2024,15-25-42,39,VR_target_stimuli/s44_1x_4.4_317.png,125,1x,4.4,2.5,2067,125,meters,jsons/MX_seq19_1_VE125.json,151513,407165,29,Woman
39,328802,final-intermixed-textured,v2,jsons/MX_seq19_1_VE125.json,http://54.235.29.9/FacialAge/BNav_EC2/DepthDuration/MX_fS_VE_MTurk/MX_fS_HTML.html#306,306,1920,1080,1920,1080,1-12-2024,15-25-42,40,VR_target_stimuli/s3_0.75x_5_381_BC.png,125,0.75x,5.0,3.5,2336,124,meters,jsons/MX_seq19_1_VE125.json,151513,407165,29,Woman
40,328802,final-intermixed-textured,v2,jsons/MX_seq19_1_VE125.json,http://54.235.29.9/FacialAge/BNav_EC2/DepthDuration/MX_fS_VE_MTurk/MX_fS_HTML.html#306,306,1920,1080,1920,1080,1-12-2024,15-25-42,41,VR_target_stimuli/s1_1x_1.7_262_BC.png,125,1x,1.7,1.5,2238,125,meters,jsons/MX_seq19_1_VE125.json,151513,407165,29,Woman
41,328802,final-intermixed-textured,v2,jsons/MX_seq19_1_VE125.json,http://54.235.29.9/FacialAge/BNav_EC2/DepthDuration/MX_fS_VE_MTurk/MX_fS_HTML.html#306,306,1920,1080,1920,1080,1-12-2024,15-25-42,42,VR_target_stimuli/s11_1.3x_5_363_BC.png,125,1.3x,5.0,2.0,1663,125,meters,jsons/MX_seq19_1_VE125.json,151513,407165,29,Woman
42,328802,final-intermixed-textured,v2,jsons/MX_seq19_1_VE125.json,http://54.235.29.9/FacialAge/BNav_EC2/DepthDuration/MX_fS_VE_MTurk/MX_fS_HTML.html#306,306,1920,1080,1920,1080,1-12-2024,15-25-42,43,VR_target_stimuli/s2_0.75x_2.7_384.png,125,0.75x,2.7,1.0,1591,125,meters,jsons/MX_seq19_1_VE125.json,151513,407165,29,Woman
43,328802,final-intermixed-textured,v2,jsons/MX_seq19_1_VE125.json,http://54.235.29.9/FacialAge/BNav_EC2/DepthDuration/MX_fS_VE_MTurk/MX_fS_HTML.html#306,306,1920,1080,1920,1080,1-12-2024,15-25-42,44,VR_target_stimuli/s6_1.3x_2.1_298.png,125,1.3x,2.1,1.5,2101,125,meters,jsons/MX_seq19_1_VE125.json,151513,407165,29,Woman
44,328802,final-intermixed-textured,v2,jsons/MX_seq19_1_VE125.json,http://54.235.29.9/FacialAge/BNav_EC2/DepthDuration/MX_fS_VE_MTurk/MX_fS_HTML.html#306,306,1920,1080,1920,1080,1-12-2024,15-25-42,45,catch_stimuli/c4.png,125,,,0.0,1499,122,meters,jsons/MX_seq19_1_VE125.json,151513,407165,29,Woman
45,328802,final-intermixed-textured,v2,jsons/MX_seq19_1_VE125.json,http://54.235.29.9/FacialAge/BNav_EC2/DepthDuration/MX_fS_VE_MTurk/MX_fS_HTML.html#306,306,1920,1080,1920,1080,1-12-2024,15-25-42,46,VR_target_stimuli/s0_1x_2.6_351.png,125,1x,2.6,1.5,2519,123,meters,jsons/MX_seq19_1_VE125.json,151513,407165,29,Woman
46,328802,final-intermixed-textured,v2,jsons/MX_seq19_1_VE125.json,http://54.235.29.9/FacialAge/BNav_EC2/DepthDuration/MX_fS_VE_MTurk/MX_fS_HTML.html#306,306,1920,1080,1920,1080,1-12-2024,15-25-42,47,VR_target_stimuli/s34_0.75x_2.8_269_BC.png,125,0.75x,2.8,2.5,2061,124,meters,jsons/MX_seq19_1_VE125.json,151513,407165,29,Woman
47,328802,final-intermixed-textured,v2,jsons/MX_seq19_1_VE125.json,http://54.235.29.9/FacialAge/BNav_EC2/DepthDuration/MX_fS_VE_MTurk/MX_fS_HTML.html#306,306,1920,1080,1920,1080,1-12-2024,15-25-42,48,VR_target_stimuli/s13_0.75x_2.4_308.png,125,0.75x,2.4,3.0,2079,127,meters,jsons/MX_seq19_1_VE125.json,151513,407165,29,Woman
48,328802,final-intermixed-textured,v2,jsons/MX_seq19_1_VE125.json,http://54.235.29.9/FacialAge/BNav_EC2/DepthDuration/MX_fS_VE_MTurk/MX_fS_HTML.html#306,306,1920,1080,1920,1080,1-12-2024,15-25-42,49,VR_target_stimuli/s14_1.3x_3.83_359_BC.png,125,1.3x,3.83,2.0,1669,124,meters,jsons/MX_seq19_1_VE125.json,151513,407165,29,Woman
49,328802,final-intermixed-textured,v2,jsons/MX_seq19_1_VE125.json,http://54.235.29.9/FacialAge/BNav_EC2/DepthDuration/MX_fS_VE_MTurk/MX_fS_HTML.html#306,306,1920,1080,1920,1080,1-12-2024,15-25-42,50,VR_target_stimuli/s47_1x_3.45_370.png,125,1x,3.45,1.7,2869,124,meters,jsons/MX_seq19_1_VE125.json,151513,407165,29,Woman
50,328802,final-intermixed-textured,v2,jsons/MX_seq19_1_VE125.json,http://54.235.29.9/FacialAge/BNav_EC2/DepthDuration/MX_fS_VE_MTurk/MX_fS_HTML.html#306,306,1920,1080,1920,1080,1-12-2024,15-25-42,51,VR_target_stimuli/s29_1.3x_1.3_253.png,125,1.3x,1.3,0.7,2211,123,meters,jsons/MX_seq19_1_VE125.json,151513,407165,29,Woman
51,328802,final-intermixed-textured,v2,jsons/MX_seq19_1_VE125.json,http://54.235.29.9/FacialAge/BNav_EC2/DepthDuration/MX_fS_VE_MTurk/MX_fS_HTML.html#306,306,1920,1080,1920,1080,1-12-2024,15-25-42,52,VR_target_stimuli/s28_0.75x_3.2_357_BC.png,125,0.75x,3.2,2.0,1698,123,meters,jsons/MX_seq19_1_VE125.json,151513,407165,29,Woman
52,328802,final-intermixed-textured,v2,jsons/MX_seq19_1_VE125.json,http://54.235.29.9/FacialAge/BNav_EC2/DepthDuration/MX_fS_VE_MTurk/MX_fS_HTML.html#306,306,1920,1080,1920,1080,1-12-2024,15-25-42,53,catch_stimuli/c5.png,125,,,0.0,1443,123,meters,jsons/MX_seq19_1_VE125.json,151513,407165,29,Woman
53,328802,final-intermixed-textured,v2,jsons/MX_seq19_1_VE125.json,http://54.235.29.9/FacialAge/BNav_EC2/DepthDuration/MX_fS_VE_MTurk/MX_fS_HTML.html#306,306,1920,1080,1920,1080,1-12-2024,15-25-42,54,VR_target_stimuli/s48_1x_2.55_256_BC.png,125,1x,2.55,2.0,3106,138,meters,jsons/MX_seq19_1_VE125.json,151513,407165,29,Woman
54,328802,final-intermixed-textured,v2,jsons/MX_seq19_1_VE125.json,http://54.235.29.9/FacialAge/BNav_EC2/DepthDuration/MX_fS_VE_MTurk/MX_fS_HTML.html#306,306,1920,1080,1920,1080,1-12-2024,15-25-42,55,VR_target_stimuli/s19_0.75x_1.21_257.png,125,0.75x,1.21,0.8,2589,125,meters,jsons/MX_seq19_1_VE125.json,151513,407165,29,Woman
55,328802,final-intermixed-textured,v2,jsons/MX_seq19_1_VE125.json,http://54.235.29.9/FacialAge/BNav_EC2/DepthDuration/MX_fS_VE_MTurk/MX_fS_HTML.html#306,306,1920,1080,1920,1080,1-12-2024,15-25-42,56,VR_target_stimuli/s21_1.3x_4.22_384.png,125,1.3x,4.22,2.0,1729,125,meters,jsons/MX_seq19_1_VE125.json,151513,407165,29,Woman
56,328802,final-intermixed-textured,v2,jsons/MX_seq19_1_VE125.json,http://54.235.29.9/FacialAge/BNav_EC2/DepthDuration/MX_fS_VE_MTurk/MX_fS_HTML.html#306,306,1920,1080,1920,1080,1-12-2024,15-25-42,57,VR_target_stimuli/s8_1x_3.1_332.png,125,1x,3.1,3.0,1745,124,meters,jsons/MX_seq19_1_VE125.json,151513,407165,29,Woman
57,328802,final-intermixed-textured,v2,jsons/MX_seq19_1_VE125.json,http://54.235.29.9/FacialAge/BNav_EC2/DepthDuration/MX_fS_VE_MTurk/MX_fS_HTML.html#306,306,1920,1080,1920,1080,1-12-2024,15-25-42,58,VR_target_stimuli/s27_1x_1.76_248_BC.png,125,1x,1.76,1.0,2010,124,meters,jsons/MX_seq19_1_VE125.json,151513,407165,29,Woman
58,328802,final-intermixed-textured,v2,jsons/MX_seq19_1_VE125.json,http://54.235.29.9/FacialAge/BNav_EC2/DepthDuration/MX_fS_VE_MTurk/MX_fS_HTML.html#306,306,1920,1080,1920,1080,1-12-2024,15-25-42,59,VR_target_stimuli/s15_0.75x_4.2_388_BC.png,125,0.75x,4.2,3.5,2098,124,meters,jsons/MX_seq19_1_VE125.json,151513,407165,29,Woman
59,328802,final-intermixed-textured,v2,jsons/MX_seq19_1_VE125.json,http://54.235.29.9/FacialAge/BNav_EC2/DepthDuration/MX_fS_VE_MTurk/MX_fS_HTML.html#306,306,1920,1080,1920,1080,1-12-2024,15-25-42,60,VR_target_stimuli/s4_1.3x_1.4_328_BC.png,125,1.3x,1.4,1.0,1632,126,meters,jsons/MX_seq19_1_VE125.json,151513,407165,29,Woman
