,subjID,experimentName,versionName,sequenceName,url,selected_row,windowWidth,windowHeight,screenWidth,screenHeight,startDate,startTime,trial,stimulus,duration,scale,actual_depth,depth_estimate,trial_RT,log_sceneDuration,unitSelection,seq_filepath,experimentTime,totalTime,age,gender
0,345807,final-intermixed-textured,v2,jsons/MX_seq46_0_VE125_flipped.json,http://54.235.29.9/FacialAge/BNav_EC2/DepthDuration/MX_fS_VE_MTurk/MX_fS_HTML.html#91,91,1920,1080,1920,1080,1-12-2024,11-59-8,1,VR_target_stimuli/s22_0.75x_4.29_348_BC.png,125,0.75x,4.29,0,4835,125,feet,jsons/MX_seq46_0_VE125_flipped.json,246951,515056,49,Woman
1,345807,final-intermixed-textured,v2,jsons/MX_seq46_0_VE125_flipped.json,http://54.235.29.9/FacialAge/BNav_EC2/DepthDuration/MX_fS_VE_MTurk/MX_fS_HTML.html#91,91,1920,1080,1920,1080,1-12-2024,11-59-8,2,VR_target_stimuli/s42_1x_3.2_303_BC.png,125,1x,3.2,3,4140,125,feet,jsons/MX_seq46_0_VE125_flipped.json,246951,515056,49,Woman
2,345807,final-intermixed-textured,v2,jsons/MX_seq46_0_VE125_flipped.json,http://54.235.29.9/FacialAge/BNav_EC2/DepthDuration/MX_fS_VE_MTurk/MX_fS_HTML.html#91,91,1920,1080,1920,1080,1-12-2024,11-59-8,3,VR_target_stimuli/s25_1.3x_1.4_299.png,125,1.3x,1.4,8,3361,125,feet,jsons/MX_seq46_0_VE125_flipped.json,246951,515056,49,Woman
3,345807,final-intermixed-textured,v2,jsons/MX_seq46_0_VE125_flipped.json,http://54.235.29.9/FacialAge/BNav_EC2/DepthDuration/MX_fS_VE_MTurk/MX_fS_HTML.html#91,91,1920,1080,1920,1080,1-12-2024,11-59-8,4,VR_target_stimuli/s50_1x_4.53_518.png,125,1x,4.53,6,4590,124,feet,jsons/MX_seq46_0_VE125_flipped.json,246951,515056,49,Woman
4,345807,final-intermixed-textured,v2,jsons/MX_seq46_0_VE125_flipped.json,http://54.235.29.9/FacialAge/BNav_EC2/DepthDuration/MX_fS_VE_MTurk/MX_fS_HTML.html#91,91,1920,1080,1920,1080,1-12-2024,11-59-8,5,VR_target_stimuli/s53_0.75x_1.6_403.png,125,0.75x,1.6,12,4601,123,feet,jsons/MX_seq46_0_VE125_flipped.json,246951,515056,49,Woman
5,345807,final-intermixed-textured,v2,jsons/MX_seq46_0_VE125_flipped.json,http://54.235.29.9/FacialAge/BNav_EC2/DepthDuration/MX_fS_VE_MTurk/MX_fS_HTML.html#91,91,1920,1080,1920,1080,1-12-2024,11-59-8,6,VR_target_stimuli/s38_1.3x_3.55_358_BC.png,125,1.3x,3.55,8,4306,124,feet,jsons/MX_seq46_0_VE125_flipped.json,246951,515056,49,Woman
6,345807,final-intermixed-textured,v2,jsons/MX_seq46_0_VE125_flipped.json,http://54.235.29.9/FacialAge/BNav_EC2/DepthDuration/MX_fS_VE_MTurk/MX_fS_HTML.html#91,91,1920,1080,1920,1080,1-12-2024,11-59-8,7,catch_stimuli/c0_BC.png,125,,,0,3802,124,feet,jsons/MX_seq46_0_VE125_flipped.json,246951,515056,49,Woman
7,345807,final-intermixed-textured,v2,jsons/MX_seq46_0_VE125_flipped.json,http://54.235.29.9/FacialAge/BNav_EC2/DepthDuration/MX_fS_VE_MTurk/MX_fS_HTML.html#91,91,1920,1080,1920,1080,1-12-2024,11-59-8,8,VR_target_stimuli/s9_1.3x_1.2_276.png,125,1.3x,1.2,8,4043,124,feet,jsons/MX_seq46_0_VE125_flipped.json,246951,515056,49,Woman
8,345807,final-intermixed-textured,v2,jsons/MX_seq46_0_VE125_flipped.json,http://54.235.29.9/FacialAge/BNav_EC2/DepthDuration/MX_fS_VE_MTurk/MX_fS_HTML.html#91,91,1920,1080,1920,1080,1-12-2024,11-59-8,9,VR_target_stimuli/s44_1x_4.4_317_BC.png,125,1x,4.4,12,4690,125,feet,jsons/MX_seq46_0_VE125_flipped.json,246951,515056,49,Woman
9,345807,final-intermixed-textured,v2,jsons/MX_seq46_0_VE125_flipped.json,http://54.235.29.9/FacialAge/BNav_EC2/DepthDuration/MX_fS_VE_MTurk/MX_fS_HTML.html#91,91,1920,1080,1920,1080,1-12-2024,11-59-8,10,VR_target_stimuli/s3_0.75x_5_381_BC.png,125,0.75x,5.0,16,3779,125,feet,jsons/MX_seq46_0_VE125_flipped.json,246951,515056,49,Woman
10,345807,final-intermixed-textured,v2,jsons/MX_seq46_0_VE125_flipped.json,http://54.235.29.9/FacialAge/BNav_EC2/DepthDuration/MX_fS_VE_MTurk/MX_fS_HTML.html#91,91,1920,1080,1920,1080,1-12-2024,11-59-8,11,VR_target_stimuli/s1_1x_1.7_262.png,125,1x,1.7,8,3218,124,feet,jsons/MX_seq46_0_VE125_flipped.json,246951,515056,49,Woman
11,345807,final-intermixed-textured,v2,jsons/MX_seq46_0_VE125_flipped.json,http://54.235.29.9/FacialAge/BNav_EC2/DepthDuration/MX_fS_VE_MTurk/MX_fS_HTML.html#91,91,1920,1080,1920,1080,1-12-2024,11-59-8,12,VR_target_stimuli/s11_1.3x_5_363_BC.png,125,1.3x,5.0,0,2607,126,feet,jsons/MX_seq46_0_VE125_flipped.json,246951,515056,49,Woman
12,345807,final-intermixed-textured,v2,jsons/MX_seq46_0_VE125_flipped.json,http://54.235.29.9/FacialAge/BNav_EC2/DepthDuration/MX_fS_VE_MTurk/MX_fS_HTML.html#91,91,1920,1080,1920,1080,1-12-2024,11-59-8,13,VR_target_stimuli/s2_0.75x_2.7_384.png,125,0.75x,2.7,8,3404,126,feet,jsons/MX_seq46_0_VE125_flipped.json,246951,515056,49,Woman
13,345807,final-intermixed-textured,v2,jsons/MX_seq46_0_VE125_flipped.json,http://54.235.29.9/FacialAge/BNav_EC2/DepthDuration/MX_fS_VE_MTurk/MX_fS_HTML.html#91,91,1920,1080,1920,1080,1-12-2024,11-59-8,14,VR_target_stimuli/s6_1.3x_2.1_298.png,125,1.3x,2.1,6,2839,127,feet,jsons/MX_seq46_0_VE125_flipped.json,246951,515056,49,Woman
14,345807,final-intermixed-textured,v2,jsons/MX_seq46_0_VE125_flipped.json,http://54.235.29.9/FacialAge/BNav_EC2/DepthDuration/MX_fS_VE_MTurk/MX_fS_HTML.html#91,91,1920,1080,1920,1080,1-12-2024,11-59-8,15,VR_target_stimuli/s0_1x_2.6_351_BC.png,125,1x,2.6,12,2810,125,feet,jsons/MX_seq46_0_VE125_flipped.json,246951,515056,49,Woman
15,345807,final-intermixed-textured,v2,jsons/MX_seq46_0_VE125_flipped.json,http://54.235.29.9/FacialAge/BNav_EC2/DepthDuration/MX_fS_VE_MTurk/MX_fS_HTML.html#91,91,1920,1080,1920,1080,1-12-2024,11-59-8,16,VR_target_stimuli/s34_0.75x_2.8_269.png,125,0.75x,2.8,12,3111,125,feet,jsons/MX_seq46_0_VE125_flipped.json,246951,515056,49,Woman
16,345807,final-intermixed-textured,v2,jsons/MX_seq46_0_VE125_flipped.json,http://54.235.29.9/FacialAge/BNav_EC2/DepthDuration/MX_fS_VE_MTurk/MX_fS_HTML.html#91,91,1920,1080,1920,1080,1-12-2024,11-59-8,17,catch_stimuli/c1_BC.png,125,,,0,3135,125,feet,jsons/MX_seq46_0_VE125_flipped.json,246951,515056,49,Woman
17,345807,final-intermixed-textured,v2,jsons/MX_seq46_0_VE125_flipped.json,http://54.235.29.9/FacialAge/BNav_EC2/DepthDuration/MX_fS_VE_MTurk/MX_fS_HTML.html#91,91,1920,1080,1920,1080,1-12-2024,11-59-8,18,VR_target_stimuli/s13_0.75x_2.4_308_BC.png,125,0.75x,2.4,6,2610,124,feet,jsons/MX_seq46_0_VE125_flipped.json,246951,515056,49,Woman
18,345807,final-intermixed-textured,v2,jsons/MX_seq46_0_VE125_flipped.json,http://54.235.29.9/FacialAge/BNav_EC2/DepthDuration/MX_fS_VE_MTurk/MX_fS_HTML.html#91,91,1920,1080,1920,1080,1-12-2024,11-59-8,19,VR_target_stimuli/s14_1.3x_3.83_359_BC.png,125,1.3x,3.83,12,2887,124,feet,jsons/MX_seq46_0_VE125_flipped.json,246951,515056,49,Woman
19,345807,final-intermixed-textured,v2,jsons/MX_seq46_0_VE125_flipped.json,http://54.235.29.9/FacialAge/BNav_EC2/DepthDuration/MX_fS_VE_MTurk/MX_fS_HTML.html#91,91,1920,1080,1920,1080,1-12-2024,11-59-8,20,VR_target_stimuli/s47_1x_3.45_370.png,125,1x,3.45,6,2622,125,feet,jsons/MX_seq46_0_VE125_flipped.json,246951,515056,49,Woman
20,345807,final-intermixed-textured,v2,jsons/MX_seq46_0_VE125_flipped.json,http://54.235.29.9/FacialAge/BNav_EC2/DepthDuration/MX_fS_VE_MTurk/MX_fS_HTML.html#91,91,1920,1080,1920,1080,1-12-2024,11-59-8,21,VR_target_stimuli/s29_1.3x_1.3_253_BC.png,125,1.3x,1.3,4,3818,125,feet,jsons/MX_seq46_0_VE125_flipped.json,246951,515056,49,Woman
21,345807,final-intermixed-textured,v2,jsons/MX_seq46_0_VE125_flipped.json,http://54.235.29.9/FacialAge/BNav_EC2/DepthDuration/MX_fS_VE_MTurk/MX_fS_HTML.html#91,91,1920,1080,1920,1080,1-12-2024,11-59-8,22,VR_target_stimuli/s28_0.75x_3.2_357_BC.png,125,0.75x,3.2,7,4123,124,feet,jsons/MX_seq46_0_VE125_flipped.json,246951,515056,49,Woman
22,345807,final-intermixed-textured,v2,jsons/MX_seq46_0_VE125_flipped.json,http://54.235.29.9/FacialAge/BNav_EC2/DepthDuration/MX_fS_VE_MTurk/MX_fS_HTML.html#91,91,1920,1080,1920,1080,1-12-2024,11-59-8,23,VR_target_stimuli/s48_1x_2.55_256.png,125,1x,2.55,3,2727,124,feet,jsons/MX_seq46_0_VE125_flipped.json,246951,515056,49,Woman
23,345807,final-intermixed-textured,v2,jsons/MX_seq46_0_VE125_flipped.json,http://54.235.29.9/FacialAge/BNav_EC2/DepthDuration/MX_fS_VE_MTurk/MX_fS_HTML.html#91,91,1920,1080,1920,1080,1-12-2024,11-59-8,24,VR_target_stimuli/s19_0.75x_1.21_257.png,125,0.75x,1.21,5,2525,125,feet,jsons/MX_seq46_0_VE125_flipped.json,246951,515056,49,Woman
24,345807,final-intermixed-textured,v2,jsons/MX_seq46_0_VE125_flipped.json,http://54.235.29.9/FacialAge/BNav_EC2/DepthDuration/MX_fS_VE_MTurk/MX_fS_HTML.html#91,91,1920,1080,1920,1080,1-12-2024,11-59-8,25,VR_target_stimuli/s21_1.3x_4.22_384.png,125,1.3x,4.22,8,2659,125,feet,jsons/MX_seq46_0_VE125_flipped.json,246951,515056,49,Woman
25,345807,final-intermixed-textured,v2,jsons/MX_seq46_0_VE125_flipped.json,http://54.235.29.9/FacialAge/BNav_EC2/DepthDuration/MX_fS_VE_MTurk/MX_fS_HTML.html#91,91,1920,1080,1920,1080,1-12-2024,11-59-8,26,catch_stimuli/c2_BC.png,125,,,0,3914,124,feet,jsons/MX_seq46_0_VE125_flipped.json,246951,515056,49,Woman
26,345807,final-intermixed-textured,v2,jsons/MX_seq46_0_VE125_flipped.json,http://54.235.29.9/FacialAge/BNav_EC2/DepthDuration/MX_fS_VE_MTurk/MX_fS_HTML.html#91,91,1920,1080,1920,1080,1-12-2024,11-59-8,27,VR_target_stimuli/s8_1x_3.1_332_BC.png,125,1x,3.1,4,2790,126,feet,jsons/MX_seq46_0_VE125_flipped.json,246951,515056,49,Woman
27,345807,final-intermixed-textured,v2,jsons/MX_seq46_0_VE125_flipped.json,http://54.235.29.9/FacialAge/BNav_EC2/DepthDuration/MX_fS_VE_MTurk/MX_fS_HTML.html#91,91,1920,1080,1920,1080,1-12-2024,11-59-8,28,VR_target_stimuli/s27_1x_1.76_248_BC.png,125,1x,1.76,6,2791,125,feet,jsons/MX_seq46_0_VE125_flipped.json,246951,515056,49,Woman
28,345807,final-intermixed-textured,v2,jsons/MX_seq46_0_VE125_flipped.json,http://54.235.29.9/FacialAge/BNav_EC2/DepthDuration/MX_fS_VE_MTurk/MX_fS_HTML.html#91,91,1920,1080,1920,1080,1-12-2024,11-59-8,29,VR_target_stimuli/s15_0.75x_4.2_388.png,125,0.75x,4.2,0,4075,125,feet,jsons/MX_seq46_0_VE125_flipped.json,246951,515056,49,Woman
29,345807,final-intermixed-textured,v2,jsons/MX_seq46_0_VE125_flipped.json,http://54.235.29.9/FacialAge/BNav_EC2/DepthDuration/MX_fS_VE_MTurk/MX_fS_HTML.html#91,91,1920,1080,1920,1080,1-12-2024,11-59-8,30,VR_target_stimuli/s4_1.3x_1.4_328_BC.png,125,1.3x,1.4,4,3458,124,feet,jsons/MX_seq46_0_VE125_flipped.json,246951,515056,49,Woman
30,345807,final-intermixed-textured,v2,jsons/MX_seq46_0_VE125_flipped.json,http://54.235.29.9/FacialAge/BNav_EC2/DepthDuration/MX_fS_VE_MTurk/MX_fS_HTML.html#91,91,1920,1080,1920,1080,1-12-2024,11-59-8,31,VR_target_stimuli/s35_1x_2_331.png,125,1x,2.0,8,2718,124,feet,jsons/MX_seq46_0_VE125_flipped.json,246951,515056,49,Woman
31,345807,final-intermixed-textured,v2,jsons/MX_seq46_0_VE125_flipped.json,http://54.235.29.9/FacialAge/BNav_EC2/DepthDuration/MX_fS_VE_MTurk/MX_fS_HTML.html#91,91,1920,1080,1920,1080,1-12-2024,11-59-8,32,VR_target_stimuli/s49_1.3x_4.67_354.png,125,1.3x,4.67,10,3571,126,feet,jsons/MX_seq46_0_VE125_flipped.json,246951,515056,49,Woman
32,345807,final-intermixed-textured,v2,jsons/MX_seq46_0_VE125_flipped.json,http://54.235.29.9/FacialAge/BNav_EC2/DepthDuration/MX_fS_VE_MTurk/MX_fS_HTML.html#91,91,1920,1080,1920,1080,1-12-2024,11-59-8,33,VR_target_stimuli/s7_0.75x_1.5_253_BC.png,125,0.75x,1.5,4,2927,125,feet,jsons/MX_seq46_0_VE125_flipped.json,246951,515056,49,Woman
33,345807,final-intermixed-textured,v2,jsons/MX_seq46_0_VE125_flipped.json,http://54.235.29.9/FacialAge/BNav_EC2/DepthDuration/MX_fS_VE_MTurk/MX_fS_HTML.html#91,91,1920,1080,1920,1080,1-12-2024,11-59-8,34,catch_stimuli/c3_BC.png,125,,,0,4198,125,feet,jsons/MX_seq46_0_VE125_flipped.json,246951,515056,49,Woman
34,345807,final-intermixed-textured,v2,jsons/MX_seq46_0_VE125_flipped.json,http://54.235.29.9/FacialAge/BNav_EC2/DepthDuration/MX_fS_VE_MTurk/MX_fS_HTML.html#91,91,1920,1080,1920,1080,1-12-2024,11-59-8,35,VR_target_stimuli/s20_1.3x_4.99_412_BC.png,125,1.3x,4.99,10,5274,125,feet,jsons/MX_seq46_0_VE125_flipped.json,246951,515056,49,Woman
35,345807,final-intermixed-textured,v2,jsons/MX_seq46_0_VE125_flipped.json,http://54.235.29.9/FacialAge/BNav_EC2/DepthDuration/MX_fS_VE_MTurk/MX_fS_HTML.html#91,91,1920,1080,1920,1080,1-12-2024,11-59-8,36,VR_target_stimuli/s31_1x_4.96_333.png,125,1x,4.96,6,2540,126,feet,jsons/MX_seq46_0_VE125_flipped.json,246951,515056,49,Woman
36,345807,final-intermixed-textured,v2,jsons/MX_seq46_0_VE125_flipped.json,http://54.235.29.9/FacialAge/BNav_EC2/DepthDuration/MX_fS_VE_MTurk/MX_fS_HTML.html#91,91,1920,1080,1920,1080,1-12-2024,11-59-8,37,VR_target_stimuli/s33_0.75x_3.1_361.png,125,0.75x,3.1,6,2871,125,feet,jsons/MX_seq46_0_VE125_flipped.json,246951,515056,49,Woman
37,345807,final-intermixed-textured,v2,jsons/MX_seq46_0_VE125_flipped.json,http://54.235.29.9/FacialAge/BNav_EC2/DepthDuration/MX_fS_VE_MTurk/MX_fS_HTML.html#91,91,1920,1080,1920,1080,1-12-2024,11-59-8,38,VR_target_stimuli/s52_0.75x_3.2_270_BC.png,125,0.75x,3.2,4,2686,124,feet,jsons/MX_seq46_0_VE125_flipped.json,246951,515056,49,Woman
38,345807,final-intermixed-textured,v2,jsons/MX_seq46_0_VE125_flipped.json,http://54.235.29.9/FacialAge/BNav_EC2/DepthDuration/MX_fS_VE_MTurk/MX_fS_HTML.html#91,91,1920,1080,1920,1080,1-12-2024,11-59-8,39,VR_target_stimuli/s32_1.3x_1.5_224.png,125,1.3x,1.5,3,2671,124,feet,jsons/MX_seq46_0_VE125_flipped.json,246951,515056,49,Woman
39,345807,final-intermixed-textured,v2,jsons/MX_seq46_0_VE125_flipped.json,http://54.235.29.9/FacialAge/BNav_EC2/DepthDuration/MX_fS_VE_MTurk/MX_fS_HTML.html#91,91,1920,1080,1920,1080,1-12-2024,11-59-8,40,VR_target_stimuli/s18_1x_2.25_353_BC.png,125,1x,2.25,8,3525,125,feet,jsons/MX_seq46_0_VE125_flipped.json,246951,515056,49,Woman
40,345807,final-intermixed-textured,v2,jsons/MX_seq46_0_VE125_flipped.json,http://54.235.29.9/FacialAge/BNav_EC2/DepthDuration/MX_fS_VE_MTurk/MX_fS_HTML.html#91,91,1920,1080,1920,1080,1-12-2024,11-59-8,41,VR_target_stimuli/s39_1.3x_1_208.png,125,1.3x,1.0,4,2526,126,feet,jsons/MX_seq46_0_VE125_flipped.json,246951,515056,49,Woman
41,345807,final-intermixed-textured,v2,jsons/MX_seq46_0_VE125_flipped.json,http://54.235.29.9/FacialAge/BNav_EC2/DepthDuration/MX_fS_VE_MTurk/MX_fS_HTML.html#91,91,1920,1080,1920,1080,1-12-2024,11-59-8,42,VR_target_stimuli/s51_0.75x_3.64_460_BC.png,125,0.75x,3.64,6,2702,123,feet,jsons/MX_seq46_0_VE125_flipped.json,246951,515056,49,Woman
42,345807,final-intermixed-textured,v2,jsons/MX_seq46_0_VE125_flipped.json,http://54.235.29.9/FacialAge/BNav_EC2/DepthDuration/MX_fS_VE_MTurk/MX_fS_HTML.html#91,91,1920,1080,1920,1080,1-12-2024,11-59-8,43,VR_target_stimuli/s43_1x_2.2_354_BC.png,125,1x,2.2,6,3059,124,feet,jsons/MX_seq46_0_VE125_flipped.json,246951,515056,49,Woman
43,345807,final-intermixed-textured,v2,jsons/MX_seq46_0_VE125_flipped.json,http://54.235.29.9/FacialAge/BNav_EC2/DepthDuration/MX_fS_VE_MTurk/MX_fS_HTML.html#91,91,1920,1080,1920,1080,1-12-2024,11-59-8,44,VR_target_stimuli/s24_0.75x_3.3_344.png,125,0.75x,3.3,4,5222,124,feet,jsons/MX_seq46_0_VE125_flipped.json,246951,515056,49,Woman
44,345807,final-intermixed-textured,v2,jsons/MX_seq46_0_VE125_flipped.json,http://54.235.29.9/FacialAge/BNav_EC2/DepthDuration/MX_fS_VE_MTurk/MX_fS_HTML.html#91,91,1920,1080,1920,1080,1-12-2024,11-59-8,45,catch_stimuli/c4_BC.png,125,,,0,3127,125,feet,jsons/MX_seq46_0_VE125_flipped.json,246951,515056,49,Woman
45,345807,final-intermixed-textured,v2,jsons/MX_seq46_0_VE125_flipped.json,http://54.235.29.9/FacialAge/BNav_EC2/DepthDuration/MX_fS_VE_MTurk/MX_fS_HTML.html#91,91,1920,1080,1920,1080,1-12-2024,11-59-8,46,VR_target_stimuli/s10_1.3x_2.7_325_BC.png,125,1.3x,2.7,8,3675,126,feet,jsons/MX_seq46_0_VE125_flipped.json,246951,515056,49,Woman
46,345807,final-intermixed-textured,v2,jsons/MX_seq46_0_VE125_flipped.json,http://54.235.29.9/FacialAge/BNav_EC2/DepthDuration/MX_fS_VE_MTurk/MX_fS_HTML.html#91,91,1920,1080,1920,1080,1-12-2024,11-59-8,47,VR_target_stimuli/s36_1x_4.1_423.png,125,1x,4.1,6,3383,125,feet,jsons/MX_seq46_0_VE125_flipped.json,246951,515056,49,Woman
47,345807,final-intermixed-textured,v2,jsons/MX_seq46_0_VE125_flipped.json,http://54.235.29.9/FacialAge/BNav_EC2/DepthDuration/MX_fS_VE_MTurk/MX_fS_HTML.html#91,91,1920,1080,1920,1080,1-12-2024,11-59-8,48,VR_target_stimuli/s40_1x_1.2_319.png,125,1x,1.2,4,2938,124,feet,jsons/MX_seq46_0_VE125_flipped.json,246951,515056,49,Woman
48,345807,final-intermixed-textured,v2,jsons/MX_seq46_0_VE125_flipped.json,http://54.235.29.9/FacialAge/BNav_EC2/DepthDuration/MX_fS_VE_MTurk/MX_fS_HTML.html#91,91,1920,1080,1920,1080,1-12-2024,11-59-8,49,VR_target_stimuli/s41_0.75x_2.1_281.png,125,0.75x,2.1,3,2896,126,feet,jsons/MX_seq46_0_VE125_flipped.json,246951,515056,49,Woman
49,345807,final-intermixed-textured,v2,jsons/MX_seq46_0_VE125_flipped.json,http://54.235.29.9/FacialAge/BNav_EC2/DepthDuration/MX_fS_VE_MTurk/MX_fS_HTML.html#91,91,1920,1080,1920,1080,1-12-2024,11-59-8,50,VR_target_stimuli/s45_1.3x_3.5_377_BC.png,125,1.3x,3.5,5,3891,124,feet,jsons/MX_seq46_0_VE125_flipped.json,246951,515056,49,Woman
50,345807,final-intermixed-textured,v2,jsons/MX_seq46_0_VE125_flipped.json,http://54.235.29.9/FacialAge/BNav_EC2/DepthDuration/MX_fS_VE_MTurk/MX_fS_HTML.html#91,91,1920,1080,1920,1080,1-12-2024,11-59-8,51,VR_target_stimuli/s23_0.75x_3.65_351_BC.png,125,0.75x,3.65,4,4099,126,feet,jsons/MX_seq46_0_VE125_flipped.json,246951,515056,49,Woman
51,345807,final-intermixed-textured,v2,jsons/MX_seq46_0_VE125_flipped.json,http://54.235.29.9/FacialAge/BNav_EC2/DepthDuration/MX_fS_VE_MTurk/MX_fS_HTML.html#91,91,1920,1080,1920,1080,1-12-2024,11-59-8,52,VR_target_stimuli/s26_1x_4_433_BC.png,125,1x,4.0,12,3323,125,feet,jsons/MX_seq46_0_VE125_flipped.json,246951,515056,49,Woman
52,345807,final-intermixed-textured,v2,jsons/MX_seq46_0_VE125_flipped.json,http://54.235.29.9/FacialAge/BNav_EC2/DepthDuration/MX_fS_VE_MTurk/MX_fS_HTML.html#91,91,1920,1080,1920,1080,1-12-2024,11-59-8,53,catch_stimuli/c5_BC.png,125,,,0,3374,124,feet,jsons/MX_seq46_0_VE125_flipped.json,246951,515056,49,Woman
53,345807,final-intermixed-textured,v2,jsons/MX_seq46_0_VE125_flipped.json,http://54.235.29.9/FacialAge/BNav_EC2/DepthDuration/MX_fS_VE_MTurk/MX_fS_HTML.html#91,91,1920,1080,1920,1080,1-12-2024,11-59-8,54,VR_target_stimuli/s12_1.3x_3.1_375.png,125,1.3x,3.1,8,3159,124,feet,jsons/MX_seq46_0_VE125_flipped.json,246951,515056,49,Woman
54,345807,final-intermixed-textured,v2,jsons/MX_seq46_0_VE125_flipped.json,http://54.235.29.9/FacialAge/BNav_EC2/DepthDuration/MX_fS_VE_MTurk/MX_fS_HTML.html#91,91,1920,1080,1920,1080,1-12-2024,11-59-8,55,VR_target_stimuli/s30_1x_2.3_334_BC.png,125,1x,2.3,12,4638,125,feet,jsons/MX_seq46_0_VE125_flipped.json,246951,515056,49,Woman
55,345807,final-intermixed-textured,v2,jsons/MX_seq46_0_VE125_flipped.json,http://54.235.29.9/FacialAge/BNav_EC2/DepthDuration/MX_fS_VE_MTurk/MX_fS_HTML.html#91,91,1920,1080,1920,1080,1-12-2024,11-59-8,56,VR_target_stimuli/s16_0.75x_1_217_BC.png,125,0.75x,1.0,4,3096,127,feet,jsons/MX_seq46_0_VE125_flipped.json,246951,515056,49,Woman
56,345807,final-intermixed-textured,v2,jsons/MX_seq46_0_VE125_flipped.json,http://54.235.29.9/FacialAge/BNav_EC2/DepthDuration/MX_fS_VE_MTurk/MX_fS_HTML.html#91,91,1920,1080,1920,1080,1-12-2024,11-59-8,57,VR_target_stimuli/s17_1.3x_1.8_300_BC.png,125,1.3x,1.8,6,4522,124,feet,jsons/MX_seq46_0_VE125_flipped.json,246951,515056,49,Woman
57,345807,final-intermixed-textured,v2,jsons/MX_seq46_0_VE125_flipped.json,http://54.235.29.9/FacialAge/BNav_EC2/DepthDuration/MX_fS_VE_MTurk/MX_fS_HTML.html#91,91,1920,1080,1920,1080,1-12-2024,11-59-8,58,VR_target_stimuli/s5_1.3x_4_393.png,125,1.3x,4.0,8,10510,124,feet,jsons/MX_seq46_0_VE125_flipped.json,246951,515056,49,Woman
58,345807,final-intermixed-textured,v2,jsons/MX_seq46_0_VE125_flipped.json,http://54.235.29.9/FacialAge/BNav_EC2/DepthDuration/MX_fS_VE_MTurk/MX_fS_HTML.html#91,91,1920,1080,1920,1080,1-12-2024,11-59-8,59,VR_target_stimuli/s37_1x_3.3_563.png,125,1x,3.3,6,5984,126,feet,jsons/MX_seq46_0_VE125_flipped.json,246951,515056,49,Woman
59,345807,final-intermixed-textured,v2,jsons/MX_seq46_0_VE125_flipped.json,http://54.235.29.9/FacialAge/BNav_EC2/DepthDuration/MX_fS_VE_MTurk/MX_fS_HTML.html#91,91,1920,1080,1920,1080,1-12-2024,11-59-8,60,VR_target_stimuli/s46_0.75x_2.42_343.png,125,0.75x,2.42,0,3499,126,feet,jsons/MX_seq46_0_VE125_flipped.json,246951,515056,49,Woman
