,subjID,experimentName,versionName,sequenceName,url,selected_row,windowWidth,windowHeight,screenWidth,screenHeight,startDate,startTime,trial,stimulus,duration,scale,actual_depth,depth_estimate,trial_RT,log_sceneDuration,unitSelection,seq_filepath,experimentTime,totalTime,age,gender
0,348720,final-intermixed-textured,v2,jsons/MX_seq25_0_VE125_flipped.json,http://54.235.29.9/FacialAge/BNav_EC2/DepthDuration/MX_fS_VE_MTurk/MX_fS_HTML.html#269,269,1366,768,1366,768,1-12-2024,17-25-54,1,VR_target_stimuli/s52_0.75x_3.2_270.png,125,0.75x,3.2,0,6862,123,meters,jsons/MX_seq25_0_VE125_flipped.json,272933,520092,27,Man
1,348720,final-intermixed-textured,v2,jsons/MX_seq25_0_VE125_flipped.json,http://54.235.29.9/FacialAge/BNav_EC2/DepthDuration/MX_fS_VE_MTurk/MX_fS_HTML.html#269,269,1366,768,1366,768,1-12-2024,17-25-54,2,VR_target_stimuli/s32_1x_1.5_218.png,125,1x,1.5,5,4299,127,meters,jsons/MX_seq25_0_VE125_flipped.json,272933,520092,27,Man
2,348720,final-intermixed-textured,v2,jsons/MX_seq25_0_VE125_flipped.json,http://54.235.29.9/FacialAge/BNav_EC2/DepthDuration/MX_fS_VE_MTurk/MX_fS_HTML.html#269,269,1366,768,1366,768,1-12-2024,17-25-54,3,VR_target_stimuli/s18_1.3x_2.25_368.png,125,1.3x,2.25,5,4516,124,meters,jsons/MX_seq25_0_VE125_flipped.json,272933,520092,27,Man
3,348720,final-intermixed-textured,v2,jsons/MX_seq25_0_VE125_flipped.json,http://54.235.29.9/FacialAge/BNav_EC2/DepthDuration/MX_fS_VE_MTurk/MX_fS_HTML.html#269,269,1366,768,1366,768,1-12-2024,17-25-54,4,VR_target_stimuli/s39_1x_1_207_BC.png,125,1x,1.0,0,5064,136,meters,jsons/MX_seq25_0_VE125_flipped.json,272933,520092,27,Man
4,348720,final-intermixed-textured,v2,jsons/MX_seq25_0_VE125_flipped.json,http://54.235.29.9/FacialAge/BNav_EC2/DepthDuration/MX_fS_VE_MTurk/MX_fS_HTML.html#269,269,1366,768,1366,768,1-12-2024,17-25-54,5,VR_target_stimuli/s51_0.75x_3.64_460_BC.png,125,0.75x,3.64,0,3969,126,meters,jsons/MX_seq25_0_VE125_flipped.json,272933,520092,27,Man
5,348720,final-intermixed-textured,v2,jsons/MX_seq25_0_VE125_flipped.json,http://54.235.29.9/FacialAge/BNav_EC2/DepthDuration/MX_fS_VE_MTurk/MX_fS_HTML.html#269,269,1366,768,1366,768,1-12-2024,17-25-54,6,VR_target_stimuli/s43_1.3x_2.2_363_BC.png,125,1.3x,2.2,0,4123,127,meters,jsons/MX_seq25_0_VE125_flipped.json,272933,520092,27,Man
6,348720,final-intermixed-textured,v2,jsons/MX_seq25_0_VE125_flipped.json,http://54.235.29.9/FacialAge/BNav_EC2/DepthDuration/MX_fS_VE_MTurk/MX_fS_HTML.html#269,269,1366,768,1366,768,1-12-2024,17-25-54,7,catch_stimuli/c0_BC.png,125,,,0,3670,127,meters,jsons/MX_seq25_0_VE125_flipped.json,272933,520092,27,Man
7,348720,final-intermixed-textured,v2,jsons/MX_seq25_0_VE125_flipped.json,http://54.235.29.9/FacialAge/BNav_EC2/DepthDuration/MX_fS_VE_MTurk/MX_fS_HTML.html#269,269,1366,768,1366,768,1-12-2024,17-25-54,8,VR_target_stimuli/s24_1.3x_3.3_352_BC.png,125,1.3x,3.3,0,3803,129,meters,jsons/MX_seq25_0_VE125_flipped.json,272933,520092,27,Man
8,348720,final-intermixed-textured,v2,jsons/MX_seq25_0_VE125_flipped.json,http://54.235.29.9/FacialAge/BNav_EC2/DepthDuration/MX_fS_VE_MTurk/MX_fS_HTML.html#269,269,1366,768,1366,768,1-12-2024,17-25-54,9,VR_target_stimuli/s10_1x_2.7_324.png,125,1x,2.7,0,3624,138,meters,jsons/MX_seq25_0_VE125_flipped.json,272933,520092,27,Man
9,348720,final-intermixed-textured,v2,jsons/MX_seq25_0_VE125_flipped.json,http://54.235.29.9/FacialAge/BNav_EC2/DepthDuration/MX_fS_VE_MTurk/MX_fS_HTML.html#269,269,1366,768,1366,768,1-12-2024,17-25-54,10,VR_target_stimuli/s36_0.75x_4.1_407.png,125,0.75x,4.1,5,4317,119,meters,jsons/MX_seq25_0_VE125_flipped.json,272933,520092,27,Man
10,348720,final-intermixed-textured,v2,jsons/MX_seq25_0_VE125_flipped.json,http://54.235.29.9/FacialAge/BNav_EC2/DepthDuration/MX_fS_VE_MTurk/MX_fS_HTML.html#269,269,1366,768,1366,768,1-12-2024,17-25-54,11,VR_target_stimuli/s40_1x_1.2_319_BC.png,125,1x,1.2,0,3761,119,meters,jsons/MX_seq25_0_VE125_flipped.json,272933,520092,27,Man
11,348720,final-intermixed-textured,v2,jsons/MX_seq25_0_VE125_flipped.json,http://54.235.29.9/FacialAge/BNav_EC2/DepthDuration/MX_fS_VE_MTurk/MX_fS_HTML.html#269,269,1366,768,1366,768,1-12-2024,17-25-54,12,VR_target_stimuli/s41_1.3x_2.1_294.png,125,1.3x,2.1,5,3636,127,meters,jsons/MX_seq25_0_VE125_flipped.json,272933,520092,27,Man
12,348720,final-intermixed-textured,v2,jsons/MX_seq25_0_VE125_flipped.json,http://54.235.29.9/FacialAge/BNav_EC2/DepthDuration/MX_fS_VE_MTurk/MX_fS_HTML.html#269,269,1366,768,1366,768,1-12-2024,17-25-54,13,VR_target_stimuli/s45_0.75x_3.5_362_BC.png,125,0.75x,3.5,5,4373,124,meters,jsons/MX_seq25_0_VE125_flipped.json,272933,520092,27,Man
13,348720,final-intermixed-textured,v2,jsons/MX_seq25_0_VE125_flipped.json,http://54.235.29.9/FacialAge/BNav_EC2/DepthDuration/MX_fS_VE_MTurk/MX_fS_HTML.html#269,269,1366,768,1366,768,1-12-2024,17-25-54,14,VR_target_stimuli/s23_1.3x_3.65_354_BC.png,125,1.3x,3.65,5,3504,125,meters,jsons/MX_seq25_0_VE125_flipped.json,272933,520092,27,Man
14,348720,final-intermixed-textured,v2,jsons/MX_seq25_0_VE125_flipped.json,http://54.235.29.9/FacialAge/BNav_EC2/DepthDuration/MX_fS_VE_MTurk/MX_fS_HTML.html#269,269,1366,768,1366,768,1-12-2024,17-25-54,15,VR_target_stimuli/s26_1x_4_433_BC.png,125,1x,4.0,0,4039,117,meters,jsons/MX_seq25_0_VE125_flipped.json,272933,520092,27,Man
15,348720,final-intermixed-textured,v2,jsons/MX_seq25_0_VE125_flipped.json,http://54.235.29.9/FacialAge/BNav_EC2/DepthDuration/MX_fS_VE_MTurk/MX_fS_HTML.html#269,269,1366,768,1366,768,1-12-2024,17-25-54,16,VR_target_stimuli/s12_0.75x_3.1_364.png,125,0.75x,3.1,5,3712,120,meters,jsons/MX_seq25_0_VE125_flipped.json,272933,520092,27,Man
16,348720,final-intermixed-textured,v2,jsons/MX_seq25_0_VE125_flipped.json,http://54.235.29.9/FacialAge/BNav_EC2/DepthDuration/MX_fS_VE_MTurk/MX_fS_HTML.html#269,269,1366,768,1366,768,1-12-2024,17-25-54,17,catch_stimuli/c1_BC.png,125,,,0,4465,119,meters,jsons/MX_seq25_0_VE125_flipped.json,272933,520092,27,Man
17,348720,final-intermixed-textured,v2,jsons/MX_seq25_0_VE125_flipped.json,http://54.235.29.9/FacialAge/BNav_EC2/DepthDuration/MX_fS_VE_MTurk/MX_fS_HTML.html#269,269,1366,768,1366,768,1-12-2024,17-25-54,18,VR_target_stimuli/s30_0.75x_2.3_332_BC.png,125,0.75x,2.3,5,4561,121,meters,jsons/MX_seq25_0_VE125_flipped.json,272933,520092,27,Man
18,348720,final-intermixed-textured,v2,jsons/MX_seq25_0_VE125_flipped.json,http://54.235.29.9/FacialAge/BNav_EC2/DepthDuration/MX_fS_VE_MTurk/MX_fS_HTML.html#269,269,1366,768,1366,768,1-12-2024,17-25-54,19,VR_target_stimuli/s16_1.3x_1_223.png,125,1.3x,1.0,0,3380,125,meters,jsons/MX_seq25_0_VE125_flipped.json,272933,520092,27,Man
19,348720,final-intermixed-textured,v2,jsons/MX_seq25_0_VE125_flipped.json,http://54.235.29.9/FacialAge/BNav_EC2/DepthDuration/MX_fS_VE_MTurk/MX_fS_HTML.html#269,269,1366,768,1366,768,1-12-2024,17-25-54,20,VR_target_stimuli/s17_1x_1.8_291.png,125,1x,1.8,5,3592,121,meters,jsons/MX_seq25_0_VE125_flipped.json,272933,520092,27,Man
20,348720,final-intermixed-textured,v2,jsons/MX_seq25_0_VE125_flipped.json,http://54.235.29.9/FacialAge/BNav_EC2/DepthDuration/MX_fS_VE_MTurk/MX_fS_HTML.html#269,269,1366,768,1366,768,1-12-2024,17-25-54,21,VR_target_stimuli/s5_1.3x_4_393_BC.png,125,1.3x,4.0,5,3564,124,meters,jsons/MX_seq25_0_VE125_flipped.json,272933,520092,27,Man
21,348720,final-intermixed-textured,v2,jsons/MX_seq25_0_VE125_flipped.json,http://54.235.29.9/FacialAge/BNav_EC2/DepthDuration/MX_fS_VE_MTurk/MX_fS_HTML.html#269,269,1366,768,1366,768,1-12-2024,17-25-54,22,VR_target_stimuli/s37_0.75x_3.3_567.png,125,0.75x,3.3,5,4242,118,meters,jsons/MX_seq25_0_VE125_flipped.json,272933,520092,27,Man
22,348720,final-intermixed-textured,v2,jsons/MX_seq25_0_VE125_flipped.json,http://54.235.29.9/FacialAge/BNav_EC2/DepthDuration/MX_fS_VE_MTurk/MX_fS_HTML.html#269,269,1366,768,1366,768,1-12-2024,17-25-54,23,VR_target_stimuli/s46_1x_2.42_348_BC.png,125,1x,2.42,5,3772,122,meters,jsons/MX_seq25_0_VE125_flipped.json,272933,520092,27,Man
23,348720,final-intermixed-textured,v2,jsons/MX_seq25_0_VE125_flipped.json,http://54.235.29.9/FacialAge/BNav_EC2/DepthDuration/MX_fS_VE_MTurk/MX_fS_HTML.html#269,269,1366,768,1366,768,1-12-2024,17-25-54,24,VR_target_stimuli/s22_0.75x_4.29_348_BC.png,125,0.75x,4.29,5,3621,123,meters,jsons/MX_seq25_0_VE125_flipped.json,272933,520092,27,Man
24,348720,final-intermixed-textured,v2,jsons/MX_seq25_0_VE125_flipped.json,http://54.235.29.9/FacialAge/BNav_EC2/DepthDuration/MX_fS_VE_MTurk/MX_fS_HTML.html#269,269,1366,768,1366,768,1-12-2024,17-25-54,25,VR_target_stimuli/s42_1.3x_3.2_305.png,125,1.3x,3.2,0,3279,126,meters,jsons/MX_seq25_0_VE125_flipped.json,272933,520092,27,Man
25,348720,final-intermixed-textured,v2,jsons/MX_seq25_0_VE125_flipped.json,http://54.235.29.9/FacialAge/BNav_EC2/DepthDuration/MX_fS_VE_MTurk/MX_fS_HTML.html#269,269,1366,768,1366,768,1-12-2024,17-25-54,26,catch_stimuli/c2_BC.png,125,,,5,3584,122,meters,jsons/MX_seq25_0_VE125_flipped.json,272933,520092,27,Man
26,348720,final-intermixed-textured,v2,jsons/MX_seq25_0_VE125_flipped.json,http://54.235.29.9/FacialAge/BNav_EC2/DepthDuration/MX_fS_VE_MTurk/MX_fS_HTML.html#269,269,1366,768,1366,768,1-12-2024,17-25-54,27,VR_target_stimuli/s25_1x_1.4_290.png,125,1x,1.4,5,3902,129,meters,jsons/MX_seq25_0_VE125_flipped.json,272933,520092,27,Man
27,348720,final-intermixed-textured,v2,jsons/MX_seq25_0_VE125_flipped.json,http://54.235.29.9/FacialAge/BNav_EC2/DepthDuration/MX_fS_VE_MTurk/MX_fS_HTML.html#269,269,1366,768,1366,768,1-12-2024,17-25-54,28,VR_target_stimuli/s50_1x_4.53_518_BC.png,125,1x,4.53,5,4798,112,meters,jsons/MX_seq25_0_VE125_flipped.json,272933,520092,27,Man
28,348720,final-intermixed-textured,v2,jsons/MX_seq25_0_VE125_flipped.json,http://54.235.29.9/FacialAge/BNav_EC2/DepthDuration/MX_fS_VE_MTurk/MX_fS_HTML.html#269,269,1366,768,1366,768,1-12-2024,17-25-54,29,VR_target_stimuli/s53_0.75x_1.6_403_BC.png,125,0.75x,1.6,0,3726,120,meters,jsons/MX_seq25_0_VE125_flipped.json,272933,520092,27,Man
29,348720,final-intermixed-textured,v2,jsons/MX_seq25_0_VE125_flipped.json,http://54.235.29.9/FacialAge/BNav_EC2/DepthDuration/MX_fS_VE_MTurk/MX_fS_HTML.html#269,269,1366,768,1366,768,1-12-2024,17-25-54,30,VR_target_stimuli/s38_1.3x_3.55_358_BC.png,125,1.3x,3.55,5,3554,114,meters,jsons/MX_seq25_0_VE125_flipped.json,272933,520092,27,Man
30,348720,final-intermixed-textured,v2,jsons/MX_seq25_0_VE125_flipped.json,http://54.235.29.9/FacialAge/BNav_EC2/DepthDuration/MX_fS_VE_MTurk/MX_fS_HTML.html#269,269,1366,768,1366,768,1-12-2024,17-25-54,31,VR_target_stimuli/s9_1x_1.2_263.png,125,1x,1.2,5,3324,133,meters,jsons/MX_seq25_0_VE125_flipped.json,272933,520092,27,Man
31,348720,final-intermixed-textured,v2,jsons/MX_seq25_0_VE125_flipped.json,http://54.235.29.9/FacialAge/BNav_EC2/DepthDuration/MX_fS_VE_MTurk/MX_fS_HTML.html#269,269,1366,768,1366,768,1-12-2024,17-25-54,32,VR_target_stimuli/s44_1.3x_4.4_325.png,125,1.3x,4.4,5,3473,131,meters,jsons/MX_seq25_0_VE125_flipped.json,272933,520092,27,Man
32,348720,final-intermixed-textured,v2,jsons/MX_seq25_0_VE125_flipped.json,http://54.235.29.9/FacialAge/BNav_EC2/DepthDuration/MX_fS_VE_MTurk/MX_fS_HTML.html#269,269,1366,768,1366,768,1-12-2024,17-25-54,33,VR_target_stimuli/s3_0.75x_5_381.png,125,0.75x,5.0,0,3441,119,meters,jsons/MX_seq25_0_VE125_flipped.json,272933,520092,27,Man
33,348720,final-intermixed-textured,v2,jsons/MX_seq25_0_VE125_flipped.json,http://54.235.29.9/FacialAge/BNav_EC2/DepthDuration/MX_fS_VE_MTurk/MX_fS_HTML.html#269,269,1366,768,1366,768,1-12-2024,17-25-54,34,catch_stimuli/c3_BC.png,125,,,5,3445,118,meters,jsons/MX_seq25_0_VE125_flipped.json,272933,520092,27,Man
34,348720,final-intermixed-textured,v2,jsons/MX_seq25_0_VE125_flipped.json,http://54.235.29.9/FacialAge/BNav_EC2/DepthDuration/MX_fS_VE_MTurk/MX_fS_HTML.html#269,269,1366,768,1366,768,1-12-2024,17-25-54,35,VR_target_stimuli/s1_1.3x_1.7_261.png,125,1.3x,1.7,0,3243,124,meters,jsons/MX_seq25_0_VE125_flipped.json,272933,520092,27,Man
35,348720,final-intermixed-textured,v2,jsons/MX_seq25_0_VE125_flipped.json,http://54.235.29.9/FacialAge/BNav_EC2/DepthDuration/MX_fS_VE_MTurk/MX_fS_HTML.html#269,269,1366,768,1366,768,1-12-2024,17-25-54,36,VR_target_stimuli/s11_1x_5_361.png,125,1x,5.0,5,3418,124,meters,jsons/MX_seq25_0_VE125_flipped.json,272933,520092,27,Man
36,348720,final-intermixed-textured,v2,jsons/MX_seq25_0_VE125_flipped.json,http://54.235.29.9/FacialAge/BNav_EC2/DepthDuration/MX_fS_VE_MTurk/MX_fS_HTML.html#269,269,1366,768,1366,768,1-12-2024,17-25-54,37,VR_target_stimuli/s2_0.75x_2.7_384_BC.png,125,0.75x,2.7,0,3658,128,meters,jsons/MX_seq25_0_VE125_flipped.json,272933,520092,27,Man
37,348720,final-intermixed-textured,v2,jsons/MX_seq25_0_VE125_flipped.json,http://54.235.29.9/FacialAge/BNav_EC2/DepthDuration/MX_fS_VE_MTurk/MX_fS_HTML.html#269,269,1366,768,1366,768,1-12-2024,17-25-54,38,VR_target_stimuli/s6_0.75x_2.1_290.png,125,0.75x,2.1,5,4095,117,meters,jsons/MX_seq25_0_VE125_flipped.json,272933,520092,27,Man
38,348720,final-intermixed-textured,v2,jsons/MX_seq25_0_VE125_flipped.json,http://54.235.29.9/FacialAge/BNav_EC2/DepthDuration/MX_fS_VE_MTurk/MX_fS_HTML.html#269,269,1366,768,1366,768,1-12-2024,17-25-54,39,VR_target_stimuli/s0_1.3x_2.6_356_BC.png,125,1.3x,2.6,0,3370,113,meters,jsons/MX_seq25_0_VE125_flipped.json,272933,520092,27,Man
39,348720,final-intermixed-textured,v2,jsons/MX_seq25_0_VE125_flipped.json,http://54.235.29.9/FacialAge/BNav_EC2/DepthDuration/MX_fS_VE_MTurk/MX_fS_HTML.html#269,269,1366,768,1366,768,1-12-2024,17-25-54,40,VR_target_stimuli/s34_1x_2.8_283_BC.png,125,1x,2.8,5,3695,121,meters,jsons/MX_seq25_0_VE125_flipped.json,272933,520092,27,Man
40,348720,final-intermixed-textured,v2,jsons/MX_seq25_0_VE125_flipped.json,http://54.235.29.9/FacialAge/BNav_EC2/DepthDuration/MX_fS_VE_MTurk/MX_fS_HTML.html#269,269,1366,768,1366,768,1-12-2024,17-25-54,41,VR_target_stimuli/s13_1.3x_2.4_313_BC.png,125,1.3x,2.4,5,3620,132,meters,jsons/MX_seq25_0_VE125_flipped.json,272933,520092,27,Man
41,348720,final-intermixed-textured,v2,jsons/MX_seq25_0_VE125_flipped.json,http://54.235.29.9/FacialAge/BNav_EC2/DepthDuration/MX_fS_VE_MTurk/MX_fS_HTML.html#269,269,1366,768,1366,768,1-12-2024,17-25-54,42,VR_target_stimuli/s14_0.75x_3.83_355_BC.png,125,0.75x,3.83,0,3426,120,meters,jsons/MX_seq25_0_VE125_flipped.json,272933,520092,27,Man
42,348720,final-intermixed-textured,v2,jsons/MX_seq25_0_VE125_flipped.json,http://54.235.29.9/FacialAge/BNav_EC2/DepthDuration/MX_fS_VE_MTurk/MX_fS_HTML.html#269,269,1366,768,1366,768,1-12-2024,17-25-54,43,VR_target_stimuli/s47_1x_3.45_370.png,125,1x,3.45,5,3836,125,meters,jsons/MX_seq25_0_VE125_flipped.json,272933,520092,27,Man
43,348720,final-intermixed-textured,v2,jsons/MX_seq25_0_VE125_flipped.json,http://54.235.29.9/FacialAge/BNav_EC2/DepthDuration/MX_fS_VE_MTurk/MX_fS_HTML.html#269,269,1366,768,1366,768,1-12-2024,17-25-54,44,VR_target_stimuli/s29_0.75x_1.3_246.png,125,0.75x,1.3,5,3741,129,meters,jsons/MX_seq25_0_VE125_flipped.json,272933,520092,27,Man
44,348720,final-intermixed-textured,v2,jsons/MX_seq25_0_VE125_flipped.json,http://54.235.29.9/FacialAge/BNav_EC2/DepthDuration/MX_fS_VE_MTurk/MX_fS_HTML.html#269,269,1366,768,1366,768,1-12-2024,17-25-54,45,catch_stimuli/c4_BC.png,125,,,0,3297,119,meters,jsons/MX_seq25_0_VE125_flipped.json,272933,520092,27,Man
45,348720,final-intermixed-textured,v2,jsons/MX_seq25_0_VE125_flipped.json,http://54.235.29.9/FacialAge/BNav_EC2/DepthDuration/MX_fS_VE_MTurk/MX_fS_HTML.html#269,269,1366,768,1366,768,1-12-2024,17-25-54,46,VR_target_stimuli/s28_1.3x_3.2_365.png,125,1.3x,3.2,4,4089,117,meters,jsons/MX_seq25_0_VE125_flipped.json,272933,520092,27,Man
46,348720,final-intermixed-textured,v2,jsons/MX_seq25_0_VE125_flipped.json,http://54.235.29.9/FacialAge/BNav_EC2/DepthDuration/MX_fS_VE_MTurk/MX_fS_HTML.html#269,269,1366,768,1366,768,1-12-2024,17-25-54,47,VR_target_stimuli/s48_1x_2.55_256_BC.png,125,1x,2.55,6,4275,114,meters,jsons/MX_seq25_0_VE125_flipped.json,272933,520092,27,Man
47,348720,final-intermixed-textured,v2,jsons/MX_seq25_0_VE125_flipped.json,http://54.235.29.9/FacialAge/BNav_EC2/DepthDuration/MX_fS_VE_MTurk/MX_fS_HTML.html#269,269,1366,768,1366,768,1-12-2024,17-25-54,48,VR_target_stimuli/s19_1x_1.21_263.png,125,1x,1.21,0,8390,120,meters,jsons/MX_seq25_0_VE125_flipped.json,272933,520092,27,Man
48,348720,final-intermixed-textured,v2,jsons/MX_seq25_0_VE125_flipped.json,http://54.235.29.9/FacialAge/BNav_EC2/DepthDuration/MX_fS_VE_MTurk/MX_fS_HTML.html#269,269,1366,768,1366,768,1-12-2024,17-25-54,49,VR_target_stimuli/s21_0.75x_4.22_374_BC.png,125,0.75x,4.22,5,4452,123,meters,jsons/MX_seq25_0_VE125_flipped.json,272933,520092,27,Man
49,348720,final-intermixed-textured,v2,jsons/MX_seq25_0_VE125_flipped.json,http://54.235.29.9/FacialAge/BNav_EC2/DepthDuration/MX_fS_VE_MTurk/MX_fS_HTML.html#269,269,1366,768,1366,768,1-12-2024,17-25-54,50,VR_target_stimuli/s8_1.3x_3.1_345_BC.png,125,1.3x,3.1,5,3884,130,meters,jsons/MX_seq25_0_VE125_flipped.json,272933,520092,27,Man
50,348720,final-intermixed-textured,v2,jsons/MX_seq25_0_VE125_flipped.json,http://54.235.29.9/FacialAge/BNav_EC2/DepthDuration/MX_fS_VE_MTurk/MX_fS_HTML.html#269,269,1366,768,1366,768,1-12-2024,17-25-54,51,VR_target_stimuli/s27_0.75x_1.76_243.png,125,0.75x,1.76,0,3702,122,meters,jsons/MX_seq25_0_VE125_flipped.json,272933,520092,27,Man
51,348720,final-intermixed-textured,v2,jsons/MX_seq25_0_VE125_flipped.json,http://54.235.29.9/FacialAge/BNav_EC2/DepthDuration/MX_fS_VE_MTurk/MX_fS_HTML.html#269,269,1366,768,1366,768,1-12-2024,17-25-54,52,VR_target_stimuli/s15_1x_4.2_390_BC.png,125,1x,4.2,5,3611,119,meters,jsons/MX_seq25_0_VE125_flipped.json,272933,520092,27,Man
52,348720,final-intermixed-textured,v2,jsons/MX_seq25_0_VE125_flipped.json,http://54.235.29.9/FacialAge/BNav_EC2/DepthDuration/MX_fS_VE_MTurk/MX_fS_HTML.html#269,269,1366,768,1366,768,1-12-2024,17-25-54,53,catch_stimuli/c5_BC.png,125,,,5,4533,125,meters,jsons/MX_seq25_0_VE125_flipped.json,272933,520092,27,Man
53,348720,final-intermixed-textured,v2,jsons/MX_seq25_0_VE125_flipped.json,http://54.235.29.9/FacialAge/BNav_EC2/DepthDuration/MX_fS_VE_MTurk/MX_fS_HTML.html#269,269,1366,768,1366,768,1-12-2024,17-25-54,54,VR_target_stimuli/s4_1.3x_1.4_328.png,125,1.3x,1.4,5,3732,113,meters,jsons/MX_seq25_0_VE125_flipped.json,272933,520092,27,Man
54,348720,final-intermixed-textured,v2,jsons/MX_seq25_0_VE125_flipped.json,http://54.235.29.9/FacialAge/BNav_EC2/DepthDuration/MX_fS_VE_MTurk/MX_fS_HTML.html#269,269,1366,768,1366,768,1-12-2024,17-25-54,55,VR_target_stimuli/s35_1x_2_331_BC.png,125,1x,2.0,0,3485,132,meters,jsons/MX_seq25_0_VE125_flipped.json,272933,520092,27,Man
55,348720,final-intermixed-textured,v2,jsons/MX_seq25_0_VE125_flipped.json,http://54.235.29.9/FacialAge/BNav_EC2/DepthDuration/MX_fS_VE_MTurk/MX_fS_HTML.html#269,269,1366,768,1366,768,1-12-2024,17-25-54,56,VR_target_stimuli/s49_0.75x_4.67_328.png,125,0.75x,4.67,5,4364,138,meters,jsons/MX_seq25_0_VE125_flipped.json,272933,520092,27,Man
56,348720,final-intermixed-textured,v2,jsons/MX_seq25_0_VE125_flipped.json,http://54.235.29.9/FacialAge/BNav_EC2/DepthDuration/MX_fS_VE_MTurk/MX_fS_HTML.html#269,269,1366,768,1366,768,1-12-2024,17-25-54,57,VR_target_stimuli/s7_1.3x_1.5_256.png,125,1.3x,1.5,5,3654,134,meters,jsons/MX_seq25_0_VE125_flipped.json,272933,520092,27,Man
57,348720,final-intermixed-textured,v2,jsons/MX_seq25_0_VE125_flipped.json,http://54.235.29.9/FacialAge/BNav_EC2/DepthDuration/MX_fS_VE_MTurk/MX_fS_HTML.html#269,269,1366,768,1366,768,1-12-2024,17-25-54,58,VR_target_stimuli/s20_1.3x_4.99_412_BC.png,125,1.3x,4.99,0,3267,128,meters,jsons/MX_seq25_0_VE125_flipped.json,272933,520092,27,Man
58,348720,final-intermixed-textured,v2,jsons/MX_seq25_0_VE125_flipped.json,http://54.235.29.9/FacialAge/BNav_EC2/DepthDuration/MX_fS_VE_MTurk/MX_fS_HTML.html#269,269,1366,768,1366,768,1-12-2024,17-25-54,59,VR_target_stimuli/s31_1x_4.96_333.png,125,1x,4.96,5,4272,130,meters,jsons/MX_seq25_0_VE125_flipped.json,272933,520092,27,Man
59,348720,final-intermixed-textured,v2,jsons/MX_seq25_0_VE125_flipped.json,http://54.235.29.9/FacialAge/BNav_EC2/DepthDuration/MX_fS_VE_MTurk/MX_fS_HTML.html#269,269,1366,768,1366,768,1-12-2024,17-25-54,60,VR_target_stimuli/s33_0.75x_3.1_361_BC.png,125,0.75x,3.1,2,8230,139,meters,jsons/MX_seq25_0_VE125_flipped.json,272933,520092,27,Man
