,subjID,experimentName,versionName,sequenceName,url,selected_row,windowWidth,windowHeight,screenWidth,screenHeight,startDate,startTime,trial,stimulus,duration,scale,actual_depth,depth_estimate,trial_RT,log_sceneDuration,unitSelection,seq_filepath,experimentTime,totalTime,age,gender
0,383364,final-intermixed-textured,v2,jsons/MX_seq28_1_VE125_flipped.json,http://54.235.29.9/FacialAge/BNav_EC2/DepthDuration/MX_fS_VE_MTurk/MX_fS_HTML.html#191,191,1366,641,1366,768,1-12-2024,15-57-27,1,VR_target_stimuli/s39_1.3x_1_208_BC.png,125,1.3x,1.0,2,5480,131,meters,jsons/MX_seq28_1_VE125_flipped.json,210259,517379,34,Woman
1,383364,final-intermixed-textured,v2,jsons/MX_seq28_1_VE125_flipped.json,http://54.235.29.9/FacialAge/BNav_EC2/DepthDuration/MX_fS_VE_MTurk/MX_fS_HTML.html#191,191,1366,641,1366,768,1-12-2024,15-57-27,2,VR_target_stimuli/s51_0.75x_3.64_460_BC.png,125,0.75x,3.64,3,3678,127,meters,jsons/MX_seq28_1_VE125_flipped.json,210259,517379,34,Woman
2,383364,final-intermixed-textured,v2,jsons/MX_seq28_1_VE125_flipped.json,http://54.235.29.9/FacialAge/BNav_EC2/DepthDuration/MX_fS_VE_MTurk/MX_fS_HTML.html#191,191,1366,641,1366,768,1-12-2024,15-57-27,3,VR_target_stimuli/s43_1x_2.2_354.png,125,1x,2.2,0,3011,128,meters,jsons/MX_seq28_1_VE125_flipped.json,210259,517379,34,Woman
3,383364,final-intermixed-textured,v2,jsons/MX_seq28_1_VE125_flipped.json,http://54.235.29.9/FacialAge/BNav_EC2/DepthDuration/MX_fS_VE_MTurk/MX_fS_HTML.html#191,191,1366,641,1366,768,1-12-2024,15-57-27,4,VR_target_stimuli/s24_0.75x_3.3_344.png,125,0.75x,3.3,3,4481,127,meters,jsons/MX_seq28_1_VE125_flipped.json,210259,517379,34,Woman
4,383364,final-intermixed-textured,v2,jsons/MX_seq28_1_VE125_flipped.json,http://54.235.29.9/FacialAge/BNav_EC2/DepthDuration/MX_fS_VE_MTurk/MX_fS_HTML.html#191,191,1366,641,1366,768,1-12-2024,15-57-27,5,VR_target_stimuli/s10_1.3x_2.7_325.png,125,1.3x,2.7,4,3751,121,meters,jsons/MX_seq28_1_VE125_flipped.json,210259,517379,34,Woman
5,383364,final-intermixed-textured,v2,jsons/MX_seq28_1_VE125_flipped.json,http://54.235.29.9/FacialAge/BNav_EC2/DepthDuration/MX_fS_VE_MTurk/MX_fS_HTML.html#191,191,1366,641,1366,768,1-12-2024,15-57-27,6,VR_target_stimuli/s36_1x_4.1_423_BC.png,125,1x,4.1,6,5609,127,meters,jsons/MX_seq28_1_VE125_flipped.json,210259,517379,34,Woman
6,383364,final-intermixed-textured,v2,jsons/MX_seq28_1_VE125_flipped.json,http://54.235.29.9/FacialAge/BNav_EC2/DepthDuration/MX_fS_VE_MTurk/MX_fS_HTML.html#191,191,1366,641,1366,768,1-12-2024,15-57-27,7,catch_stimuli/c0_BC.png,125,,,0,3465,126,meters,jsons/MX_seq28_1_VE125_flipped.json,210259,517379,34,Woman
7,383364,final-intermixed-textured,v2,jsons/MX_seq28_1_VE125_flipped.json,http://54.235.29.9/FacialAge/BNav_EC2/DepthDuration/MX_fS_VE_MTurk/MX_fS_HTML.html#191,191,1366,641,1366,768,1-12-2024,15-57-27,8,VR_target_stimuli/s40_1x_1.2_319_BC.png,125,1x,1.2,1,4696,117,meters,jsons/MX_seq28_1_VE125_flipped.json,210259,517379,34,Woman
8,383364,final-intermixed-textured,v2,jsons/MX_seq28_1_VE125_flipped.json,http://54.235.29.9/FacialAge/BNav_EC2/DepthDuration/MX_fS_VE_MTurk/MX_fS_HTML.html#191,191,1366,641,1366,768,1-12-2024,15-57-27,9,VR_target_stimuli/s41_0.75x_2.1_281_BC.png,125,0.75x,2.1,3,3834,127,meters,jsons/MX_seq28_1_VE125_flipped.json,210259,517379,34,Woman
9,383364,final-intermixed-textured,v2,jsons/MX_seq28_1_VE125_flipped.json,http://54.235.29.9/FacialAge/BNav_EC2/DepthDuration/MX_fS_VE_MTurk/MX_fS_HTML.html#191,191,1366,641,1366,768,1-12-2024,15-57-27,10,VR_target_stimuli/s45_1.3x_3.5_377_BC.png,125,1.3x,3.5,6,4793,126,meters,jsons/MX_seq28_1_VE125_flipped.json,210259,517379,34,Woman
10,383364,final-intermixed-textured,v2,jsons/MX_seq28_1_VE125_flipped.json,http://54.235.29.9/FacialAge/BNav_EC2/DepthDuration/MX_fS_VE_MTurk/MX_fS_HTML.html#191,191,1366,641,1366,768,1-12-2024,15-57-27,11,VR_target_stimuli/s23_0.75x_3.65_351.png,125,0.75x,3.65,5,5087,126,meters,jsons/MX_seq28_1_VE125_flipped.json,210259,517379,34,Woman
11,383364,final-intermixed-textured,v2,jsons/MX_seq28_1_VE125_flipped.json,http://54.235.29.9/FacialAge/BNav_EC2/DepthDuration/MX_fS_VE_MTurk/MX_fS_HTML.html#191,191,1366,641,1366,768,1-12-2024,15-57-27,12,VR_target_stimuli/s26_1x_4_433.png,125,1x,4.0,6,2990,112,meters,jsons/MX_seq28_1_VE125_flipped.json,210259,517379,34,Woman
12,383364,final-intermixed-textured,v2,jsons/MX_seq28_1_VE125_flipped.json,http://54.235.29.9/FacialAge/BNav_EC2/DepthDuration/MX_fS_VE_MTurk/MX_fS_HTML.html#191,191,1366,641,1366,768,1-12-2024,15-57-27,13,VR_target_stimuli/s12_1.3x_3.1_375.png,125,1.3x,3.1,6,2930,126,meters,jsons/MX_seq28_1_VE125_flipped.json,210259,517379,34,Woman
13,383364,final-intermixed-textured,v2,jsons/MX_seq28_1_VE125_flipped.json,http://54.235.29.9/FacialAge/BNav_EC2/DepthDuration/MX_fS_VE_MTurk/MX_fS_HTML.html#191,191,1366,641,1366,768,1-12-2024,15-57-27,14,VR_target_stimuli/s30_1x_2.3_334.png,125,1x,2.3,6,2467,125,meters,jsons/MX_seq28_1_VE125_flipped.json,210259,517379,34,Woman
14,383364,final-intermixed-textured,v2,jsons/MX_seq28_1_VE125_flipped.json,http://54.235.29.9/FacialAge/BNav_EC2/DepthDuration/MX_fS_VE_MTurk/MX_fS_HTML.html#191,191,1366,641,1366,768,1-12-2024,15-57-27,15,VR_target_stimuli/s16_0.75x_1_217.png,125,0.75x,1.0,3,3428,128,meters,jsons/MX_seq28_1_VE125_flipped.json,210259,517379,34,Woman
15,383364,final-intermixed-textured,v2,jsons/MX_seq28_1_VE125_flipped.json,http://54.235.29.9/FacialAge/BNav_EC2/DepthDuration/MX_fS_VE_MTurk/MX_fS_HTML.html#191,191,1366,641,1366,768,1-12-2024,15-57-27,16,VR_target_stimuli/s17_1.3x_1.8_300.png,125,1.3x,1.8,4,3757,127,meters,jsons/MX_seq28_1_VE125_flipped.json,210259,517379,34,Woman
16,383364,final-intermixed-textured,v2,jsons/MX_seq28_1_VE125_flipped.json,http://54.235.29.9/FacialAge/BNav_EC2/DepthDuration/MX_fS_VE_MTurk/MX_fS_HTML.html#191,191,1366,641,1366,768,1-12-2024,15-57-27,17,catch_stimuli/c1_BC.png,125,,,0,3441,126,meters,jsons/MX_seq28_1_VE125_flipped.json,210259,517379,34,Woman
17,383364,final-intermixed-textured,v2,jsons/MX_seq28_1_VE125_flipped.json,http://54.235.29.9/FacialAge/BNav_EC2/DepthDuration/MX_fS_VE_MTurk/MX_fS_HTML.html#191,191,1366,641,1366,768,1-12-2024,15-57-27,18,VR_target_stimuli/s5_1.3x_4_393_BC.png,125,1.3x,4.0,6,2561,126,meters,jsons/MX_seq28_1_VE125_flipped.json,210259,517379,34,Woman
18,383364,final-intermixed-textured,v2,jsons/MX_seq28_1_VE125_flipped.json,http://54.235.29.9/FacialAge/BNav_EC2/DepthDuration/MX_fS_VE_MTurk/MX_fS_HTML.html#191,191,1366,641,1366,768,1-12-2024,15-57-27,19,VR_target_stimuli/s37_1x_3.3_563_BC.png,125,1x,3.3,5,2967,121,meters,jsons/MX_seq28_1_VE125_flipped.json,210259,517379,34,Woman
19,383364,final-intermixed-textured,v2,jsons/MX_seq28_1_VE125_flipped.json,http://54.235.29.9/FacialAge/BNav_EC2/DepthDuration/MX_fS_VE_MTurk/MX_fS_HTML.html#191,191,1366,641,1366,768,1-12-2024,15-57-27,20,VR_target_stimuli/s46_0.75x_2.42_343_BC.png,125,0.75x,2.42,6,2503,125,meters,jsons/MX_seq28_1_VE125_flipped.json,210259,517379,34,Woman
20,383364,final-intermixed-textured,v2,jsons/MX_seq28_1_VE125_flipped.json,http://54.235.29.9/FacialAge/BNav_EC2/DepthDuration/MX_fS_VE_MTurk/MX_fS_HTML.html#191,191,1366,641,1366,768,1-12-2024,15-57-27,21,VR_target_stimuli/s22_1x_4.29_354_BC.png,125,1x,4.29,7,2785,112,meters,jsons/MX_seq28_1_VE125_flipped.json,210259,517379,34,Woman
21,383364,final-intermixed-textured,v2,jsons/MX_seq28_1_VE125_flipped.json,http://54.235.29.9/FacialAge/BNav_EC2/DepthDuration/MX_fS_VE_MTurk/MX_fS_HTML.html#191,191,1366,641,1366,768,1-12-2024,15-57-27,22,VR_target_stimuli/s42_1.3x_3.2_305.png,125,1.3x,3.2,4,2767,113,meters,jsons/MX_seq28_1_VE125_flipped.json,210259,517379,34,Woman
22,383364,final-intermixed-textured,v2,jsons/MX_seq28_1_VE125_flipped.json,http://54.235.29.9/FacialAge/BNav_EC2/DepthDuration/MX_fS_VE_MTurk/MX_fS_HTML.html#191,191,1366,641,1366,768,1-12-2024,15-57-27,23,VR_target_stimuli/s25_0.75x_1.4_281.png,125,0.75x,1.4,2,4039,126,meters,jsons/MX_seq28_1_VE125_flipped.json,210259,517379,34,Woman
23,383364,final-intermixed-textured,v2,jsons/MX_seq28_1_VE125_flipped.json,http://54.235.29.9/FacialAge/BNav_EC2/DepthDuration/MX_fS_VE_MTurk/MX_fS_HTML.html#191,191,1366,641,1366,768,1-12-2024,15-57-27,24,VR_target_stimuli/s50_1.3x_4.53_518_BC.png,125,1.3x,4.53,6,2949,127,meters,jsons/MX_seq28_1_VE125_flipped.json,210259,517379,34,Woman
24,383364,final-intermixed-textured,v2,jsons/MX_seq28_1_VE125_flipped.json,http://54.235.29.9/FacialAge/BNav_EC2/DepthDuration/MX_fS_VE_MTurk/MX_fS_HTML.html#191,191,1366,641,1366,768,1-12-2024,15-57-27,25,VR_target_stimuli/s53_1x_1.6_387.png,125,1x,1.6,1,2866,129,meters,jsons/MX_seq28_1_VE125_flipped.json,210259,517379,34,Woman
25,383364,final-intermixed-textured,v2,jsons/MX_seq28_1_VE125_flipped.json,http://54.235.29.9/FacialAge/BNav_EC2/DepthDuration/MX_fS_VE_MTurk/MX_fS_HTML.html#191,191,1366,641,1366,768,1-12-2024,15-57-27,26,catch_stimuli/c2_BC.png,125,,,0,2719,125,meters,jsons/MX_seq28_1_VE125_flipped.json,210259,517379,34,Woman
26,383364,final-intermixed-textured,v2,jsons/MX_seq28_1_VE125_flipped.json,http://54.235.29.9/FacialAge/BNav_EC2/DepthDuration/MX_fS_VE_MTurk/MX_fS_HTML.html#191,191,1366,641,1366,768,1-12-2024,15-57-27,27,VR_target_stimuli/s38_0.75x_3.55_346_BC.png,125,0.75x,3.55,5,2400,128,meters,jsons/MX_seq28_1_VE125_flipped.json,210259,517379,34,Woman
27,383364,final-intermixed-textured,v2,jsons/MX_seq28_1_VE125_flipped.json,http://54.235.29.9/FacialAge/BNav_EC2/DepthDuration/MX_fS_VE_MTurk/MX_fS_HTML.html#191,191,1366,641,1366,768,1-12-2024,15-57-27,28,VR_target_stimuli/s9_0.75x_1.2_260_BC.png,125,0.75x,1.2,2,3099,125,meters,jsons/MX_seq28_1_VE125_flipped.json,210259,517379,34,Woman
28,383364,final-intermixed-textured,v2,jsons/MX_seq28_1_VE125_flipped.json,http://54.235.29.9/FacialAge/BNav_EC2/DepthDuration/MX_fS_VE_MTurk/MX_fS_HTML.html#191,191,1366,641,1366,768,1-12-2024,15-57-27,29,VR_target_stimuli/s44_1.3x_4.4_325_BC.png,125,1.3x,4.4,5,2852,126,meters,jsons/MX_seq28_1_VE125_flipped.json,210259,517379,34,Woman
29,383364,final-intermixed-textured,v2,jsons/MX_seq28_1_VE125_flipped.json,http://54.235.29.9/FacialAge/BNav_EC2/DepthDuration/MX_fS_VE_MTurk/MX_fS_HTML.html#191,191,1366,641,1366,768,1-12-2024,15-57-27,30,VR_target_stimuli/s3_1x_5_385.png,125,1x,5.0,6,3109,114,meters,jsons/MX_seq28_1_VE125_flipped.json,210259,517379,34,Woman
30,383364,final-intermixed-textured,v2,jsons/MX_seq28_1_VE125_flipped.json,http://54.235.29.9/FacialAge/BNav_EC2/DepthDuration/MX_fS_VE_MTurk/MX_fS_HTML.html#191,191,1366,641,1366,768,1-12-2024,15-57-27,31,VR_target_stimuli/s1_0.75x_1.7_265.png,125,0.75x,1.7,4,2781,132,meters,jsons/MX_seq28_1_VE125_flipped.json,210259,517379,34,Woman
31,383364,final-intermixed-textured,v2,jsons/MX_seq28_1_VE125_flipped.json,http://54.235.29.9/FacialAge/BNav_EC2/DepthDuration/MX_fS_VE_MTurk/MX_fS_HTML.html#191,191,1366,641,1366,768,1-12-2024,15-57-27,32,VR_target_stimuli/s11_1x_5_361_BC.png,125,1x,5.0,6,2491,132,meters,jsons/MX_seq28_1_VE125_flipped.json,210259,517379,34,Woman
32,383364,final-intermixed-textured,v2,jsons/MX_seq28_1_VE125_flipped.json,http://54.235.29.9/FacialAge/BNav_EC2/DepthDuration/MX_fS_VE_MTurk/MX_fS_HTML.html#191,191,1366,641,1366,768,1-12-2024,15-57-27,33,VR_target_stimuli/s2_1.3x_2.7_397.png,125,1.3x,2.7,4,3027,127,meters,jsons/MX_seq28_1_VE125_flipped.json,210259,517379,34,Woman
33,383364,final-intermixed-textured,v2,jsons/MX_seq28_1_VE125_flipped.json,http://54.235.29.9/FacialAge/BNav_EC2/DepthDuration/MX_fS_VE_MTurk/MX_fS_HTML.html#191,191,1366,641,1366,768,1-12-2024,15-57-27,34,catch_stimuli/c3_BC.png,125,,,0,2159,130,meters,jsons/MX_seq28_1_VE125_flipped.json,210259,517379,34,Woman
34,383364,final-intermixed-textured,v2,jsons/MX_seq28_1_VE125_flipped.json,http://54.235.29.9/FacialAge/BNav_EC2/DepthDuration/MX_fS_VE_MTurk/MX_fS_HTML.html#191,191,1366,641,1366,768,1-12-2024,15-57-27,35,VR_target_stimuli/s6_1x_2.1_293_BC.png,125,1x,2.1,5,3002,128,meters,jsons/MX_seq28_1_VE125_flipped.json,210259,517379,34,Woman
35,383364,final-intermixed-textured,v2,jsons/MX_seq28_1_VE125_flipped.json,http://54.235.29.9/FacialAge/BNav_EC2/DepthDuration/MX_fS_VE_MTurk/MX_fS_HTML.html#191,191,1366,641,1366,768,1-12-2024,15-57-27,36,VR_target_stimuli/s0_0.75x_2.6_345_BC.png,125,0.75x,2.6,6,2708,122,meters,jsons/MX_seq28_1_VE125_flipped.json,210259,517379,34,Woman
36,383364,final-intermixed-textured,v2,jsons/MX_seq28_1_VE125_flipped.json,http://54.235.29.9/FacialAge/BNav_EC2/DepthDuration/MX_fS_VE_MTurk/MX_fS_HTML.html#191,191,1366,641,1366,768,1-12-2024,15-57-27,37,VR_target_stimuli/s34_1.3x_2.8_294.png,125,1.3x,2.8,4,2252,126,meters,jsons/MX_seq28_1_VE125_flipped.json,210259,517379,34,Woman
37,383364,final-intermixed-textured,v2,jsons/MX_seq28_1_VE125_flipped.json,http://54.235.29.9/FacialAge/BNav_EC2/DepthDuration/MX_fS_VE_MTurk/MX_fS_HTML.html#191,191,1366,641,1366,768,1-12-2024,15-57-27,38,VR_target_stimuli/s13_1.3x_2.4_313_BC.png,125,1.3x,2.4,4,2257,126,meters,jsons/MX_seq28_1_VE125_flipped.json,210259,517379,34,Woman
38,383364,final-intermixed-textured,v2,jsons/MX_seq28_1_VE125_flipped.json,http://54.235.29.9/FacialAge/BNav_EC2/DepthDuration/MX_fS_VE_MTurk/MX_fS_HTML.html#191,191,1366,641,1366,768,1-12-2024,15-57-27,39,VR_target_stimuli/s14_1x_ 3.83_357.png,125,1x,3.83,6,2605,122,meters,jsons/MX_seq28_1_VE125_flipped.json,210259,517379,34,Woman
39,383364,final-intermixed-textured,v2,jsons/MX_seq28_1_VE125_flipped.json,http://54.235.29.9/FacialAge/BNav_EC2/DepthDuration/MX_fS_VE_MTurk/MX_fS_HTML.html#191,191,1366,641,1366,768,1-12-2024,15-57-27,40,VR_target_stimuli/s47_0.75x_3.45_366.png,125,0.75x,3.45,3,3322,124,meters,jsons/MX_seq28_1_VE125_flipped.json,210259,517379,34,Woman
40,383364,final-intermixed-textured,v2,jsons/MX_seq28_1_VE125_flipped.json,http://54.235.29.9/FacialAge/BNav_EC2/DepthDuration/MX_fS_VE_MTurk/MX_fS_HTML.html#191,191,1366,641,1366,768,1-12-2024,15-57-27,41,VR_target_stimuli/s29_1x_1.3_250.png,125,1x,1.3,2,2811,111,meters,jsons/MX_seq28_1_VE125_flipped.json,210259,517379,34,Woman
41,383364,final-intermixed-textured,v2,jsons/MX_seq28_1_VE125_flipped.json,http://54.235.29.9/FacialAge/BNav_EC2/DepthDuration/MX_fS_VE_MTurk/MX_fS_HTML.html#191,191,1366,641,1366,768,1-12-2024,15-57-27,42,VR_target_stimuli/s28_1.3x_3.2_365_BC.png,125,1.3x,3.2,5,2508,126,meters,jsons/MX_seq28_1_VE125_flipped.json,210259,517379,34,Woman
42,383364,final-intermixed-textured,v2,jsons/MX_seq28_1_VE125_flipped.json,http://54.235.29.9/FacialAge/BNav_EC2/DepthDuration/MX_fS_VE_MTurk/MX_fS_HTML.html#191,191,1366,641,1366,768,1-12-2024,15-57-27,43,VR_target_stimuli/s48_0.75x_2.55_243.png,125,0.75x,2.55,3,2550,126,meters,jsons/MX_seq28_1_VE125_flipped.json,210259,517379,34,Woman
43,383364,final-intermixed-textured,v2,jsons/MX_seq28_1_VE125_flipped.json,http://54.235.29.9/FacialAge/BNav_EC2/DepthDuration/MX_fS_VE_MTurk/MX_fS_HTML.html#191,191,1366,641,1366,768,1-12-2024,15-57-27,44,VR_target_stimuli/s19_1.3x_1.21_270.png,125,1.3x,1.21,2,2445,111,meters,jsons/MX_seq28_1_VE125_flipped.json,210259,517379,34,Woman
44,383364,final-intermixed-textured,v2,jsons/MX_seq28_1_VE125_flipped.json,http://54.235.29.9/FacialAge/BNav_EC2/DepthDuration/MX_fS_VE_MTurk/MX_fS_HTML.html#191,191,1366,641,1366,768,1-12-2024,15-57-27,45,catch_stimuli/c4_BC.png,125,,,0,2212,234,meters,jsons/MX_seq28_1_VE125_flipped.json,210259,517379,34,Woman
45,383364,final-intermixed-textured,v2,jsons/MX_seq28_1_VE125_flipped.json,http://54.235.29.9/FacialAge/BNav_EC2/DepthDuration/MX_fS_VE_MTurk/MX_fS_HTML.html#191,191,1366,641,1366,768,1-12-2024,15-57-27,46,VR_target_stimuli/s21_1x_4.22_379_BC.png,125,1x,4.22,6,2805,114,meters,jsons/MX_seq28_1_VE125_flipped.json,210259,517379,34,Woman
46,383364,final-intermixed-textured,v2,jsons/MX_seq28_1_VE125_flipped.json,http://54.235.29.9/FacialAge/BNav_EC2/DepthDuration/MX_fS_VE_MTurk/MX_fS_HTML.html#191,191,1366,641,1366,768,1-12-2024,15-57-27,47,VR_target_stimuli/s8_0.75x_3.1_325_BC.png,125,0.75x,3.1,6,2607,124,meters,jsons/MX_seq28_1_VE125_flipped.json,210259,517379,34,Woman
47,383364,final-intermixed-textured,v2,jsons/MX_seq28_1_VE125_flipped.json,http://54.235.29.9/FacialAge/BNav_EC2/DepthDuration/MX_fS_VE_MTurk/MX_fS_HTML.html#191,191,1366,641,1366,768,1-12-2024,15-57-27,48,VR_target_stimuli/s27_0.75x_1.76_243.png,125,0.75x,1.76,4,2873,126,meters,jsons/MX_seq28_1_VE125_flipped.json,210259,517379,34,Woman
48,383364,final-intermixed-textured,v2,jsons/MX_seq28_1_VE125_flipped.json,http://54.235.29.9/FacialAge/BNav_EC2/DepthDuration/MX_fS_VE_MTurk/MX_fS_HTML.html#191,191,1366,641,1366,768,1-12-2024,15-57-27,49,VR_target_stimuli/s15_1.3x_4.2_389_BC.png,125,1.3x,4.2,6,2221,127,meters,jsons/MX_seq28_1_VE125_flipped.json,210259,517379,34,Woman
49,383364,final-intermixed-textured,v2,jsons/MX_seq28_1_VE125_flipped.json,http://54.235.29.9/FacialAge/BNav_EC2/DepthDuration/MX_fS_VE_MTurk/MX_fS_HTML.html#191,191,1366,641,1366,768,1-12-2024,15-57-27,50,VR_target_stimuli/s4_1x_1.4_313_BC.png,125,1x,1.4,3,2710,112,meters,jsons/MX_seq28_1_VE125_flipped.json,210259,517379,34,Woman
50,383364,final-intermixed-textured,v2,jsons/MX_seq28_1_VE125_flipped.json,http://54.235.29.9/FacialAge/BNav_EC2/DepthDuration/MX_fS_VE_MTurk/MX_fS_HTML.html#191,191,1366,641,1366,768,1-12-2024,15-57-27,51,VR_target_stimuli/s35_1.3x_2_338.png,125,1.3x,2.0,2,2133,125,meters,jsons/MX_seq28_1_VE125_flipped.json,210259,517379,34,Woman
51,383364,final-intermixed-textured,v2,jsons/MX_seq28_1_VE125_flipped.json,http://54.235.29.9/FacialAge/BNav_EC2/DepthDuration/MX_fS_VE_MTurk/MX_fS_HTML.html#191,191,1366,641,1366,768,1-12-2024,15-57-27,52,VR_target_stimuli/s49_0.75x_4.67_328_BC.png,125,0.75x,4.67,5,2368,126,meters,jsons/MX_seq28_1_VE125_flipped.json,210259,517379,34,Woman
52,383364,final-intermixed-textured,v2,jsons/MX_seq28_1_VE125_flipped.json,http://54.235.29.9/FacialAge/BNav_EC2/DepthDuration/MX_fS_VE_MTurk/MX_fS_HTML.html#191,191,1366,641,1366,768,1-12-2024,15-57-27,53,catch_stimuli/c5_BC.png,125,,,0,2121,136,meters,jsons/MX_seq28_1_VE125_flipped.json,210259,517379,34,Woman
53,383364,final-intermixed-textured,v2,jsons/MX_seq28_1_VE125_flipped.json,http://54.235.29.9/FacialAge/BNav_EC2/DepthDuration/MX_fS_VE_MTurk/MX_fS_HTML.html#191,191,1366,641,1366,768,1-12-2024,15-57-27,54,VR_target_stimuli/s7_1x_1.5_255.png,125,1x,1.5,3,2378,128,meters,jsons/MX_seq28_1_VE125_flipped.json,210259,517379,34,Woman
54,383364,final-intermixed-textured,v2,jsons/MX_seq28_1_VE125_flipped.json,http://54.235.29.9/FacialAge/BNav_EC2/DepthDuration/MX_fS_VE_MTurk/MX_fS_HTML.html#191,191,1366,641,1366,768,1-12-2024,15-57-27,55,VR_target_stimuli/s20_0.75x_4.99_390.png,125,0.75x,4.99,5,3147,125,meters,jsons/MX_seq28_1_VE125_flipped.json,210259,517379,34,Woman
55,383364,final-intermixed-textured,v2,jsons/MX_seq28_1_VE125_flipped.json,http://54.235.29.9/FacialAge/BNav_EC2/DepthDuration/MX_fS_VE_MTurk/MX_fS_HTML.html#191,191,1366,641,1366,768,1-12-2024,15-57-27,56,VR_target_stimuli/s31_1.3x_4.96_342_BC.png,125,1.3x,4.96,5,2089,129,meters,jsons/MX_seq28_1_VE125_flipped.json,210259,517379,34,Woman
56,383364,final-intermixed-textured,v2,jsons/MX_seq28_1_VE125_flipped.json,http://54.235.29.9/FacialAge/BNav_EC2/DepthDuration/MX_fS_VE_MTurk/MX_fS_HTML.html#191,191,1366,641,1366,768,1-12-2024,15-57-27,57,VR_target_stimuli/s33_1x_3.1_366_BC.png,125,1x,3.1,5,1935,134,meters,jsons/MX_seq28_1_VE125_flipped.json,210259,517379,34,Woman
57,383364,final-intermixed-textured,v2,jsons/MX_seq28_1_VE125_flipped.json,http://54.235.29.9/FacialAge/BNav_EC2/DepthDuration/MX_fS_VE_MTurk/MX_fS_HTML.html#191,191,1366,641,1366,768,1-12-2024,15-57-27,58,VR_target_stimuli/s52_1x_3.2_275.png,125,1x,3.2,6,2463,126,meters,jsons/MX_seq28_1_VE125_flipped.json,210259,517379,34,Woman
58,383364,final-intermixed-textured,v2,jsons/MX_seq28_1_VE125_flipped.json,http://54.235.29.9/FacialAge/BNav_EC2/DepthDuration/MX_fS_VE_MTurk/MX_fS_HTML.html#191,191,1366,641,1366,768,1-12-2024,15-57-27,59,VR_target_stimuli/s32_0.75x_1.5_213_BC.png,125,0.75x,1.5,5,1860,128,meters,jsons/MX_seq28_1_VE125_flipped.json,210259,517379,34,Woman
59,383364,final-intermixed-textured,v2,jsons/MX_seq28_1_VE125_flipped.json,http://54.235.29.9/FacialAge/BNav_EC2/DepthDuration/MX_fS_VE_MTurk/MX_fS_HTML.html#191,191,1366,641,1366,768,1-12-2024,15-57-27,60,VR_target_stimuli/s18_1.3x_2.25_368.png,125,1.3x,2.25,4,2098,126,meters,jsons/MX_seq28_1_VE125_flipped.json,210259,517379,34,Woman
