,subjID,experimentName,versionName,sequenceName,url,selected_row,windowWidth,windowHeight,screenWidth,screenHeight,startDate,startTime,trial,stimulus,duration,scale,actual_depth,depth_estimate,trial_RT,log_sceneDuration,unitSelection,seq_filepath,experimentTime,totalTime,age,gender
0,389420,final-intermixed-textured,v2,jsons/MX_seq36_0_VE125_flipped.json,http://54.235.29.9/FacialAge/BNav_EC2/DepthDuration/MX_fS_VE_MTurk/MX_fS_HTML.html#211,211,1536,695,1536,864,1-13-2024,13-32-27,1,VR_target_stimuli/s45_0.75x_3.5_362_BC.png,125,0.75x,3.5,2,11404,122,meters,jsons/MX_seq36_0_VE125_flipped.json,270279,602971,43,Man
1,389420,final-intermixed-textured,v2,jsons/MX_seq36_0_VE125_flipped.json,http://54.235.29.9/FacialAge/BNav_EC2/DepthDuration/MX_fS_VE_MTurk/MX_fS_HTML.html#211,211,1536,695,1536,864,1-13-2024,13-32-27,2,VR_target_stimuli/s23_1x_3.65_353_BC.png,125,1x,3.65,3,4216,123,meters,jsons/MX_seq36_0_VE125_flipped.json,270279,602971,43,Man
2,389420,final-intermixed-textured,v2,jsons/MX_seq36_0_VE125_flipped.json,http://54.235.29.9/FacialAge/BNav_EC2/DepthDuration/MX_fS_VE_MTurk/MX_fS_HTML.html#211,211,1536,695,1536,864,1-13-2024,13-32-27,3,VR_target_stimuli/s26_1.3x_4_441_BC.png,125,1.3x,4.0,3,3859,123,meters,jsons/MX_seq36_0_VE125_flipped.json,270279,602971,43,Man
3,389420,final-intermixed-textured,v2,jsons/MX_seq36_0_VE125_flipped.json,http://54.235.29.9/FacialAge/BNav_EC2/DepthDuration/MX_fS_VE_MTurk/MX_fS_HTML.html#211,211,1536,695,1536,864,1-13-2024,13-32-27,4,VR_target_stimuli/s12_1x_3.1_372.png,125,1x,3.1,3,3651,126,meters,jsons/MX_seq36_0_VE125_flipped.json,270279,602971,43,Man
4,389420,final-intermixed-textured,v2,jsons/MX_seq36_0_VE125_flipped.json,http://54.235.29.9/FacialAge/BNav_EC2/DepthDuration/MX_fS_VE_MTurk/MX_fS_HTML.html#211,211,1536,695,1536,864,1-13-2024,13-32-27,5,VR_target_stimuli/s30_0.75x_2.3_332.png,125,0.75x,2.3,2,5473,123,meters,jsons/MX_seq36_0_VE125_flipped.json,270279,602971,43,Man
5,389420,final-intermixed-textured,v2,jsons/MX_seq36_0_VE125_flipped.json,http://54.235.29.9/FacialAge/BNav_EC2/DepthDuration/MX_fS_VE_MTurk/MX_fS_HTML.html#211,211,1536,695,1536,864,1-13-2024,13-32-27,6,VR_target_stimuli/s16_1.3x_1_223.png,125,1.3x,1.0,1,3742,124,meters,jsons/MX_seq36_0_VE125_flipped.json,270279,602971,43,Man
6,389420,final-intermixed-textured,v2,jsons/MX_seq36_0_VE125_flipped.json,http://54.235.29.9/FacialAge/BNav_EC2/DepthDuration/MX_fS_VE_MTurk/MX_fS_HTML.html#211,211,1536,695,1536,864,1-13-2024,13-32-27,7,catch_stimuli/c0_BC.png,125,,,0,3544,117,meters,jsons/MX_seq36_0_VE125_flipped.json,270279,602971,43,Man
7,389420,final-intermixed-textured,v2,jsons/MX_seq36_0_VE125_flipped.json,http://54.235.29.9/FacialAge/BNav_EC2/DepthDuration/MX_fS_VE_MTurk/MX_fS_HTML.html#211,211,1536,695,1536,864,1-13-2024,13-32-27,8,VR_target_stimuli/s17_1.3x_1.8_300.png,125,1.3x,1.8,2,3311,125,meters,jsons/MX_seq36_0_VE125_flipped.json,270279,602971,43,Man
8,389420,final-intermixed-textured,v2,jsons/MX_seq36_0_VE125_flipped.json,http://54.235.29.9/FacialAge/BNav_EC2/DepthDuration/MX_fS_VE_MTurk/MX_fS_HTML.html#211,211,1536,695,1536,864,1-13-2024,13-32-27,9,VR_target_stimuli/s5_1x_4_378_BC.png,125,1x,4.0,3,2995,124,meters,jsons/MX_seq36_0_VE125_flipped.json,270279,602971,43,Man
9,389420,final-intermixed-textured,v2,jsons/MX_seq36_0_VE125_flipped.json,http://54.235.29.9/FacialAge/BNav_EC2/DepthDuration/MX_fS_VE_MTurk/MX_fS_HTML.html#211,211,1536,695,1536,864,1-13-2024,13-32-27,10,VR_target_stimuli/s37_0.75x_3.3_567_BC.png,125,0.75x,3.3,4,4129,120,meters,jsons/MX_seq36_0_VE125_flipped.json,270279,602971,43,Man
10,389420,final-intermixed-textured,v2,jsons/MX_seq36_0_VE125_flipped.json,http://54.235.29.9/FacialAge/BNav_EC2/DepthDuration/MX_fS_VE_MTurk/MX_fS_HTML.html#211,211,1536,695,1536,864,1-13-2024,13-32-27,11,VR_target_stimuli/s46_1x_2.42_348.png,125,1x,2.42,3,3641,122,meters,jsons/MX_seq36_0_VE125_flipped.json,270279,602971,43,Man
11,389420,final-intermixed-textured,v2,jsons/MX_seq36_0_VE125_flipped.json,http://54.235.29.9/FacialAge/BNav_EC2/DepthDuration/MX_fS_VE_MTurk/MX_fS_HTML.html#211,211,1536,695,1536,864,1-13-2024,13-32-27,12,VR_target_stimuli/s22_1.3x_4.29_364_BC.png,125,1.3x,4.29,3,3121,126,meters,jsons/MX_seq36_0_VE125_flipped.json,270279,602971,43,Man
12,389420,final-intermixed-textured,v2,jsons/MX_seq36_0_VE125_flipped.json,http://54.235.29.9/FacialAge/BNav_EC2/DepthDuration/MX_fS_VE_MTurk/MX_fS_HTML.html#211,211,1536,695,1536,864,1-13-2024,13-32-27,13,VR_target_stimuli/s42_0.75x_3.2_301.png,125,0.75x,3.2,2,3074,125,meters,jsons/MX_seq36_0_VE125_flipped.json,270279,602971,43,Man
13,389420,final-intermixed-textured,v2,jsons/MX_seq36_0_VE125_flipped.json,http://54.235.29.9/FacialAge/BNav_EC2/DepthDuration/MX_fS_VE_MTurk/MX_fS_HTML.html#211,211,1536,695,1536,864,1-13-2024,13-32-27,14,VR_target_stimuli/s25_1.3x_1.4_299_BC.png,125,1.3x,1.4,2,3177,122,meters,jsons/MX_seq36_0_VE125_flipped.json,270279,602971,43,Man
14,389420,final-intermixed-textured,v2,jsons/MX_seq36_0_VE125_flipped.json,http://54.235.29.9/FacialAge/BNav_EC2/DepthDuration/MX_fS_VE_MTurk/MX_fS_HTML.html#211,211,1536,695,1536,864,1-13-2024,13-32-27,15,VR_target_stimuli/s50_1x_4.53_518_BC.png,125,1x,4.53,4,4227,140,meters,jsons/MX_seq36_0_VE125_flipped.json,270279,602971,43,Man
15,389420,final-intermixed-textured,v2,jsons/MX_seq36_0_VE125_flipped.json,http://54.235.29.9/FacialAge/BNav_EC2/DepthDuration/MX_fS_VE_MTurk/MX_fS_HTML.html#211,211,1536,695,1536,864,1-13-2024,13-32-27,16,VR_target_stimuli/s53_0.75x_1.6_403_BC.png,125,0.75x,1.6,3,3142,121,meters,jsons/MX_seq36_0_VE125_flipped.json,270279,602971,43,Man
16,389420,final-intermixed-textured,v2,jsons/MX_seq36_0_VE125_flipped.json,http://54.235.29.9/FacialAge/BNav_EC2/DepthDuration/MX_fS_VE_MTurk/MX_fS_HTML.html#211,211,1536,695,1536,864,1-13-2024,13-32-27,17,catch_stimuli/c1_BC.png,125,,,2,3369,120,meters,jsons/MX_seq36_0_VE125_flipped.json,270279,602971,43,Man
17,389420,final-intermixed-textured,v2,jsons/MX_seq36_0_VE125_flipped.json,http://54.235.29.9/FacialAge/BNav_EC2/DepthDuration/MX_fS_VE_MTurk/MX_fS_HTML.html#211,211,1536,695,1536,864,1-13-2024,13-32-27,18,VR_target_stimuli/s38_0.75x_3.55_346.png,125,0.75x,3.55,3,3595,126,meters,jsons/MX_seq36_0_VE125_flipped.json,270279,602971,43,Man
18,389420,final-intermixed-textured,v2,jsons/MX_seq36_0_VE125_flipped.json,http://54.235.29.9/FacialAge/BNav_EC2/DepthDuration/MX_fS_VE_MTurk/MX_fS_HTML.html#211,211,1536,695,1536,864,1-13-2024,13-32-27,19,VR_target_stimuli/s9_1.3x_1.2_276.png,125,1.3x,1.2,0,4564,124,meters,jsons/MX_seq36_0_VE125_flipped.json,270279,602971,43,Man
19,389420,final-intermixed-textured,v2,jsons/MX_seq36_0_VE125_flipped.json,http://54.235.29.9/FacialAge/BNav_EC2/DepthDuration/MX_fS_VE_MTurk/MX_fS_HTML.html#211,211,1536,695,1536,864,1-13-2024,13-32-27,20,VR_target_stimuli/s44_1x_4.4_317.png,125,1x,4.4,0,2939,138,meters,jsons/MX_seq36_0_VE125_flipped.json,270279,602971,43,Man
20,389420,final-intermixed-textured,v2,jsons/MX_seq36_0_VE125_flipped.json,http://54.235.29.9/FacialAge/BNav_EC2/DepthDuration/MX_fS_VE_MTurk/MX_fS_HTML.html#211,211,1536,695,1536,864,1-13-2024,13-32-27,21,VR_target_stimuli/s3_1.3x_5_390_BC.png,125,1.3x,5.0,3,3510,121,meters,jsons/MX_seq36_0_VE125_flipped.json,270279,602971,43,Man
21,389420,final-intermixed-textured,v2,jsons/MX_seq36_0_VE125_flipped.json,http://54.235.29.9/FacialAge/BNav_EC2/DepthDuration/MX_fS_VE_MTurk/MX_fS_HTML.html#211,211,1536,695,1536,864,1-13-2024,13-32-27,22,VR_target_stimuli/s1_0.75x_1.7_265.png,125,0.75x,1.7,3,3531,124,meters,jsons/MX_seq36_0_VE125_flipped.json,270279,602971,43,Man
22,389420,final-intermixed-textured,v2,jsons/MX_seq36_0_VE125_flipped.json,http://54.235.29.9/FacialAge/BNav_EC2/DepthDuration/MX_fS_VE_MTurk/MX_fS_HTML.html#211,211,1536,695,1536,864,1-13-2024,13-32-27,23,VR_target_stimuli/s11_1x_5_361_BC.png,125,1x,5.0,3,3361,125,meters,jsons/MX_seq36_0_VE125_flipped.json,270279,602971,43,Man
23,389420,final-intermixed-textured,v2,jsons/MX_seq36_0_VE125_flipped.json,http://54.235.29.9/FacialAge/BNav_EC2/DepthDuration/MX_fS_VE_MTurk/MX_fS_HTML.html#211,211,1536,695,1536,864,1-13-2024,13-32-27,24,VR_target_stimuli/s2_0.75x_2.7_384_BC.png,125,0.75x,2.7,2,3835,122,meters,jsons/MX_seq36_0_VE125_flipped.json,270279,602971,43,Man
24,389420,final-intermixed-textured,v2,jsons/MX_seq36_0_VE125_flipped.json,http://54.235.29.9/FacialAge/BNav_EC2/DepthDuration/MX_fS_VE_MTurk/MX_fS_HTML.html#211,211,1536,695,1536,864,1-13-2024,13-32-27,25,VR_target_stimuli/s6_1.3x_2.1_298.png,125,1.3x,2.1,3,3462,123,meters,jsons/MX_seq36_0_VE125_flipped.json,270279,602971,43,Man
25,389420,final-intermixed-textured,v2,jsons/MX_seq36_0_VE125_flipped.json,http://54.235.29.9/FacialAge/BNav_EC2/DepthDuration/MX_fS_VE_MTurk/MX_fS_HTML.html#211,211,1536,695,1536,864,1-13-2024,13-32-27,26,catch_stimuli/c2_BC.png,125,,,2,3406,122,meters,jsons/MX_seq36_0_VE125_flipped.json,270279,602971,43,Man
26,389420,final-intermixed-textured,v2,jsons/MX_seq36_0_VE125_flipped.json,http://54.235.29.9/FacialAge/BNav_EC2/DepthDuration/MX_fS_VE_MTurk/MX_fS_HTML.html#211,211,1536,695,1536,864,1-13-2024,13-32-27,27,VR_target_stimuli/s0_1x_2.6_351.png,125,1x,2.6,2,3600,121,meters,jsons/MX_seq36_0_VE125_flipped.json,270279,602971,43,Man
27,389420,final-intermixed-textured,v2,jsons/MX_seq36_0_VE125_flipped.json,http://54.235.29.9/FacialAge/BNav_EC2/DepthDuration/MX_fS_VE_MTurk/MX_fS_HTML.html#211,211,1536,695,1536,864,1-13-2024,13-32-27,28,VR_target_stimuli/s34_1x_2.8_283.png,125,1x,2.8,2,5158,124,meters,jsons/MX_seq36_0_VE125_flipped.json,270279,602971,43,Man
28,389420,final-intermixed-textured,v2,jsons/MX_seq36_0_VE125_flipped.json,http://54.235.29.9/FacialAge/BNav_EC2/DepthDuration/MX_fS_VE_MTurk/MX_fS_HTML.html#211,211,1536,695,1536,864,1-13-2024,13-32-27,29,VR_target_stimuli/s13_0.75x_2.4_308.png,125,0.75x,2.4,1,3430,123,meters,jsons/MX_seq36_0_VE125_flipped.json,270279,602971,43,Man
29,389420,final-intermixed-textured,v2,jsons/MX_seq36_0_VE125_flipped.json,http://54.235.29.9/FacialAge/BNav_EC2/DepthDuration/MX_fS_VE_MTurk/MX_fS_HTML.html#211,211,1536,695,1536,864,1-13-2024,13-32-27,30,VR_target_stimuli/s14_1.3x_3.83_359_BC.png,125,1.3x,3.83,3,3128,124,meters,jsons/MX_seq36_0_VE125_flipped.json,270279,602971,43,Man
30,389420,final-intermixed-textured,v2,jsons/MX_seq36_0_VE125_flipped.json,http://54.235.29.9/FacialAge/BNav_EC2/DepthDuration/MX_fS_VE_MTurk/MX_fS_HTML.html#211,211,1536,695,1536,864,1-13-2024,13-32-27,31,VR_target_stimuli/s47_1x_3.45_370_BC.png,125,1x,3.45,1,3641,120,meters,jsons/MX_seq36_0_VE125_flipped.json,270279,602971,43,Man
31,389420,final-intermixed-textured,v2,jsons/MX_seq36_0_VE125_flipped.json,http://54.235.29.9/FacialAge/BNav_EC2/DepthDuration/MX_fS_VE_MTurk/MX_fS_HTML.html#211,211,1536,695,1536,864,1-13-2024,13-32-27,32,VR_target_stimuli/s29_1.3x_1.3_253.png,125,1.3x,1.3,1,3402,124,meters,jsons/MX_seq36_0_VE125_flipped.json,270279,602971,43,Man
32,389420,final-intermixed-textured,v2,jsons/MX_seq36_0_VE125_flipped.json,http://54.235.29.9/FacialAge/BNav_EC2/DepthDuration/MX_fS_VE_MTurk/MX_fS_HTML.html#211,211,1536,695,1536,864,1-13-2024,13-32-27,33,VR_target_stimuli/s28_0.75x_3.2_357_BC.png,125,0.75x,3.2,2,3291,124,meters,jsons/MX_seq36_0_VE125_flipped.json,270279,602971,43,Man
33,389420,final-intermixed-textured,v2,jsons/MX_seq36_0_VE125_flipped.json,http://54.235.29.9/FacialAge/BNav_EC2/DepthDuration/MX_fS_VE_MTurk/MX_fS_HTML.html#211,211,1536,695,1536,864,1-13-2024,13-32-27,34,catch_stimuli/c3_BC.png,125,,,0,5223,121,meters,jsons/MX_seq36_0_VE125_flipped.json,270279,602971,43,Man
34,389420,final-intermixed-textured,v2,jsons/MX_seq36_0_VE125_flipped.json,http://54.235.29.9/FacialAge/BNav_EC2/DepthDuration/MX_fS_VE_MTurk/MX_fS_HTML.html#211,211,1536,695,1536,864,1-13-2024,13-32-27,35,VR_target_stimuli/s48_1.3x_2.55_255.png,125,1.3x,2.55,0,4024,119,meters,jsons/MX_seq36_0_VE125_flipped.json,270279,602971,43,Man
35,389420,final-intermixed-textured,v2,jsons/MX_seq36_0_VE125_flipped.json,http://54.235.29.9/FacialAge/BNav_EC2/DepthDuration/MX_fS_VE_MTurk/MX_fS_HTML.html#211,211,1536,695,1536,864,1-13-2024,13-32-27,36,VR_target_stimuli/s19_1x_1.21_263.png,125,1x,1.21,2,3641,140,meters,jsons/MX_seq36_0_VE125_flipped.json,270279,602971,43,Man
36,389420,final-intermixed-textured,v2,jsons/MX_seq36_0_VE125_flipped.json,http://54.235.29.9/FacialAge/BNav_EC2/DepthDuration/MX_fS_VE_MTurk/MX_fS_HTML.html#211,211,1536,695,1536,864,1-13-2024,13-32-27,37,VR_target_stimuli/s21_0.75x_4.22_374_BC.png,125,0.75x,4.22,3,5326,121,meters,jsons/MX_seq36_0_VE125_flipped.json,270279,602971,43,Man
37,389420,final-intermixed-textured,v2,jsons/MX_seq36_0_VE125_flipped.json,http://54.235.29.9/FacialAge/BNav_EC2/DepthDuration/MX_fS_VE_MTurk/MX_fS_HTML.html#211,211,1536,695,1536,864,1-13-2024,13-32-27,38,VR_target_stimuli/s8_0.75x_3.1_325.png,125,0.75x,3.1,3,3099,120,meters,jsons/MX_seq36_0_VE125_flipped.json,270279,602971,43,Man
38,389420,final-intermixed-textured,v2,jsons/MX_seq36_0_VE125_flipped.json,http://54.235.29.9/FacialAge/BNav_EC2/DepthDuration/MX_fS_VE_MTurk/MX_fS_HTML.html#211,211,1536,695,1536,864,1-13-2024,13-32-27,39,VR_target_stimuli/s27_1.3x_1.76_250_BC.png,125,1.3x,1.76,2,3115,121,meters,jsons/MX_seq36_0_VE125_flipped.json,270279,602971,43,Man
39,389420,final-intermixed-textured,v2,jsons/MX_seq36_0_VE125_flipped.json,http://54.235.29.9/FacialAge/BNav_EC2/DepthDuration/MX_fS_VE_MTurk/MX_fS_HTML.html#211,211,1536,695,1536,864,1-13-2024,13-32-27,40,VR_target_stimuli/s15_1x_4.2_390_BC.png,125,1x,4.2,3,3492,131,meters,jsons/MX_seq36_0_VE125_flipped.json,270279,602971,43,Man
40,389420,final-intermixed-textured,v2,jsons/MX_seq36_0_VE125_flipped.json,http://54.235.29.9/FacialAge/BNav_EC2/DepthDuration/MX_fS_VE_MTurk/MX_fS_HTML.html#211,211,1536,695,1536,864,1-13-2024,13-32-27,41,VR_target_stimuli/s4_1.3x_1.4_328_BC.png,125,1.3x,1.4,2,4994,132,meters,jsons/MX_seq36_0_VE125_flipped.json,270279,602971,43,Man
41,389420,final-intermixed-textured,v2,jsons/MX_seq36_0_VE125_flipped.json,http://54.235.29.9/FacialAge/BNav_EC2/DepthDuration/MX_fS_VE_MTurk/MX_fS_HTML.html#211,211,1536,695,1536,864,1-13-2024,13-32-27,42,VR_target_stimuli/s35_0.75x_2_323.png,125,0.75x,2.0,3,3770,124,meters,jsons/MX_seq36_0_VE125_flipped.json,270279,602971,43,Man
42,389420,final-intermixed-textured,v2,jsons/MX_seq36_0_VE125_flipped.json,http://54.235.29.9/FacialAge/BNav_EC2/DepthDuration/MX_fS_VE_MTurk/MX_fS_HTML.html#211,211,1536,695,1536,864,1-13-2024,13-32-27,43,VR_target_stimuli/s49_1x_4.67_341_BC.png,125,1x,4.67,4,3543,131,meters,jsons/MX_seq36_0_VE125_flipped.json,270279,602971,43,Man
43,389420,final-intermixed-textured,v2,jsons/MX_seq36_0_VE125_flipped.json,http://54.235.29.9/FacialAge/BNav_EC2/DepthDuration/MX_fS_VE_MTurk/MX_fS_HTML.html#211,211,1536,695,1536,864,1-13-2024,13-32-27,44,VR_target_stimuli/s7_0.75x_1.5_253_BC.png,125,0.75x,1.5,2,4671,132,meters,jsons/MX_seq36_0_VE125_flipped.json,270279,602971,43,Man
44,389420,final-intermixed-textured,v2,jsons/MX_seq36_0_VE125_flipped.json,http://54.235.29.9/FacialAge/BNav_EC2/DepthDuration/MX_fS_VE_MTurk/MX_fS_HTML.html#211,211,1536,695,1536,864,1-13-2024,13-32-27,45,catch_stimuli/c4_BC.png,125,,,3,3079,122,meters,jsons/MX_seq36_0_VE125_flipped.json,270279,602971,43,Man
45,389420,final-intermixed-textured,v2,jsons/MX_seq36_0_VE125_flipped.json,http://54.235.29.9/FacialAge/BNav_EC2/DepthDuration/MX_fS_VE_MTurk/MX_fS_HTML.html#211,211,1536,695,1536,864,1-13-2024,13-32-27,46,VR_target_stimuli/s20_1.3x_4.99_412.png,125,1.3x,4.99,4,3353,137,meters,jsons/MX_seq36_0_VE125_flipped.json,270279,602971,43,Man
46,389420,final-intermixed-textured,v2,jsons/MX_seq36_0_VE125_flipped.json,http://54.235.29.9/FacialAge/BNav_EC2/DepthDuration/MX_fS_VE_MTurk/MX_fS_HTML.html#211,211,1536,695,1536,864,1-13-2024,13-32-27,47,VR_target_stimuli/s31_1x_4.96_333.png,125,1x,4.96,0,3154,122,meters,jsons/MX_seq36_0_VE125_flipped.json,270279,602971,43,Man
47,389420,final-intermixed-textured,v2,jsons/MX_seq36_0_VE125_flipped.json,http://54.235.29.9/FacialAge/BNav_EC2/DepthDuration/MX_fS_VE_MTurk/MX_fS_HTML.html#211,211,1536,695,1536,864,1-13-2024,13-32-27,48,VR_target_stimuli/s33_1x_3.1_366.png,125,1x,3.1,3,3375,132,meters,jsons/MX_seq36_0_VE125_flipped.json,270279,602971,43,Man
48,389420,final-intermixed-textured,v2,jsons/MX_seq36_0_VE125_flipped.json,http://54.235.29.9/FacialAge/BNav_EC2/DepthDuration/MX_fS_VE_MTurk/MX_fS_HTML.html#211,211,1536,695,1536,864,1-13-2024,13-32-27,49,VR_target_stimuli/s52_0.75x_3.2_270_BC.png,125,0.75x,3.2,3,3323,119,meters,jsons/MX_seq36_0_VE125_flipped.json,270279,602971,43,Man
49,389420,final-intermixed-textured,v2,jsons/MX_seq36_0_VE125_flipped.json,http://54.235.29.9/FacialAge/BNav_EC2/DepthDuration/MX_fS_VE_MTurk/MX_fS_HTML.html#211,211,1536,695,1536,864,1-13-2024,13-32-27,50,VR_target_stimuli/s32_1.3x_1.5_224.png,125,1.3x,1.5,2,3443,119,meters,jsons/MX_seq36_0_VE125_flipped.json,270279,602971,43,Man
50,389420,final-intermixed-textured,v2,jsons/MX_seq36_0_VE125_flipped.json,http://54.235.29.9/FacialAge/BNav_EC2/DepthDuration/MX_fS_VE_MTurk/MX_fS_HTML.html#211,211,1536,695,1536,864,1-13-2024,13-32-27,51,VR_target_stimuli/s18_0.75x_2.25_341.png,125,0.75x,2.25,3,4701,128,meters,jsons/MX_seq36_0_VE125_flipped.json,270279,602971,43,Man
51,389420,final-intermixed-textured,v2,jsons/MX_seq36_0_VE125_flipped.json,http://54.235.29.9/FacialAge/BNav_EC2/DepthDuration/MX_fS_VE_MTurk/MX_fS_HTML.html#211,211,1536,695,1536,864,1-13-2024,13-32-27,52,VR_target_stimuli/s39_1x_1_207_BC.png,125,1x,1.0,2,11119,125,meters,jsons/MX_seq36_0_VE125_flipped.json,270279,602971,43,Man
52,389420,final-intermixed-textured,v2,jsons/MX_seq36_0_VE125_flipped.json,http://54.235.29.9/FacialAge/BNav_EC2/DepthDuration/MX_fS_VE_MTurk/MX_fS_HTML.html#211,211,1536,695,1536,864,1-13-2024,13-32-27,53,catch_stimuli/c5_BC.png,125,,,0,3620,117,meters,jsons/MX_seq36_0_VE125_flipped.json,270279,602971,43,Man
53,389420,final-intermixed-textured,v2,jsons/MX_seq36_0_VE125_flipped.json,http://54.235.29.9/FacialAge/BNav_EC2/DepthDuration/MX_fS_VE_MTurk/MX_fS_HTML.html#211,211,1536,695,1536,864,1-13-2024,13-32-27,54,VR_target_stimuli/s51_1.3x_3.64_479_BC.png,125,1.3x,3.64,2,4126,125,meters,jsons/MX_seq36_0_VE125_flipped.json,270279,602971,43,Man
54,389420,final-intermixed-textured,v2,jsons/MX_seq36_0_VE125_flipped.json,http://54.235.29.9/FacialAge/BNav_EC2/DepthDuration/MX_fS_VE_MTurk/MX_fS_HTML.html#211,211,1536,695,1536,864,1-13-2024,13-32-27,55,VR_target_stimuli/s43_1x_2.2_354.png,125,1x,2.2,3,7106,121,meters,jsons/MX_seq36_0_VE125_flipped.json,270279,602971,43,Man
55,389420,final-intermixed-textured,v2,jsons/MX_seq36_0_VE125_flipped.json,http://54.235.29.9/FacialAge/BNav_EC2/DepthDuration/MX_fS_VE_MTurk/MX_fS_HTML.html#211,211,1536,695,1536,864,1-13-2024,13-32-27,56,VR_target_stimuli/s24_0.75x_3.3_344.png,125,0.75x,3.3,2,3246,120,meters,jsons/MX_seq36_0_VE125_flipped.json,270279,602971,43,Man
56,389420,final-intermixed-textured,v2,jsons/MX_seq36_0_VE125_flipped.json,http://54.235.29.9/FacialAge/BNav_EC2/DepthDuration/MX_fS_VE_MTurk/MX_fS_HTML.html#211,211,1536,695,1536,864,1-13-2024,13-32-27,57,VR_target_stimuli/s10_1.3x_2.7_325_BC.png,125,1.3x,2.7,3,2995,125,meters,jsons/MX_seq36_0_VE125_flipped.json,270279,602971,43,Man
57,389420,final-intermixed-textured,v2,jsons/MX_seq36_0_VE125_flipped.json,http://54.235.29.9/FacialAge/BNav_EC2/DepthDuration/MX_fS_VE_MTurk/MX_fS_HTML.html#211,211,1536,695,1536,864,1-13-2024,13-32-27,58,VR_target_stimuli/s36_1.3x_4.1_442.png,125,1.3x,4.1,4,3533,120,meters,jsons/MX_seq36_0_VE125_flipped.json,270279,602971,43,Man
58,389420,final-intermixed-textured,v2,jsons/MX_seq36_0_VE125_flipped.json,http://54.235.29.9/FacialAge/BNav_EC2/DepthDuration/MX_fS_VE_MTurk/MX_fS_HTML.html#211,211,1536,695,1536,864,1-13-2024,13-32-27,59,VR_target_stimuli/s40_1x_1.2_319_BC.png,125,1x,1.2,3,3225,118,meters,jsons/MX_seq36_0_VE125_flipped.json,270279,602971,43,Man
59,389420,final-intermixed-textured,v2,jsons/MX_seq36_0_VE125_flipped.json,http://54.235.29.9/FacialAge/BNav_EC2/DepthDuration/MX_fS_VE_MTurk/MX_fS_HTML.html#211,211,1536,695,1536,864,1-13-2024,13-32-27,60,VR_target_stimuli/s41_0.75x_2.1_281_BC.png,125,0.75x,2.1,4,3535,119,meters,jsons/MX_seq36_0_VE125_flipped.json,270279,602971,43,Man
