,subjID,experimentName,versionName,sequenceName,url,selected_row,windowWidth,windowHeight,screenWidth,screenHeight,startDate,startTime,trial,stimulus,duration,scale,actual_depth,depth_estimate,trial_RT,log_sceneDuration,unitSelection,seq_filepath,experimentTime,totalTime,age,gender
0,402678,final-intermixed-textured,v2,jsons/MX_seq3_1_VE125_flipped.json,http://54.235.29.9/FacialAge/BNav_EC2/DepthDuration/MX_fS_VE_MTurk/MX_fS_HTML.html#40,40,1920,953,1920,1080,1-12-2024,13-49-57,1,VR_target_stimuli/s2_1.3x_2.7_397.png,125,1.3x,2.7,45,5369,120,meters,jsons/MX_seq3_1_VE125_flipped.json,195601,371255,23,Man
1,402678,final-intermixed-textured,v2,jsons/MX_seq3_1_VE125_flipped.json,http://54.235.29.9/FacialAge/BNav_EC2/DepthDuration/MX_fS_VE_MTurk/MX_fS_HTML.html#40,40,1920,953,1920,1080,1-12-2024,13-49-57,2,VR_target_stimuli/s6_0.75x_2.1_290.png,125,0.75x,2.1,40,4554,120,meters,jsons/MX_seq3_1_VE125_flipped.json,195601,371255,23,Man
2,402678,final-intermixed-textured,v2,jsons/MX_seq3_1_VE125_flipped.json,http://54.235.29.9/FacialAge/BNav_EC2/DepthDuration/MX_fS_VE_MTurk/MX_fS_HTML.html#40,40,1920,953,1920,1080,1-12-2024,13-49-57,3,VR_target_stimuli/s0_1x_2.6_351_BC.png,125,1x,2.6,0,3294,121,meters,jsons/MX_seq3_1_VE125_flipped.json,195601,371255,23,Man
3,402678,final-intermixed-textured,v2,jsons/MX_seq3_1_VE125_flipped.json,http://54.235.29.9/FacialAge/BNav_EC2/DepthDuration/MX_fS_VE_MTurk/MX_fS_HTML.html#40,40,1920,953,1920,1080,1-12-2024,13-49-57,4,VR_target_stimuli/s34_0.75x_2.8_269_BC.png,125,0.75x,2.8,20,3095,120,meters,jsons/MX_seq3_1_VE125_flipped.json,195601,371255,23,Man
4,402678,final-intermixed-textured,v2,jsons/MX_seq3_1_VE125_flipped.json,http://54.235.29.9/FacialAge/BNav_EC2/DepthDuration/MX_fS_VE_MTurk/MX_fS_HTML.html#40,40,1920,953,1920,1080,1-12-2024,13-49-57,5,VR_target_stimuli/s13_1.3x_2.4_313_BC.png,125,1.3x,2.4,50,2919,120,meters,jsons/MX_seq3_1_VE125_flipped.json,195601,371255,23,Man
5,402678,final-intermixed-textured,v2,jsons/MX_seq3_1_VE125_flipped.json,http://54.235.29.9/FacialAge/BNav_EC2/DepthDuration/MX_fS_VE_MTurk/MX_fS_HTML.html#40,40,1920,953,1920,1080,1-12-2024,13-49-57,6,VR_target_stimuli/s14_1x_ 3.83_357.png,125,1x,3.83,40,12748,130,meters,jsons/MX_seq3_1_VE125_flipped.json,195601,371255,23,Man
6,402678,final-intermixed-textured,v2,jsons/MX_seq3_1_VE125_flipped.json,http://54.235.29.9/FacialAge/BNav_EC2/DepthDuration/MX_fS_VE_MTurk/MX_fS_HTML.html#40,40,1920,953,1920,1080,1-12-2024,13-49-57,7,catch_stimuli/c0_BC.png,125,,,20,3979,130,meters,jsons/MX_seq3_1_VE125_flipped.json,195601,371255,23,Man
7,402678,final-intermixed-textured,v2,jsons/MX_seq3_1_VE125_flipped.json,http://54.235.29.9/FacialAge/BNav_EC2/DepthDuration/MX_fS_VE_MTurk/MX_fS_HTML.html#40,40,1920,953,1920,1080,1-12-2024,13-49-57,8,VR_target_stimuli/s47_1x_3.45_370.png,125,1x,3.45,50,4185,131,meters,jsons/MX_seq3_1_VE125_flipped.json,195601,371255,23,Man
8,402678,final-intermixed-textured,v2,jsons/MX_seq3_1_VE125_flipped.json,http://54.235.29.9/FacialAge/BNav_EC2/DepthDuration/MX_fS_VE_MTurk/MX_fS_HTML.html#40,40,1920,953,1920,1080,1-12-2024,13-49-57,9,VR_target_stimuli/s29_0.75x_1.3_246_BC.png,125,0.75x,1.3,50,2081,130,meters,jsons/MX_seq3_1_VE125_flipped.json,195601,371255,23,Man
9,402678,final-intermixed-textured,v2,jsons/MX_seq3_1_VE125_flipped.json,http://54.235.29.9/FacialAge/BNav_EC2/DepthDuration/MX_fS_VE_MTurk/MX_fS_HTML.html#40,40,1920,953,1920,1080,1-12-2024,13-49-57,10,VR_target_stimuli/s28_1.3x_3.2_365.png,125,1.3x,3.2,40,2260,120,meters,jsons/MX_seq3_1_VE125_flipped.json,195601,371255,23,Man
10,402678,final-intermixed-textured,v2,jsons/MX_seq3_1_VE125_flipped.json,http://54.235.29.9/FacialAge/BNav_EC2/DepthDuration/MX_fS_VE_MTurk/MX_fS_HTML.html#40,40,1920,953,1920,1080,1-12-2024,13-49-57,11,VR_target_stimuli/s48_0.75x_2.55_243.png,125,0.75x,2.55,0,2417,120,meters,jsons/MX_seq3_1_VE125_flipped.json,195601,371255,23,Man
11,402678,final-intermixed-textured,v2,jsons/MX_seq3_1_VE125_flipped.json,http://54.235.29.9/FacialAge/BNav_EC2/DepthDuration/MX_fS_VE_MTurk/MX_fS_HTML.html#40,40,1920,953,1920,1080,1-12-2024,13-49-57,12,VR_target_stimuli/s19_1x_1.21_263_BC.png,125,1x,1.21,20,2842,130,meters,jsons/MX_seq3_1_VE125_flipped.json,195601,371255,23,Man
12,402678,final-intermixed-textured,v2,jsons/MX_seq3_1_VE125_flipped.json,http://54.235.29.9/FacialAge/BNav_EC2/DepthDuration/MX_fS_VE_MTurk/MX_fS_HTML.html#40,40,1920,953,1920,1080,1-12-2024,13-49-57,13,VR_target_stimuli/s21_1.3x_4.22_384_BC.png,125,1.3x,4.22,20,5900,120,meters,jsons/MX_seq3_1_VE125_flipped.json,195601,371255,23,Man
13,402678,final-intermixed-textured,v2,jsons/MX_seq3_1_VE125_flipped.json,http://54.235.29.9/FacialAge/BNav_EC2/DepthDuration/MX_fS_VE_MTurk/MX_fS_HTML.html#40,40,1920,953,1920,1080,1-12-2024,13-49-57,14,VR_target_stimuli/s8_1x_3.1_332_BC.png,125,1x,3.1,20,1875,120,meters,jsons/MX_seq3_1_VE125_flipped.json,195601,371255,23,Man
14,402678,final-intermixed-textured,v2,jsons/MX_seq3_1_VE125_flipped.json,http://54.235.29.9/FacialAge/BNav_EC2/DepthDuration/MX_fS_VE_MTurk/MX_fS_HTML.html#40,40,1920,953,1920,1080,1-12-2024,13-49-57,15,VR_target_stimuli/s27_0.75x_1.76_243_BC.png,125,0.75x,1.76,20,1871,120,meters,jsons/MX_seq3_1_VE125_flipped.json,195601,371255,23,Man
15,402678,final-intermixed-textured,v2,jsons/MX_seq3_1_VE125_flipped.json,http://54.235.29.9/FacialAge/BNav_EC2/DepthDuration/MX_fS_VE_MTurk/MX_fS_HTML.html#40,40,1920,953,1920,1080,1-12-2024,13-49-57,16,VR_target_stimuli/s15_1.3x_4.2_389_BC.png,125,1.3x,4.2,45,2627,119,meters,jsons/MX_seq3_1_VE125_flipped.json,195601,371255,23,Man
16,402678,final-intermixed-textured,v2,jsons/MX_seq3_1_VE125_flipped.json,http://54.235.29.9/FacialAge/BNav_EC2/DepthDuration/MX_fS_VE_MTurk/MX_fS_HTML.html#40,40,1920,953,1920,1080,1-12-2024,13-49-57,17,catch_stimuli/c1_BC.png,125,,,0,1537,130,meters,jsons/MX_seq3_1_VE125_flipped.json,195601,371255,23,Man
17,402678,final-intermixed-textured,v2,jsons/MX_seq3_1_VE125_flipped.json,http://54.235.29.9/FacialAge/BNav_EC2/DepthDuration/MX_fS_VE_MTurk/MX_fS_HTML.html#40,40,1920,953,1920,1080,1-12-2024,13-49-57,18,VR_target_stimuli/s4_1.3x_1.4_328.png,125,1.3x,1.4,50,1898,130,meters,jsons/MX_seq3_1_VE125_flipped.json,195601,371255,23,Man
18,402678,final-intermixed-textured,v2,jsons/MX_seq3_1_VE125_flipped.json,http://54.235.29.9/FacialAge/BNav_EC2/DepthDuration/MX_fS_VE_MTurk/MX_fS_HTML.html#40,40,1920,953,1920,1080,1-12-2024,13-49-57,19,VR_target_stimuli/s35_1x_2_331.png,125,1x,2.0,50,1858,130,meters,jsons/MX_seq3_1_VE125_flipped.json,195601,371255,23,Man
19,402678,final-intermixed-textured,v2,jsons/MX_seq3_1_VE125_flipped.json,http://54.235.29.9/FacialAge/BNav_EC2/DepthDuration/MX_fS_VE_MTurk/MX_fS_HTML.html#40,40,1920,953,1920,1080,1-12-2024,13-49-57,20,VR_target_stimuli/s49_0.75x_4.67_328.png,125,0.75x,4.67,15,2218,129,meters,jsons/MX_seq3_1_VE125_flipped.json,195601,371255,23,Man
20,402678,final-intermixed-textured,v2,jsons/MX_seq3_1_VE125_flipped.json,http://54.235.29.9/FacialAge/BNav_EC2/DepthDuration/MX_fS_VE_MTurk/MX_fS_HTML.html#40,40,1920,953,1920,1080,1-12-2024,13-49-57,21,VR_target_stimuli/s7_1x_1.5_255.png,125,1x,1.5,20,1803,130,meters,jsons/MX_seq3_1_VE125_flipped.json,195601,371255,23,Man
21,402678,final-intermixed-textured,v2,jsons/MX_seq3_1_VE125_flipped.json,http://54.235.29.9/FacialAge/BNav_EC2/DepthDuration/MX_fS_VE_MTurk/MX_fS_HTML.html#40,40,1920,953,1920,1080,1-12-2024,13-49-57,22,VR_target_stimuli/s20_1.3x_4.99_412_BC.png,125,1.3x,4.99,30,2837,120,meters,jsons/MX_seq3_1_VE125_flipped.json,195601,371255,23,Man
22,402678,final-intermixed-textured,v2,jsons/MX_seq3_1_VE125_flipped.json,http://54.235.29.9/FacialAge/BNav_EC2/DepthDuration/MX_fS_VE_MTurk/MX_fS_HTML.html#40,40,1920,953,1920,1080,1-12-2024,13-49-57,23,VR_target_stimuli/s31_0.75x_4.96_329.png,125,0.75x,4.96,1,2162,130,meters,jsons/MX_seq3_1_VE125_flipped.json,195601,371255,23,Man
23,402678,final-intermixed-textured,v2,jsons/MX_seq3_1_VE125_flipped.json,http://54.235.29.9/FacialAge/BNav_EC2/DepthDuration/MX_fS_VE_MTurk/MX_fS_HTML.html#40,40,1920,953,1920,1080,1-12-2024,13-49-57,24,VR_target_stimuli/s33_1.3x_3.1_378.png,125,1.3x,3.1,40,4660,120,meters,jsons/MX_seq3_1_VE125_flipped.json,195601,371255,23,Man
24,402678,final-intermixed-textured,v2,jsons/MX_seq3_1_VE125_flipped.json,http://54.235.29.9/FacialAge/BNav_EC2/DepthDuration/MX_fS_VE_MTurk/MX_fS_HTML.html#40,40,1920,953,1920,1080,1-12-2024,13-49-57,25,VR_target_stimuli/s52_1x_3.2_275_BC.png,125,1x,3.2,20,1955,130,meters,jsons/MX_seq3_1_VE125_flipped.json,195601,371255,23,Man
25,402678,final-intermixed-textured,v2,jsons/MX_seq3_1_VE125_flipped.json,http://54.235.29.9/FacialAge/BNav_EC2/DepthDuration/MX_fS_VE_MTurk/MX_fS_HTML.html#40,40,1920,953,1920,1080,1-12-2024,13-49-57,26,catch_stimuli/c2_BC.png,125,,,0,1808,129,meters,jsons/MX_seq3_1_VE125_flipped.json,195601,371255,23,Man
26,402678,final-intermixed-textured,v2,jsons/MX_seq3_1_VE125_flipped.json,http://54.235.29.9/FacialAge/BNav_EC2/DepthDuration/MX_fS_VE_MTurk/MX_fS_HTML.html#40,40,1920,953,1920,1080,1-12-2024,13-49-57,27,VR_target_stimuli/s32_0.75x_1.5_213_BC.png,125,0.75x,1.5,0,1323,130,meters,jsons/MX_seq3_1_VE125_flipped.json,195601,371255,23,Man
27,402678,final-intermixed-textured,v2,jsons/MX_seq3_1_VE125_flipped.json,http://54.235.29.9/FacialAge/BNav_EC2/DepthDuration/MX_fS_VE_MTurk/MX_fS_HTML.html#40,40,1920,953,1920,1080,1-12-2024,13-49-57,28,VR_target_stimuli/s18_0.75x_2.25_341.png,125,0.75x,2.25,40,2700,120,meters,jsons/MX_seq3_1_VE125_flipped.json,195601,371255,23,Man
28,402678,final-intermixed-textured,v2,jsons/MX_seq3_1_VE125_flipped.json,http://54.235.29.9/FacialAge/BNav_EC2/DepthDuration/MX_fS_VE_MTurk/MX_fS_HTML.html#40,40,1920,953,1920,1080,1-12-2024,13-49-57,29,VR_target_stimuli/s39_1.3x_1_208_BC.png,125,1.3x,1.0,40,1987,120,meters,jsons/MX_seq3_1_VE125_flipped.json,195601,371255,23,Man
29,402678,final-intermixed-textured,v2,jsons/MX_seq3_1_VE125_flipped.json,http://54.235.29.9/FacialAge/BNav_EC2/DepthDuration/MX_fS_VE_MTurk/MX_fS_HTML.html#40,40,1920,953,1920,1080,1-12-2024,13-49-57,30,VR_target_stimuli/s51_1x_3.64_461_BC.png,125,1x,3.64,60,2329,129,meters,jsons/MX_seq3_1_VE125_flipped.json,195601,371255,23,Man
30,402678,final-intermixed-textured,v2,jsons/MX_seq3_1_VE125_flipped.json,http://54.235.29.9/FacialAge/BNav_EC2/DepthDuration/MX_fS_VE_MTurk/MX_fS_HTML.html#40,40,1920,953,1920,1080,1-12-2024,13-49-57,31,VR_target_stimuli/s43_0.75x_2.2_348_BC.png,125,0.75x,2.2,5,1908,130,meters,jsons/MX_seq3_1_VE125_flipped.json,195601,371255,23,Man
31,402678,final-intermixed-textured,v2,jsons/MX_seq3_1_VE125_flipped.json,http://54.235.29.9/FacialAge/BNav_EC2/DepthDuration/MX_fS_VE_MTurk/MX_fS_HTML.html#40,40,1920,953,1920,1080,1-12-2024,13-49-57,32,VR_target_stimuli/s24_1x_3.3_349.png,125,1x,3.3,20,2642,130,meters,jsons/MX_seq3_1_VE125_flipped.json,195601,371255,23,Man
32,402678,final-intermixed-textured,v2,jsons/MX_seq3_1_VE125_flipped.json,http://54.235.29.9/FacialAge/BNav_EC2/DepthDuration/MX_fS_VE_MTurk/MX_fS_HTML.html#40,40,1920,953,1920,1080,1-12-2024,13-49-57,33,VR_target_stimuli/s10_1.3x_2.7_325.png,125,1.3x,2.7,50,7141,120,meters,jsons/MX_seq3_1_VE125_flipped.json,195601,371255,23,Man
33,402678,final-intermixed-textured,v2,jsons/MX_seq3_1_VE125_flipped.json,http://54.235.29.9/FacialAge/BNav_EC2/DepthDuration/MX_fS_VE_MTurk/MX_fS_HTML.html#40,40,1920,953,1920,1080,1-12-2024,13-49-57,34,catch_stimuli/c3_BC.png,125,,,0,1347,120,meters,jsons/MX_seq3_1_VE125_flipped.json,195601,371255,23,Man
34,402678,final-intermixed-textured,v2,jsons/MX_seq3_1_VE125_flipped.json,http://54.235.29.9/FacialAge/BNav_EC2/DepthDuration/MX_fS_VE_MTurk/MX_fS_HTML.html#40,40,1920,953,1920,1080,1-12-2024,13-49-57,35,VR_target_stimuli/s36_1x_4.1_423_BC.png,125,1x,4.1,60,1913,130,meters,jsons/MX_seq3_1_VE125_flipped.json,195601,371255,23,Man
35,402678,final-intermixed-textured,v2,jsons/MX_seq3_1_VE125_flipped.json,http://54.235.29.9/FacialAge/BNav_EC2/DepthDuration/MX_fS_VE_MTurk/MX_fS_HTML.html#40,40,1920,953,1920,1080,1-12-2024,13-49-57,36,VR_target_stimuli/s40_0.75x_1.2_308.png,125,0.75x,1.2,25,2758,120,meters,jsons/MX_seq3_1_VE125_flipped.json,195601,371255,23,Man
36,402678,final-intermixed-textured,v2,jsons/MX_seq3_1_VE125_flipped.json,http://54.235.29.9/FacialAge/BNav_EC2/DepthDuration/MX_fS_VE_MTurk/MX_fS_HTML.html#40,40,1920,953,1920,1080,1-12-2024,13-49-57,37,VR_target_stimuli/s41_1.3x_2.1_294.png,125,1.3x,2.1,20,1882,130,meters,jsons/MX_seq3_1_VE125_flipped.json,195601,371255,23,Man
37,402678,final-intermixed-textured,v2,jsons/MX_seq3_1_VE125_flipped.json,http://54.235.29.9/FacialAge/BNav_EC2/DepthDuration/MX_fS_VE_MTurk/MX_fS_HTML.html#40,40,1920,953,1920,1080,1-12-2024,13-49-57,38,VR_target_stimuli/s45_1.3x_3.5_377_BC.png,125,1.3x,3.5,30,1828,120,meters,jsons/MX_seq3_1_VE125_flipped.json,195601,371255,23,Man
38,402678,final-intermixed-textured,v2,jsons/MX_seq3_1_VE125_flipped.json,http://54.235.29.9/FacialAge/BNav_EC2/DepthDuration/MX_fS_VE_MTurk/MX_fS_HTML.html#40,40,1920,953,1920,1080,1-12-2024,13-49-57,39,VR_target_stimuli/s23_1x_3.65_353.png,125,1x,3.65,40,1786,130,meters,jsons/MX_seq3_1_VE125_flipped.json,195601,371255,23,Man
39,402678,final-intermixed-textured,v2,jsons/MX_seq3_1_VE125_flipped.json,http://54.235.29.9/FacialAge/BNav_EC2/DepthDuration/MX_fS_VE_MTurk/MX_fS_HTML.html#40,40,1920,953,1920,1080,1-12-2024,13-49-57,40,VR_target_stimuli/s26_0.75x_4_430_BC.png,125,0.75x,4.0,40,2232,130,meters,jsons/MX_seq3_1_VE125_flipped.json,195601,371255,23,Man
40,402678,final-intermixed-textured,v2,jsons/MX_seq3_1_VE125_flipped.json,http://54.235.29.9/FacialAge/BNav_EC2/DepthDuration/MX_fS_VE_MTurk/MX_fS_HTML.html#40,40,1920,953,1920,1080,1-12-2024,13-49-57,41,VR_target_stimuli/s12_1x_3.1_372.png,125,1x,3.1,40,1885,120,meters,jsons/MX_seq3_1_VE125_flipped.json,195601,371255,23,Man
41,402678,final-intermixed-textured,v2,jsons/MX_seq3_1_VE125_flipped.json,http://54.235.29.9/FacialAge/BNav_EC2/DepthDuration/MX_fS_VE_MTurk/MX_fS_HTML.html#40,40,1920,953,1920,1080,1-12-2024,13-49-57,42,VR_target_stimuli/s30_1.3x_2.3_337_BC.png,125,1.3x,2.3,40,1887,120,meters,jsons/MX_seq3_1_VE125_flipped.json,195601,371255,23,Man
42,402678,final-intermixed-textured,v2,jsons/MX_seq3_1_VE125_flipped.json,http://54.235.29.9/FacialAge/BNav_EC2/DepthDuration/MX_fS_VE_MTurk/MX_fS_HTML.html#40,40,1920,953,1920,1080,1-12-2024,13-49-57,43,VR_target_stimuli/s16_0.75x_1_217_BC.png,125,0.75x,1.0,40,2009,130,meters,jsons/MX_seq3_1_VE125_flipped.json,195601,371255,23,Man
43,402678,final-intermixed-textured,v2,jsons/MX_seq3_1_VE125_flipped.json,http://54.235.29.9/FacialAge/BNav_EC2/DepthDuration/MX_fS_VE_MTurk/MX_fS_HTML.html#40,40,1920,953,1920,1080,1-12-2024,13-49-57,44,VR_target_stimuli/s17_1.3x_1.8_300.png,125,1.3x,1.8,40,1786,129,meters,jsons/MX_seq3_1_VE125_flipped.json,195601,371255,23,Man
44,402678,final-intermixed-textured,v2,jsons/MX_seq3_1_VE125_flipped.json,http://54.235.29.9/FacialAge/BNav_EC2/DepthDuration/MX_fS_VE_MTurk/MX_fS_HTML.html#40,40,1920,953,1920,1080,1-12-2024,13-49-57,45,catch_stimuli/c4_BC.png,125,,,0,1689,129,meters,jsons/MX_seq3_1_VE125_flipped.json,195601,371255,23,Man
45,402678,final-intermixed-textured,v2,jsons/MX_seq3_1_VE125_flipped.json,http://54.235.29.9/FacialAge/BNav_EC2/DepthDuration/MX_fS_VE_MTurk/MX_fS_HTML.html#40,40,1920,953,1920,1080,1-12-2024,13-49-57,46,VR_target_stimuli/s5_1x_4_378_BC.png,125,1x,4.0,40,1723,129,meters,jsons/MX_seq3_1_VE125_flipped.json,195601,371255,23,Man
46,402678,final-intermixed-textured,v2,jsons/MX_seq3_1_VE125_flipped.json,http://54.235.29.9/FacialAge/BNav_EC2/DepthDuration/MX_fS_VE_MTurk/MX_fS_HTML.html#40,40,1920,953,1920,1080,1-12-2024,13-49-57,47,VR_target_stimuli/s37_0.75x_3.3_567.png,125,0.75x,3.3,120,2686,120,meters,jsons/MX_seq3_1_VE125_flipped.json,195601,371255,23,Man
47,402678,final-intermixed-textured,v2,jsons/MX_seq3_1_VE125_flipped.json,http://54.235.29.9/FacialAge/BNav_EC2/DepthDuration/MX_fS_VE_MTurk/MX_fS_HTML.html#40,40,1920,953,1920,1080,1-12-2024,13-49-57,48,VR_target_stimuli/s46_0.75x_2.42_343_BC.png,125,0.75x,2.42,40,4880,129,meters,jsons/MX_seq3_1_VE125_flipped.json,195601,371255,23,Man
48,402678,final-intermixed-textured,v2,jsons/MX_seq3_1_VE125_flipped.json,http://54.235.29.9/FacialAge/BNav_EC2/DepthDuration/MX_fS_VE_MTurk/MX_fS_HTML.html#40,40,1920,953,1920,1080,1-12-2024,13-49-57,49,VR_target_stimuli/s22_1.3x_4.29_364.png,125,1.3x,4.29,20,1938,120,meters,jsons/MX_seq3_1_VE125_flipped.json,195601,371255,23,Man
49,402678,final-intermixed-textured,v2,jsons/MX_seq3_1_VE125_flipped.json,http://54.235.29.9/FacialAge/BNav_EC2/DepthDuration/MX_fS_VE_MTurk/MX_fS_HTML.html#40,40,1920,953,1920,1080,1-12-2024,13-49-57,50,VR_target_stimuli/s42_1x_3.2_303.png,125,1x,3.2,20,2027,130,meters,jsons/MX_seq3_1_VE125_flipped.json,195601,371255,23,Man
50,402678,final-intermixed-textured,v2,jsons/MX_seq3_1_VE125_flipped.json,http://54.235.29.9/FacialAge/BNav_EC2/DepthDuration/MX_fS_VE_MTurk/MX_fS_HTML.html#40,40,1920,953,1920,1080,1-12-2024,13-49-57,51,VR_target_stimuli/s25_1.3x_1.4_299_BC.png,125,1.3x,1.4,40,1842,130,meters,jsons/MX_seq3_1_VE125_flipped.json,195601,371255,23,Man
51,402678,final-intermixed-textured,v2,jsons/MX_seq3_1_VE125_flipped.json,http://54.235.29.9/FacialAge/BNav_EC2/DepthDuration/MX_fS_VE_MTurk/MX_fS_HTML.html#40,40,1920,953,1920,1080,1-12-2024,13-49-57,52,VR_target_stimuli/s50_0.75x_4.53_517.png,125,0.75x,4.53,120,2508,120,meters,jsons/MX_seq3_1_VE125_flipped.json,195601,371255,23,Man
52,402678,final-intermixed-textured,v2,jsons/MX_seq3_1_VE125_flipped.json,http://54.235.29.9/FacialAge/BNav_EC2/DepthDuration/MX_fS_VE_MTurk/MX_fS_HTML.html#40,40,1920,953,1920,1080,1-12-2024,13-49-57,53,catch_stimuli/c5_BC.png,125,,,0,4522,130,meters,jsons/MX_seq3_1_VE125_flipped.json,195601,371255,23,Man
53,402678,final-intermixed-textured,v2,jsons/MX_seq3_1_VE125_flipped.json,http://54.235.29.9/FacialAge/BNav_EC2/DepthDuration/MX_fS_VE_MTurk/MX_fS_HTML.html#40,40,1920,953,1920,1080,1-12-2024,13-49-57,54,VR_target_stimuli/s53_1x_1.6_387_BC.png,125,1x,1.6,60,2004,120,meters,jsons/MX_seq3_1_VE125_flipped.json,195601,371255,23,Man
54,402678,final-intermixed-textured,v2,jsons/MX_seq3_1_VE125_flipped.json,http://54.235.29.9/FacialAge/BNav_EC2/DepthDuration/MX_fS_VE_MTurk/MX_fS_HTML.html#40,40,1920,953,1920,1080,1-12-2024,13-49-57,55,VR_target_stimuli/s38_0.75x_3.55_346_BC.png,125,0.75x,3.55,45,1927,130,meters,jsons/MX_seq3_1_VE125_flipped.json,195601,371255,23,Man
55,402678,final-intermixed-textured,v2,jsons/MX_seq3_1_VE125_flipped.json,http://54.235.29.9/FacialAge/BNav_EC2/DepthDuration/MX_fS_VE_MTurk/MX_fS_HTML.html#40,40,1920,953,1920,1080,1-12-2024,13-49-57,56,VR_target_stimuli/s9_1.3x_1.2_276.png,125,1.3x,1.2,40,1777,130,meters,jsons/MX_seq3_1_VE125_flipped.json,195601,371255,23,Man
56,402678,final-intermixed-textured,v2,jsons/MX_seq3_1_VE125_flipped.json,http://54.235.29.9/FacialAge/BNav_EC2/DepthDuration/MX_fS_VE_MTurk/MX_fS_HTML.html#40,40,1920,953,1920,1080,1-12-2024,13-49-57,57,VR_target_stimuli/s44_1x_4.4_317.png,125,1x,4.4,5,1809,130,meters,jsons/MX_seq3_1_VE125_flipped.json,195601,371255,23,Man
57,402678,final-intermixed-textured,v2,jsons/MX_seq3_1_VE125_flipped.json,http://54.235.29.9/FacialAge/BNav_EC2/DepthDuration/MX_fS_VE_MTurk/MX_fS_HTML.html#40,40,1920,953,1920,1080,1-12-2024,13-49-57,58,VR_target_stimuli/s3_1x_5_385_BC.png,125,1x,5.0,0,3980,130,meters,jsons/MX_seq3_1_VE125_flipped.json,195601,371255,23,Man
58,402678,final-intermixed-textured,v2,jsons/MX_seq3_1_VE125_flipped.json,http://54.235.29.9/FacialAge/BNav_EC2/DepthDuration/MX_fS_VE_MTurk/MX_fS_HTML.html#40,40,1920,953,1920,1080,1-12-2024,13-49-57,59,VR_target_stimuli/s1_0.75x_1.7_265.png,125,0.75x,1.7,30,2076,130,meters,jsons/MX_seq3_1_VE125_flipped.json,195601,371255,23,Man
59,402678,final-intermixed-textured,v2,jsons/MX_seq3_1_VE125_flipped.json,http://54.235.29.9/FacialAge/BNav_EC2/DepthDuration/MX_fS_VE_MTurk/MX_fS_HTML.html#40,40,1920,953,1920,1080,1-12-2024,13-49-57,60,VR_target_stimuli/s11_1.3x_5_363_BC.png,125,1.3x,5.0,20,1831,129,meters,jsons/MX_seq3_1_VE125_flipped.json,195601,371255,23,Man
