,subjID,experimentName,versionName,sequenceName,url,selected_row,windowWidth,windowHeight,screenWidth,screenHeight,startDate,startTime,trial,stimulus,duration,scale,actual_depth,depth_estimate,trial_RT,log_sceneDuration,unitSelection,seq_filepath,experimentTime,totalTime,age,gender
0,432227,final-intermixed-textured,v2,jsons/MX_seq24_2_VE125_flipped.json,http://54.235.29.9/FacialAge/BNav_EC2/DepthDuration/MX_fS_VE_MTurk/MX_fS_HTML.html#87,87,1528,708,1536,864,1-13-2024,12-56-8,1,VR_target_stimuli/s33_1x_3.1_366_BC.png,125,1x,3.1,0.0,5952,124,meters,jsons/MX_seq24_2_VE125_flipped.json,385680,739956,43,Man
1,432227,final-intermixed-textured,v2,jsons/MX_seq24_2_VE125_flipped.json,http://54.235.29.9/FacialAge/BNav_EC2/DepthDuration/MX_fS_VE_MTurk/MX_fS_HTML.html#87,87,1528,708,1536,864,1-13-2024,12-56-8,2,VR_target_stimuli/s52_1.3x_3.2_280_BC.png,125,1.3x,3.2,0.0,6318,125,meters,jsons/MX_seq24_2_VE125_flipped.json,385680,739956,43,Man
2,432227,final-intermixed-textured,v2,jsons/MX_seq24_2_VE125_flipped.json,http://54.235.29.9/FacialAge/BNav_EC2/DepthDuration/MX_fS_VE_MTurk/MX_fS_HTML.html#87,87,1528,708,1536,864,1-13-2024,12-56-8,3,VR_target_stimuli/s32_0.75x_1.5_213.png,125,0.75x,1.5,0.0,5875,124,meters,jsons/MX_seq24_2_VE125_flipped.json,385680,739956,43,Man
3,432227,final-intermixed-textured,v2,jsons/MX_seq24_2_VE125_flipped.json,http://54.235.29.9/FacialAge/BNav_EC2/DepthDuration/MX_fS_VE_MTurk/MX_fS_HTML.html#87,87,1528,708,1536,864,1-13-2024,12-56-8,4,VR_target_stimuli/s18_1.3x_2.25_368.png,125,1.3x,2.25,0.0,5190,122,meters,jsons/MX_seq24_2_VE125_flipped.json,385680,739956,43,Man
4,432227,final-intermixed-textured,v2,jsons/MX_seq24_2_VE125_flipped.json,http://54.235.29.9/FacialAge/BNav_EC2/DepthDuration/MX_fS_VE_MTurk/MX_fS_HTML.html#87,87,1528,708,1536,864,1-13-2024,12-56-8,5,VR_target_stimuli/s39_1x_1_207.png,125,1x,1.0,0.0,4937,123,meters,jsons/MX_seq24_2_VE125_flipped.json,385680,739956,43,Man
5,432227,final-intermixed-textured,v2,jsons/MX_seq24_2_VE125_flipped.json,http://54.235.29.9/FacialAge/BNav_EC2/DepthDuration/MX_fS_VE_MTurk/MX_fS_HTML.html#87,87,1528,708,1536,864,1-13-2024,12-56-8,6,VR_target_stimuli/s51_0.75x_3.64_460_BC.png,125,0.75x,3.64,0.0,8250,122,meters,jsons/MX_seq24_2_VE125_flipped.json,385680,739956,43,Man
6,432227,final-intermixed-textured,v2,jsons/MX_seq24_2_VE125_flipped.json,http://54.235.29.9/FacialAge/BNav_EC2/DepthDuration/MX_fS_VE_MTurk/MX_fS_HTML.html#87,87,1528,708,1536,864,1-13-2024,12-56-8,7,catch_stimuli/c0_BC.png,125,,,0.0,5498,123,meters,jsons/MX_seq24_2_VE125_flipped.json,385680,739956,43,Man
7,432227,final-intermixed-textured,v2,jsons/MX_seq24_2_VE125_flipped.json,http://54.235.29.9/FacialAge/BNav_EC2/DepthDuration/MX_fS_VE_MTurk/MX_fS_HTML.html#87,87,1528,708,1536,864,1-13-2024,12-56-8,8,VR_target_stimuli/s43_0.75x_2.2_348.png,125,0.75x,2.2,0.0,5611,125,meters,jsons/MX_seq24_2_VE125_flipped.json,385680,739956,43,Man
8,432227,final-intermixed-textured,v2,jsons/MX_seq24_2_VE125_flipped.json,http://54.235.29.9/FacialAge/BNav_EC2/DepthDuration/MX_fS_VE_MTurk/MX_fS_HTML.html#87,87,1528,708,1536,864,1-13-2024,12-56-8,9,VR_target_stimuli/s24_1.3x_3.3_352_BC.png,125,1.3x,3.3,0.0,5648,124,meters,jsons/MX_seq24_2_VE125_flipped.json,385680,739956,43,Man
9,432227,final-intermixed-textured,v2,jsons/MX_seq24_2_VE125_flipped.json,http://54.235.29.9/FacialAge/BNav_EC2/DepthDuration/MX_fS_VE_MTurk/MX_fS_HTML.html#87,87,1528,708,1536,864,1-13-2024,12-56-8,10,VR_target_stimuli/s10_1x_2.7_324_BC.png,125,1x,2.7,0.0,5182,137,meters,jsons/MX_seq24_2_VE125_flipped.json,385680,739956,43,Man
10,432227,final-intermixed-textured,v2,jsons/MX_seq24_2_VE125_flipped.json,http://54.235.29.9/FacialAge/BNav_EC2/DepthDuration/MX_fS_VE_MTurk/MX_fS_HTML.html#87,87,1528,708,1536,864,1-13-2024,12-56-8,11,VR_target_stimuli/s36_1.3x_4.1_442.png,125,1.3x,4.1,0.0,6909,123,meters,jsons/MX_seq24_2_VE125_flipped.json,385680,739956,43,Man
11,432227,final-intermixed-textured,v2,jsons/MX_seq24_2_VE125_flipped.json,http://54.235.29.9/FacialAge/BNav_EC2/DepthDuration/MX_fS_VE_MTurk/MX_fS_HTML.html#87,87,1528,708,1536,864,1-13-2024,12-56-8,12,VR_target_stimuli/s40_0.75x_1.2_308_BC.png,125,0.75x,1.2,0.0,5510,123,meters,jsons/MX_seq24_2_VE125_flipped.json,385680,739956,43,Man
12,432227,final-intermixed-textured,v2,jsons/MX_seq24_2_VE125_flipped.json,http://54.235.29.9/FacialAge/BNav_EC2/DepthDuration/MX_fS_VE_MTurk/MX_fS_HTML.html#87,87,1528,708,1536,864,1-13-2024,12-56-8,13,VR_target_stimuli/s41_1x_2.1_286.png,125,1x,2.1,0.0,5042,124,meters,jsons/MX_seq24_2_VE125_flipped.json,385680,739956,43,Man
13,432227,final-intermixed-textured,v2,jsons/MX_seq24_2_VE125_flipped.json,http://54.235.29.9/FacialAge/BNav_EC2/DepthDuration/MX_fS_VE_MTurk/MX_fS_HTML.html#87,87,1528,708,1536,864,1-13-2024,12-56-8,14,VR_target_stimuli/s45_0.75x_3.5_362_BC.png,125,0.75x,3.5,0.0,5209,123,meters,jsons/MX_seq24_2_VE125_flipped.json,385680,739956,43,Man
14,432227,final-intermixed-textured,v2,jsons/MX_seq24_2_VE125_flipped.json,http://54.235.29.9/FacialAge/BNav_EC2/DepthDuration/MX_fS_VE_MTurk/MX_fS_HTML.html#87,87,1528,708,1536,864,1-13-2024,12-56-8,15,VR_target_stimuli/s23_1.3x_3.65_354_BC.png,125,1.3x,3.65,0.0,4740,124,meters,jsons/MX_seq24_2_VE125_flipped.json,385680,739956,43,Man
15,432227,final-intermixed-textured,v2,jsons/MX_seq24_2_VE125_flipped.json,http://54.235.29.9/FacialAge/BNav_EC2/DepthDuration/MX_fS_VE_MTurk/MX_fS_HTML.html#87,87,1528,708,1536,864,1-13-2024,12-56-8,16,VR_target_stimuli/s26_1x_4_433.png,125,1x,4.0,0.0,4155,124,meters,jsons/MX_seq24_2_VE125_flipped.json,385680,739956,43,Man
16,432227,final-intermixed-textured,v2,jsons/MX_seq24_2_VE125_flipped.json,http://54.235.29.9/FacialAge/BNav_EC2/DepthDuration/MX_fS_VE_MTurk/MX_fS_HTML.html#87,87,1528,708,1536,864,1-13-2024,12-56-8,17,catch_stimuli/c1_BC.png,125,,,0.0,3287,122,meters,jsons/MX_seq24_2_VE125_flipped.json,385680,739956,43,Man
17,432227,final-intermixed-textured,v2,jsons/MX_seq24_2_VE125_flipped.json,http://54.235.29.9/FacialAge/BNav_EC2/DepthDuration/MX_fS_VE_MTurk/MX_fS_HTML.html#87,87,1528,708,1536,864,1-13-2024,12-56-8,18,VR_target_stimuli/s12_1x_3.1_372_BC.png,125,1x,3.1,0.5,14351,123,meters,jsons/MX_seq24_2_VE125_flipped.json,385680,739956,43,Man
18,432227,final-intermixed-textured,v2,jsons/MX_seq24_2_VE125_flipped.json,http://54.235.29.9/FacialAge/BNav_EC2/DepthDuration/MX_fS_VE_MTurk/MX_fS_HTML.html#87,87,1528,708,1536,864,1-13-2024,12-56-8,19,VR_target_stimuli/s30_0.75x_2.3_332.png,125,0.75x,2.3,2.0,5840,122,meters,jsons/MX_seq24_2_VE125_flipped.json,385680,739956,43,Man
19,432227,final-intermixed-textured,v2,jsons/MX_seq24_2_VE125_flipped.json,http://54.235.29.9/FacialAge/BNav_EC2/DepthDuration/MX_fS_VE_MTurk/MX_fS_HTML.html#87,87,1528,708,1536,864,1-13-2024,12-56-8,20,VR_target_stimuli/s16_1.3x_1_223.png,125,1.3x,1.0,2.0,9675,138,meters,jsons/MX_seq24_2_VE125_flipped.json,385680,739956,43,Man
20,432227,final-intermixed-textured,v2,jsons/MX_seq24_2_VE125_flipped.json,http://54.235.29.9/FacialAge/BNav_EC2/DepthDuration/MX_fS_VE_MTurk/MX_fS_HTML.html#87,87,1528,708,1536,864,1-13-2024,12-56-8,21,VR_target_stimuli/s17_0.75x_1.8_285_BC.png,125,0.75x,1.8,2.0,7971,123,meters,jsons/MX_seq24_2_VE125_flipped.json,385680,739956,43,Man
21,432227,final-intermixed-textured,v2,jsons/MX_seq24_2_VE125_flipped.json,http://54.235.29.9/FacialAge/BNav_EC2/DepthDuration/MX_fS_VE_MTurk/MX_fS_HTML.html#87,87,1528,708,1536,864,1-13-2024,12-56-8,22,VR_target_stimuli/s5_1x_4_378.png,125,1x,4.0,3.0,5935,123,meters,jsons/MX_seq24_2_VE125_flipped.json,385680,739956,43,Man
22,432227,final-intermixed-textured,v2,jsons/MX_seq24_2_VE125_flipped.json,http://54.235.29.9/FacialAge/BNav_EC2/DepthDuration/MX_fS_VE_MTurk/MX_fS_HTML.html#87,87,1528,708,1536,864,1-13-2024,12-56-8,23,VR_target_stimuli/s37_1.3x_3.3_555.png,125,1.3x,3.3,0.0,4382,122,meters,jsons/MX_seq24_2_VE125_flipped.json,385680,739956,43,Man
23,432227,final-intermixed-textured,v2,jsons/MX_seq24_2_VE125_flipped.json,http://54.235.29.9/FacialAge/BNav_EC2/DepthDuration/MX_fS_VE_MTurk/MX_fS_HTML.html#87,87,1528,708,1536,864,1-13-2024,12-56-8,24,VR_target_stimuli/s46_1x_2.42_348_BC.png,125,1x,2.42,0.0,4202,124,meters,jsons/MX_seq24_2_VE125_flipped.json,385680,739956,43,Man
24,432227,final-intermixed-textured,v2,jsons/MX_seq24_2_VE125_flipped.json,http://54.235.29.9/FacialAge/BNav_EC2/DepthDuration/MX_fS_VE_MTurk/MX_fS_HTML.html#87,87,1528,708,1536,864,1-13-2024,12-56-8,25,VR_target_stimuli/s22_0.75x_4.29_348.png,125,0.75x,4.29,0.0,5205,126,meters,jsons/MX_seq24_2_VE125_flipped.json,385680,739956,43,Man
25,432227,final-intermixed-textured,v2,jsons/MX_seq24_2_VE125_flipped.json,http://54.235.29.9/FacialAge/BNav_EC2/DepthDuration/MX_fS_VE_MTurk/MX_fS_HTML.html#87,87,1528,708,1536,864,1-13-2024,12-56-8,26,catch_stimuli/c2_BC.png,125,,,0.0,4025,124,meters,jsons/MX_seq24_2_VE125_flipped.json,385680,739956,43,Man
26,432227,final-intermixed-textured,v2,jsons/MX_seq24_2_VE125_flipped.json,http://54.235.29.9/FacialAge/BNav_EC2/DepthDuration/MX_fS_VE_MTurk/MX_fS_HTML.html#87,87,1528,708,1536,864,1-13-2024,12-56-8,27,VR_target_stimuli/s42_1.3x_3.2_305_BC.png,125,1.3x,3.2,2.0,6163,124,meters,jsons/MX_seq24_2_VE125_flipped.json,385680,739956,43,Man
27,432227,final-intermixed-textured,v2,jsons/MX_seq24_2_VE125_flipped.json,http://54.235.29.9/FacialAge/BNav_EC2/DepthDuration/MX_fS_VE_MTurk/MX_fS_HTML.html#87,87,1528,708,1536,864,1-13-2024,12-56-8,28,VR_target_stimuli/s25_1.3x_1.4_299.png,125,1.3x,1.4,0.0,4916,125,meters,jsons/MX_seq24_2_VE125_flipped.json,385680,739956,43,Man
28,432227,final-intermixed-textured,v2,jsons/MX_seq24_2_VE125_flipped.json,http://54.235.29.9/FacialAge/BNav_EC2/DepthDuration/MX_fS_VE_MTurk/MX_fS_HTML.html#87,87,1528,708,1536,864,1-13-2024,12-56-8,29,VR_target_stimuli/s50_1x_4.53_518.png,125,1x,4.53,2.0,9300,124,meters,jsons/MX_seq24_2_VE125_flipped.json,385680,739956,43,Man
29,432227,final-intermixed-textured,v2,jsons/MX_seq24_2_VE125_flipped.json,http://54.235.29.9/FacialAge/BNav_EC2/DepthDuration/MX_fS_VE_MTurk/MX_fS_HTML.html#87,87,1528,708,1536,864,1-13-2024,12-56-8,30,VR_target_stimuli/s53_0.75x_1.6_403.png,125,0.75x,1.6,2.0,7895,137,meters,jsons/MX_seq24_2_VE125_flipped.json,385680,739956,43,Man
30,432227,final-intermixed-textured,v2,jsons/MX_seq24_2_VE125_flipped.json,http://54.235.29.9/FacialAge/BNav_EC2/DepthDuration/MX_fS_VE_MTurk/MX_fS_HTML.html#87,87,1528,708,1536,864,1-13-2024,12-56-8,31,VR_target_stimuli/s38_1.3x_3.55_358_BC.png,125,1.3x,3.55,2.0,4746,123,meters,jsons/MX_seq24_2_VE125_flipped.json,385680,739956,43,Man
31,432227,final-intermixed-textured,v2,jsons/MX_seq24_2_VE125_flipped.json,http://54.235.29.9/FacialAge/BNav_EC2/DepthDuration/MX_fS_VE_MTurk/MX_fS_HTML.html#87,87,1528,708,1536,864,1-13-2024,12-56-8,32,VR_target_stimuli/s9_0.75x_1.2_260_BC.png,125,0.75x,1.2,0.0,3960,124,meters,jsons/MX_seq24_2_VE125_flipped.json,385680,739956,43,Man
32,432227,final-intermixed-textured,v2,jsons/MX_seq24_2_VE125_flipped.json,http://54.235.29.9/FacialAge/BNav_EC2/DepthDuration/MX_fS_VE_MTurk/MX_fS_HTML.html#87,87,1528,708,1536,864,1-13-2024,12-56-8,33,VR_target_stimuli/s44_1x_4.4_317_BC.png,125,1x,4.4,0.0,7511,125,meters,jsons/MX_seq24_2_VE125_flipped.json,385680,739956,43,Man
33,432227,final-intermixed-textured,v2,jsons/MX_seq24_2_VE125_flipped.json,http://54.235.29.9/FacialAge/BNav_EC2/DepthDuration/MX_fS_VE_MTurk/MX_fS_HTML.html#87,87,1528,708,1536,864,1-13-2024,12-56-8,34,catch_stimuli/c3_BC.png,125,,,0.0,4937,125,meters,jsons/MX_seq24_2_VE125_flipped.json,385680,739956,43,Man
34,432227,final-intermixed-textured,v2,jsons/MX_seq24_2_VE125_flipped.json,http://54.235.29.9/FacialAge/BNav_EC2/DepthDuration/MX_fS_VE_MTurk/MX_fS_HTML.html#87,87,1528,708,1536,864,1-13-2024,12-56-8,35,VR_target_stimuli/s3_0.75x_5_381.png,125,0.75x,5.0,0.0,4220,123,meters,jsons/MX_seq24_2_VE125_flipped.json,385680,739956,43,Man
35,432227,final-intermixed-textured,v2,jsons/MX_seq24_2_VE125_flipped.json,http://54.235.29.9/FacialAge/BNav_EC2/DepthDuration/MX_fS_VE_MTurk/MX_fS_HTML.html#87,87,1528,708,1536,864,1-13-2024,12-56-8,36,VR_target_stimuli/s1_1.3x_1.7_261.png,125,1.3x,1.7,0.0,9111,124,meters,jsons/MX_seq24_2_VE125_flipped.json,385680,739956,43,Man
36,432227,final-intermixed-textured,v2,jsons/MX_seq24_2_VE125_flipped.json,http://54.235.29.9/FacialAge/BNav_EC2/DepthDuration/MX_fS_VE_MTurk/MX_fS_HTML.html#87,87,1528,708,1536,864,1-13-2024,12-56-8,37,VR_target_stimuli/s11_1x_5_361.png,125,1x,5.0,3.0,5608,125,meters,jsons/MX_seq24_2_VE125_flipped.json,385680,739956,43,Man
37,432227,final-intermixed-textured,v2,jsons/MX_seq24_2_VE125_flipped.json,http://54.235.29.9/FacialAge/BNav_EC2/DepthDuration/MX_fS_VE_MTurk/MX_fS_HTML.html#87,87,1528,708,1536,864,1-13-2024,12-56-8,38,VR_target_stimuli/s2_1x_2.7_390_BC.png,125,1x,2.7,2.0,6899,124,meters,jsons/MX_seq24_2_VE125_flipped.json,385680,739956,43,Man
38,432227,final-intermixed-textured,v2,jsons/MX_seq24_2_VE125_flipped.json,http://54.235.29.9/FacialAge/BNav_EC2/DepthDuration/MX_fS_VE_MTurk/MX_fS_HTML.html#87,87,1528,708,1536,864,1-13-2024,12-56-8,39,VR_target_stimuli/s6_0.75x_2.1_290_BC.png,125,0.75x,2.1,1.5,7431,123,meters,jsons/MX_seq24_2_VE125_flipped.json,385680,739956,43,Man
39,432227,final-intermixed-textured,v2,jsons/MX_seq24_2_VE125_flipped.json,http://54.235.29.9/FacialAge/BNav_EC2/DepthDuration/MX_fS_VE_MTurk/MX_fS_HTML.html#87,87,1528,708,1536,864,1-13-2024,12-56-8,40,VR_target_stimuli/s0_1.3x_2.6_356_BC.png,125,1.3x,2.6,2.0,4240,125,meters,jsons/MX_seq24_2_VE125_flipped.json,385680,739956,43,Man
40,432227,final-intermixed-textured,v2,jsons/MX_seq24_2_VE125_flipped.json,http://54.235.29.9/FacialAge/BNav_EC2/DepthDuration/MX_fS_VE_MTurk/MX_fS_HTML.html#87,87,1528,708,1536,864,1-13-2024,12-56-8,41,VR_target_stimuli/s34_0.75x_2.8_269.png,125,0.75x,2.8,2.5,7656,125,meters,jsons/MX_seq24_2_VE125_flipped.json,385680,739956,43,Man
41,432227,final-intermixed-textured,v2,jsons/MX_seq24_2_VE125_flipped.json,http://54.235.29.9/FacialAge/BNav_EC2/DepthDuration/MX_fS_VE_MTurk/MX_fS_HTML.html#87,87,1528,708,1536,864,1-13-2024,12-56-8,42,VR_target_stimuli/s13_1x_2.4_310_BC.png,125,1x,2.4,0.0,3778,124,meters,jsons/MX_seq24_2_VE125_flipped.json,385680,739956,43,Man
42,432227,final-intermixed-textured,v2,jsons/MX_seq24_2_VE125_flipped.json,http://54.235.29.9/FacialAge/BNav_EC2/DepthDuration/MX_fS_VE_MTurk/MX_fS_HTML.html#87,87,1528,708,1536,864,1-13-2024,12-56-8,43,VR_target_stimuli/s14_1.3x_3.83_359_BC.png,125,1.3x,3.83,3.0,4260,123,meters,jsons/MX_seq24_2_VE125_flipped.json,385680,739956,43,Man
43,432227,final-intermixed-textured,v2,jsons/MX_seq24_2_VE125_flipped.json,http://54.235.29.9/FacialAge/BNav_EC2/DepthDuration/MX_fS_VE_MTurk/MX_fS_HTML.html#87,87,1528,708,1536,864,1-13-2024,12-56-8,44,VR_target_stimuli/s47_1x_3.45_370.png,125,1x,3.45,2.5,7758,124,meters,jsons/MX_seq24_2_VE125_flipped.json,385680,739956,43,Man
44,432227,final-intermixed-textured,v2,jsons/MX_seq24_2_VE125_flipped.json,http://54.235.29.9/FacialAge/BNav_EC2/DepthDuration/MX_fS_VE_MTurk/MX_fS_HTML.html#87,87,1528,708,1536,864,1-13-2024,12-56-8,45,catch_stimuli/c4_BC.png,125,,,0.0,4547,125,meters,jsons/MX_seq24_2_VE125_flipped.json,385680,739956,43,Man
45,432227,final-intermixed-textured,v2,jsons/MX_seq24_2_VE125_flipped.json,http://54.235.29.9/FacialAge/BNav_EC2/DepthDuration/MX_fS_VE_MTurk/MX_fS_HTML.html#87,87,1528,708,1536,864,1-13-2024,12-56-8,46,VR_target_stimuli/s29_0.75x_1.3_246_BC.png,125,0.75x,1.3,2.5,7413,123,meters,jsons/MX_seq24_2_VE125_flipped.json,385680,739956,43,Man
46,432227,final-intermixed-textured,v2,jsons/MX_seq24_2_VE125_flipped.json,http://54.235.29.9/FacialAge/BNav_EC2/DepthDuration/MX_fS_VE_MTurk/MX_fS_HTML.html#87,87,1528,708,1536,864,1-13-2024,12-56-8,47,VR_target_stimuli/s28_1.3x_3.2_365.png,125,1.3x,3.2,2.0,5804,124,meters,jsons/MX_seq24_2_VE125_flipped.json,385680,739956,43,Man
47,432227,final-intermixed-textured,v2,jsons/MX_seq24_2_VE125_flipped.json,http://54.235.29.9/FacialAge/BNav_EC2/DepthDuration/MX_fS_VE_MTurk/MX_fS_HTML.html#87,87,1528,708,1536,864,1-13-2024,12-56-8,48,VR_target_stimuli/s48_1.3x_2.55_255.png,125,1.3x,2.55,0.0,3925,122,meters,jsons/MX_seq24_2_VE125_flipped.json,385680,739956,43,Man
48,432227,final-intermixed-textured,v2,jsons/MX_seq24_2_VE125_flipped.json,http://54.235.29.9/FacialAge/BNav_EC2/DepthDuration/MX_fS_VE_MTurk/MX_fS_HTML.html#87,87,1528,708,1536,864,1-13-2024,12-56-8,49,VR_target_stimuli/s19_1x_1.21_263.png,125,1x,1.21,0.0,4046,122,meters,jsons/MX_seq24_2_VE125_flipped.json,385680,739956,43,Man
49,432227,final-intermixed-textured,v2,jsons/MX_seq24_2_VE125_flipped.json,http://54.235.29.9/FacialAge/BNav_EC2/DepthDuration/MX_fS_VE_MTurk/MX_fS_HTML.html#87,87,1528,708,1536,864,1-13-2024,12-56-8,50,VR_target_stimuli/s21_0.75x_4.22_374.png,125,0.75x,4.22,1.5,6669,124,meters,jsons/MX_seq24_2_VE125_flipped.json,385680,739956,43,Man
50,432227,final-intermixed-textured,v2,jsons/MX_seq24_2_VE125_flipped.json,http://54.235.29.9/FacialAge/BNav_EC2/DepthDuration/MX_fS_VE_MTurk/MX_fS_HTML.html#87,87,1528,708,1536,864,1-13-2024,12-56-8,51,VR_target_stimuli/s8_1x_3.1_332_BC.png,125,1x,3.1,2.5,7149,124,meters,jsons/MX_seq24_2_VE125_flipped.json,385680,739956,43,Man
51,432227,final-intermixed-textured,v2,jsons/MX_seq24_2_VE125_flipped.json,http://54.235.29.9/FacialAge/BNav_EC2/DepthDuration/MX_fS_VE_MTurk/MX_fS_HTML.html#87,87,1528,708,1536,864,1-13-2024,12-56-8,52,VR_target_stimuli/s27_1.3x_1.76_250_BC.png,125,1.3x,1.76,2.5,8766,125,meters,jsons/MX_seq24_2_VE125_flipped.json,385680,739956,43,Man
52,432227,final-intermixed-textured,v2,jsons/MX_seq24_2_VE125_flipped.json,http://54.235.29.9/FacialAge/BNav_EC2/DepthDuration/MX_fS_VE_MTurk/MX_fS_HTML.html#87,87,1528,708,1536,864,1-13-2024,12-56-8,53,catch_stimuli/c5_BC.png,125,,,0.0,6101,126,meters,jsons/MX_seq24_2_VE125_flipped.json,385680,739956,43,Man
53,432227,final-intermixed-textured,v2,jsons/MX_seq24_2_VE125_flipped.json,http://54.235.29.9/FacialAge/BNav_EC2/DepthDuration/MX_fS_VE_MTurk/MX_fS_HTML.html#87,87,1528,708,1536,864,1-13-2024,12-56-8,54,VR_target_stimuli/s15_0.75x_4.2_388_BC.png,125,0.75x,4.2,0.0,3970,123,meters,jsons/MX_seq24_2_VE125_flipped.json,385680,739956,43,Man
54,432227,final-intermixed-textured,v2,jsons/MX_seq24_2_VE125_flipped.json,http://54.235.29.9/FacialAge/BNav_EC2/DepthDuration/MX_fS_VE_MTurk/MX_fS_HTML.html#87,87,1528,708,1536,864,1-13-2024,12-56-8,55,VR_target_stimuli/s4_1.3x_1.4_328.png,125,1.3x,1.4,2.0,5515,127,meters,jsons/MX_seq24_2_VE125_flipped.json,385680,739956,43,Man
55,432227,final-intermixed-textured,v2,jsons/MX_seq24_2_VE125_flipped.json,http://54.235.29.9/FacialAge/BNav_EC2/DepthDuration/MX_fS_VE_MTurk/MX_fS_HTML.html#87,87,1528,708,1536,864,1-13-2024,12-56-8,56,VR_target_stimuli/s35_1x_2_331.png,125,1x,2.0,2.0,4072,124,meters,jsons/MX_seq24_2_VE125_flipped.json,385680,739956,43,Man
56,432227,final-intermixed-textured,v2,jsons/MX_seq24_2_VE125_flipped.json,http://54.235.29.9/FacialAge/BNav_EC2/DepthDuration/MX_fS_VE_MTurk/MX_fS_HTML.html#87,87,1528,708,1536,864,1-13-2024,12-56-8,57,VR_target_stimuli/s49_0.75x_4.67_328_BC.png,125,0.75x,4.67,0.0,4664,123,meters,jsons/MX_seq24_2_VE125_flipped.json,385680,739956,43,Man
57,432227,final-intermixed-textured,v2,jsons/MX_seq24_2_VE125_flipped.json,http://54.235.29.9/FacialAge/BNav_EC2/DepthDuration/MX_fS_VE_MTurk/MX_fS_HTML.html#87,87,1528,708,1536,864,1-13-2024,12-56-8,58,VR_target_stimuli/s7_0.75x_1.5_253.png,125,0.75x,1.5,1.5,6263,123,meters,jsons/MX_seq24_2_VE125_flipped.json,385680,739956,43,Man
58,432227,final-intermixed-textured,v2,jsons/MX_seq24_2_VE125_flipped.json,http://54.235.29.9/FacialAge/BNav_EC2/DepthDuration/MX_fS_VE_MTurk/MX_fS_HTML.html#87,87,1528,708,1536,864,1-13-2024,12-56-8,59,VR_target_stimuli/s20_1.3x_4.99_412_BC.png,125,1.3x,4.99,1.0,5705,123,meters,jsons/MX_seq24_2_VE125_flipped.json,385680,739956,43,Man
59,432227,final-intermixed-textured,v2,jsons/MX_seq24_2_VE125_flipped.json,http://54.235.29.9/FacialAge/BNav_EC2/DepthDuration/MX_fS_VE_MTurk/MX_fS_HTML.html#87,87,1528,708,1536,864,1-13-2024,12-56-8,60,VR_target_stimuli/s31_1x_4.96_333_BC.png,125,1x,4.96,0.0,5287,123,meters,jsons/MX_seq24_2_VE125_flipped.json,385680,739956,43,Man
