,subjID,experimentName,versionName,sequenceName,url,selected_row,windowWidth,windowHeight,screenWidth,screenHeight,startDate,startTime,trial,stimulus,duration,scale,actual_depth,depth_estimate,trial_RT,log_sceneDuration,unitSelection,seq_filepath,experimentTime,totalTime,age,gender
0,432350,final-intermixed-textured,v2,jsons/MX_seq51_2_VE125_flipped.json,http://54.235.29.9/FacialAge/BNav_EC2/DepthDuration/MX_fS_VE_MTurk/MX_fS_HTML.html#225,225,1358,620,1366,768,1-13-2024,13-33-6,1,VR_target_stimuli/s38_1x_3.55_353.png,125,1x,3.55,3.0,12133,125,meters,jsons/MX_seq51_2_VE125_flipped.json,444970,739096,66,Man
1,432350,final-intermixed-textured,v2,jsons/MX_seq51_2_VE125_flipped.json,http://54.235.29.9/FacialAge/BNav_EC2/DepthDuration/MX_fS_VE_MTurk/MX_fS_HTML.html#225,225,1358,620,1366,768,1-13-2024,13-33-6,2,VR_target_stimuli/s9_1.3x_1.2_276.png,125,1.3x,1.2,2.0,8332,126,meters,jsons/MX_seq51_2_VE125_flipped.json,444970,739096,66,Man
2,432350,final-intermixed-textured,v2,jsons/MX_seq51_2_VE125_flipped.json,http://54.235.29.9/FacialAge/BNav_EC2/DepthDuration/MX_fS_VE_MTurk/MX_fS_HTML.html#225,225,1358,620,1366,768,1-13-2024,13-33-6,3,VR_target_stimuli/s44_0.75x_4.4_314_BC.png,125,0.75x,4.4,0.0,9964,123,meters,jsons/MX_seq51_2_VE125_flipped.json,444970,739096,66,Man
3,432350,final-intermixed-textured,v2,jsons/MX_seq51_2_VE125_flipped.json,http://54.235.29.9/FacialAge/BNav_EC2/DepthDuration/MX_fS_VE_MTurk/MX_fS_HTML.html#225,225,1358,620,1366,768,1-13-2024,13-33-6,4,VR_target_stimuli/s3_1.3x_5_390_BC.png,125,1.3x,5.0,3.5,14491,122,meters,jsons/MX_seq51_2_VE125_flipped.json,444970,739096,66,Man
4,432350,final-intermixed-textured,v2,jsons/MX_seq51_2_VE125_flipped.json,http://54.235.29.9/FacialAge/BNav_EC2/DepthDuration/MX_fS_VE_MTurk/MX_fS_HTML.html#225,225,1358,620,1366,768,1-13-2024,13-33-6,5,VR_target_stimuli/s1_1x_1.7_262_BC.png,125,1x,1.7,2.0,6322,138,meters,jsons/MX_seq51_2_VE125_flipped.json,444970,739096,66,Man
5,432350,final-intermixed-textured,v2,jsons/MX_seq51_2_VE125_flipped.json,http://54.235.29.9/FacialAge/BNav_EC2/DepthDuration/MX_fS_VE_MTurk/MX_fS_HTML.html#225,225,1358,620,1366,768,1-13-2024,13-33-6,6,VR_target_stimuli/s11_0.75x_5_359.png,125,0.75x,5.0,4.0,8067,124,meters,jsons/MX_seq51_2_VE125_flipped.json,444970,739096,66,Man
6,432350,final-intermixed-textured,v2,jsons/MX_seq51_2_VE125_flipped.json,http://54.235.29.9/FacialAge/BNav_EC2/DepthDuration/MX_fS_VE_MTurk/MX_fS_HTML.html#225,225,1358,620,1366,768,1-13-2024,13-33-6,7,catch_stimuli/c0_BC.png,125,,,0.0,5755,126,meters,jsons/MX_seq51_2_VE125_flipped.json,444970,739096,66,Man
7,432350,final-intermixed-textured,v2,jsons/MX_seq51_2_VE125_flipped.json,http://54.235.29.9/FacialAge/BNav_EC2/DepthDuration/MX_fS_VE_MTurk/MX_fS_HTML.html#225,225,1358,620,1366,768,1-13-2024,13-33-6,8,VR_target_stimuli/s2_0.75x_2.7_384_BC.png,125,0.75x,2.7,0.0,5108,125,meters,jsons/MX_seq51_2_VE125_flipped.json,444970,739096,66,Man
8,432350,final-intermixed-textured,v2,jsons/MX_seq51_2_VE125_flipped.json,http://54.235.29.9/FacialAge/BNav_EC2/DepthDuration/MX_fS_VE_MTurk/MX_fS_HTML.html#225,225,1358,620,1366,768,1-13-2024,13-33-6,9,VR_target_stimuli/s6_1.3x_2.1_298_BC.png,125,1.3x,2.1,0.0,15001,137,meters,jsons/MX_seq51_2_VE125_flipped.json,444970,739096,66,Man
9,432350,final-intermixed-textured,v2,jsons/MX_seq51_2_VE125_flipped.json,http://54.235.29.9/FacialAge/BNav_EC2/DepthDuration/MX_fS_VE_MTurk/MX_fS_HTML.html#225,225,1358,620,1366,768,1-13-2024,13-33-6,10,VR_target_stimuli/s0_1x_2.6_351_BC.png,125,1x,2.6,2.5,11191,122,meters,jsons/MX_seq51_2_VE125_flipped.json,444970,739096,66,Man
10,432350,final-intermixed-textured,v2,jsons/MX_seq51_2_VE125_flipped.json,http://54.235.29.9/FacialAge/BNav_EC2/DepthDuration/MX_fS_VE_MTurk/MX_fS_HTML.html#225,225,1358,620,1366,768,1-13-2024,13-33-6,11,VR_target_stimuli/s34_1.3x_2.8_294.png,125,1.3x,2.8,2.0,5520,122,meters,jsons/MX_seq51_2_VE125_flipped.json,444970,739096,66,Man
11,432350,final-intermixed-textured,v2,jsons/MX_seq51_2_VE125_flipped.json,http://54.235.29.9/FacialAge/BNav_EC2/DepthDuration/MX_fS_VE_MTurk/MX_fS_HTML.html#225,225,1358,620,1366,768,1-13-2024,13-33-6,12,VR_target_stimuli/s13_0.75x_2.4_308.png,125,0.75x,2.4,2.0,6440,124,meters,jsons/MX_seq51_2_VE125_flipped.json,444970,739096,66,Man
12,432350,final-intermixed-textured,v2,jsons/MX_seq51_2_VE125_flipped.json,http://54.235.29.9/FacialAge/BNav_EC2/DepthDuration/MX_fS_VE_MTurk/MX_fS_HTML.html#225,225,1358,620,1366,768,1-13-2024,13-33-6,13,VR_target_stimuli/s14_1x_ 3.83_357.png,125,1x,3.83,3.0,3909,124,meters,jsons/MX_seq51_2_VE125_flipped.json,444970,739096,66,Man
13,432350,final-intermixed-textured,v2,jsons/MX_seq51_2_VE125_flipped.json,http://54.235.29.9/FacialAge/BNav_EC2/DepthDuration/MX_fS_VE_MTurk/MX_fS_HTML.html#225,225,1358,620,1366,768,1-13-2024,13-33-6,14,VR_target_stimuli/s47_0.75x_3.45_366_BC.png,125,0.75x,3.45,2.0,9742,123,meters,jsons/MX_seq51_2_VE125_flipped.json,444970,739096,66,Man
14,432350,final-intermixed-textured,v2,jsons/MX_seq51_2_VE125_flipped.json,http://54.235.29.9/FacialAge/BNav_EC2/DepthDuration/MX_fS_VE_MTurk/MX_fS_HTML.html#225,225,1358,620,1366,768,1-13-2024,13-33-6,15,VR_target_stimuli/s29_1.3x_1.3_253_BC.png,125,1.3x,1.3,0.0,4258,122,meters,jsons/MX_seq51_2_VE125_flipped.json,444970,739096,66,Man
15,432350,final-intermixed-textured,v2,jsons/MX_seq51_2_VE125_flipped.json,http://54.235.29.9/FacialAge/BNav_EC2/DepthDuration/MX_fS_VE_MTurk/MX_fS_HTML.html#225,225,1358,620,1366,768,1-13-2024,13-33-6,16,VR_target_stimuli/s28_1x_3.2_362.png,125,1x,3.2,2.0,7767,123,meters,jsons/MX_seq51_2_VE125_flipped.json,444970,739096,66,Man
16,432350,final-intermixed-textured,v2,jsons/MX_seq51_2_VE125_flipped.json,http://54.235.29.9/FacialAge/BNav_EC2/DepthDuration/MX_fS_VE_MTurk/MX_fS_HTML.html#225,225,1358,620,1366,768,1-13-2024,13-33-6,17,catch_stimuli/c1_BC.png,125,,,0.0,4519,124,meters,jsons/MX_seq51_2_VE125_flipped.json,444970,739096,66,Man
17,432350,final-intermixed-textured,v2,jsons/MX_seq51_2_VE125_flipped.json,http://54.235.29.9/FacialAge/BNav_EC2/DepthDuration/MX_fS_VE_MTurk/MX_fS_HTML.html#225,225,1358,620,1366,768,1-13-2024,13-33-6,18,VR_target_stimuli/s48_1x_2.55_256_BC.png,125,1x,2.55,2.0,4858,124,meters,jsons/MX_seq51_2_VE125_flipped.json,444970,739096,66,Man
18,432350,final-intermixed-textured,v2,jsons/MX_seq51_2_VE125_flipped.json,http://54.235.29.9/FacialAge/BNav_EC2/DepthDuration/MX_fS_VE_MTurk/MX_fS_HTML.html#225,225,1358,620,1366,768,1-13-2024,13-33-6,19,VR_target_stimuli/s19_0.75x_1.21_257.png,125,0.75x,1.21,2.0,5530,123,meters,jsons/MX_seq51_2_VE125_flipped.json,444970,739096,66,Man
19,432350,final-intermixed-textured,v2,jsons/MX_seq51_2_VE125_flipped.json,http://54.235.29.9/FacialAge/BNav_EC2/DepthDuration/MX_fS_VE_MTurk/MX_fS_HTML.html#225,225,1358,620,1366,768,1-13-2024,13-33-6,20,VR_target_stimuli/s21_1.3x_4.22_384.png,125,1.3x,4.22,2.0,5875,124,meters,jsons/MX_seq51_2_VE125_flipped.json,444970,739096,66,Man
20,432350,final-intermixed-textured,v2,jsons/MX_seq51_2_VE125_flipped.json,http://54.235.29.9/FacialAge/BNav_EC2/DepthDuration/MX_fS_VE_MTurk/MX_fS_HTML.html#225,225,1358,620,1366,768,1-13-2024,13-33-6,21,VR_target_stimuli/s8_0.75x_3.1_325_BC.png,125,0.75x,3.1,2.0,7278,122,meters,jsons/MX_seq51_2_VE125_flipped.json,444970,739096,66,Man
21,432350,final-intermixed-textured,v2,jsons/MX_seq51_2_VE125_flipped.json,http://54.235.29.9/FacialAge/BNav_EC2/DepthDuration/MX_fS_VE_MTurk/MX_fS_HTML.html#225,225,1358,620,1366,768,1-13-2024,13-33-6,22,VR_target_stimuli/s27_1x_1.76_248_BC.png,125,1x,1.76,2.0,5852,126,meters,jsons/MX_seq51_2_VE125_flipped.json,444970,739096,66,Man
22,432350,final-intermixed-textured,v2,jsons/MX_seq51_2_VE125_flipped.json,http://54.235.29.9/FacialAge/BNav_EC2/DepthDuration/MX_fS_VE_MTurk/MX_fS_HTML.html#225,225,1358,620,1366,768,1-13-2024,13-33-6,23,VR_target_stimuli/s15_1.3x_4.2_389.png,125,1.3x,4.2,3.0,5373,124,meters,jsons/MX_seq51_2_VE125_flipped.json,444970,739096,66,Man
23,432350,final-intermixed-textured,v2,jsons/MX_seq51_2_VE125_flipped.json,http://54.235.29.9/FacialAge/BNav_EC2/DepthDuration/MX_fS_VE_MTurk/MX_fS_HTML.html#225,225,1358,620,1366,768,1-13-2024,13-33-6,24,VR_target_stimuli/s4_1x_1.4_313.png,125,1x,1.4,2.0,4806,123,meters,jsons/MX_seq51_2_VE125_flipped.json,444970,739096,66,Man
24,432350,final-intermixed-textured,v2,jsons/MX_seq51_2_VE125_flipped.json,http://54.235.29.9/FacialAge/BNav_EC2/DepthDuration/MX_fS_VE_MTurk/MX_fS_HTML.html#225,225,1358,620,1366,768,1-13-2024,13-33-6,25,VR_target_stimuli/s35_0.75x_2_323.png,125,0.75x,2.0,2.0,4160,123,meters,jsons/MX_seq51_2_VE125_flipped.json,444970,739096,66,Man
25,432350,final-intermixed-textured,v2,jsons/MX_seq51_2_VE125_flipped.json,http://54.235.29.9/FacialAge/BNav_EC2/DepthDuration/MX_fS_VE_MTurk/MX_fS_HTML.html#225,225,1358,620,1366,768,1-13-2024,13-33-6,26,catch_stimuli/c2_BC.png,125,,,0.0,6165,126,meters,jsons/MX_seq51_2_VE125_flipped.json,444970,739096,66,Man
26,432350,final-intermixed-textured,v2,jsons/MX_seq51_2_VE125_flipped.json,http://54.235.29.9/FacialAge/BNav_EC2/DepthDuration/MX_fS_VE_MTurk/MX_fS_HTML.html#225,225,1358,620,1366,768,1-13-2024,13-33-6,27,VR_target_stimuli/s49_1.3x_4.67_354_BC.png,125,1.3x,4.67,3.0,3948,125,meters,jsons/MX_seq51_2_VE125_flipped.json,444970,739096,66,Man
27,432350,final-intermixed-textured,v2,jsons/MX_seq51_2_VE125_flipped.json,http://54.235.29.9/FacialAge/BNav_EC2/DepthDuration/MX_fS_VE_MTurk/MX_fS_HTML.html#225,225,1358,620,1366,768,1-13-2024,13-33-6,28,VR_target_stimuli/s7_1.3x_1.5_256_BC.png,125,1.3x,1.5,2.0,4504,123,meters,jsons/MX_seq51_2_VE125_flipped.json,444970,739096,66,Man
28,432350,final-intermixed-textured,v2,jsons/MX_seq51_2_VE125_flipped.json,http://54.235.29.9/FacialAge/BNav_EC2/DepthDuration/MX_fS_VE_MTurk/MX_fS_HTML.html#225,225,1358,620,1366,768,1-13-2024,13-33-6,29,VR_target_stimuli/s20_1x_4.99_398_BC.png,125,1x,4.99,3.0,8034,124,meters,jsons/MX_seq51_2_VE125_flipped.json,444970,739096,66,Man
29,432350,final-intermixed-textured,v2,jsons/MX_seq51_2_VE125_flipped.json,http://54.235.29.9/FacialAge/BNav_EC2/DepthDuration/MX_fS_VE_MTurk/MX_fS_HTML.html#225,225,1358,620,1366,768,1-13-2024,13-33-6,30,VR_target_stimuli/s31_0.75x_4.96_329_BC.png,125,0.75x,4.96,0.0,5914,122,meters,jsons/MX_seq51_2_VE125_flipped.json,444970,739096,66,Man
30,432350,final-intermixed-textured,v2,jsons/MX_seq51_2_VE125_flipped.json,http://54.235.29.9/FacialAge/BNav_EC2/DepthDuration/MX_fS_VE_MTurk/MX_fS_HTML.html#225,225,1358,620,1366,768,1-13-2024,13-33-6,31,VR_target_stimuli/s33_1.3x_3.1_378.png,125,1.3x,3.1,3.0,7942,125,meters,jsons/MX_seq51_2_VE125_flipped.json,444970,739096,66,Man
31,432350,final-intermixed-textured,v2,jsons/MX_seq51_2_VE125_flipped.json,http://54.235.29.9/FacialAge/BNav_EC2/DepthDuration/MX_fS_VE_MTurk/MX_fS_HTML.html#225,225,1358,620,1366,768,1-13-2024,13-33-6,32,VR_target_stimuli/s52_0.75x_3.2_270.png,125,0.75x,3.2,2.0,7380,123,meters,jsons/MX_seq51_2_VE125_flipped.json,444970,739096,66,Man
32,432350,final-intermixed-textured,v2,jsons/MX_seq51_2_VE125_flipped.json,http://54.235.29.9/FacialAge/BNav_EC2/DepthDuration/MX_fS_VE_MTurk/MX_fS_HTML.html#225,225,1358,620,1366,768,1-13-2024,13-33-6,33,VR_target_stimuli/s32_1x_1.5_218.png,125,1x,1.5,2.0,3279,125,meters,jsons/MX_seq51_2_VE125_flipped.json,444970,739096,66,Man
33,432350,final-intermixed-textured,v2,jsons/MX_seq51_2_VE125_flipped.json,http://54.235.29.9/FacialAge/BNav_EC2/DepthDuration/MX_fS_VE_MTurk/MX_fS_HTML.html#225,225,1358,620,1366,768,1-13-2024,13-33-6,34,catch_stimuli/c3_BC.png,125,,,0.0,5229,123,meters,jsons/MX_seq51_2_VE125_flipped.json,444970,739096,66,Man
34,432350,final-intermixed-textured,v2,jsons/MX_seq51_2_VE125_flipped.json,http://54.235.29.9/FacialAge/BNav_EC2/DepthDuration/MX_fS_VE_MTurk/MX_fS_HTML.html#225,225,1358,620,1366,768,1-13-2024,13-33-6,35,VR_target_stimuli/s18_0.75x_2.25_341.png,125,0.75x,2.25,0.0,5375,125,meters,jsons/MX_seq51_2_VE125_flipped.json,444970,739096,66,Man
35,432350,final-intermixed-textured,v2,jsons/MX_seq51_2_VE125_flipped.json,http://54.235.29.9/FacialAge/BNav_EC2/DepthDuration/MX_fS_VE_MTurk/MX_fS_HTML.html#225,225,1358,620,1366,768,1-13-2024,13-33-6,36,VR_target_stimuli/s39_1.3x_1_208_BC.png,125,1.3x,1.0,2.0,5202,139,meters,jsons/MX_seq51_2_VE125_flipped.json,444970,739096,66,Man
36,432350,final-intermixed-textured,v2,jsons/MX_seq51_2_VE125_flipped.json,http://54.235.29.9/FacialAge/BNav_EC2/DepthDuration/MX_fS_VE_MTurk/MX_fS_HTML.html#225,225,1358,620,1366,768,1-13-2024,13-33-6,37,VR_target_stimuli/s51_1x_3.64_461_BC.png,125,1x,3.64,2.0,4284,123,meters,jsons/MX_seq51_2_VE125_flipped.json,444970,739096,66,Man
37,432350,final-intermixed-textured,v2,jsons/MX_seq51_2_VE125_flipped.json,http://54.235.29.9/FacialAge/BNav_EC2/DepthDuration/MX_fS_VE_MTurk/MX_fS_HTML.html#225,225,1358,620,1366,768,1-13-2024,13-33-6,38,VR_target_stimuli/s43_1x_2.2_354.png,125,1x,2.2,2.5,12467,125,meters,jsons/MX_seq51_2_VE125_flipped.json,444970,739096,66,Man
38,432350,final-intermixed-textured,v2,jsons/MX_seq51_2_VE125_flipped.json,http://54.235.29.9/FacialAge/BNav_EC2/DepthDuration/MX_fS_VE_MTurk/MX_fS_HTML.html#225,225,1358,620,1366,768,1-13-2024,13-33-6,39,VR_target_stimuli/s24_0.75x_3.3_344_BC.png,125,0.75x,3.3,2.5,8827,123,meters,jsons/MX_seq51_2_VE125_flipped.json,444970,739096,66,Man
39,432350,final-intermixed-textured,v2,jsons/MX_seq51_2_VE125_flipped.json,http://54.235.29.9/FacialAge/BNav_EC2/DepthDuration/MX_fS_VE_MTurk/MX_fS_HTML.html#225,225,1358,620,1366,768,1-13-2024,13-33-6,40,VR_target_stimuli/s10_1.3x_2.7_325.png,125,1.3x,2.7,2.5,11228,123,meters,jsons/MX_seq51_2_VE125_flipped.json,444970,739096,66,Man
40,432350,final-intermixed-textured,v2,jsons/MX_seq51_2_VE125_flipped.json,http://54.235.29.9/FacialAge/BNav_EC2/DepthDuration/MX_fS_VE_MTurk/MX_fS_HTML.html#225,225,1358,620,1366,768,1-13-2024,13-33-6,41,VR_target_stimuli/s36_0.75x_4.1_407.png,125,0.75x,4.1,3.0,4676,123,meters,jsons/MX_seq51_2_VE125_flipped.json,444970,739096,66,Man
41,432350,final-intermixed-textured,v2,jsons/MX_seq51_2_VE125_flipped.json,http://54.235.29.9/FacialAge/BNav_EC2/DepthDuration/MX_fS_VE_MTurk/MX_fS_HTML.html#225,225,1358,620,1366,768,1-13-2024,13-33-6,42,VR_target_stimuli/s40_1x_1.2_319.png,125,1x,1.2,2.5,14204,123,meters,jsons/MX_seq51_2_VE125_flipped.json,444970,739096,66,Man
42,432350,final-intermixed-textured,v2,jsons/MX_seq51_2_VE125_flipped.json,http://54.235.29.9/FacialAge/BNav_EC2/DepthDuration/MX_fS_VE_MTurk/MX_fS_HTML.html#225,225,1358,620,1366,768,1-13-2024,13-33-6,43,VR_target_stimuli/s41_1.3x_2.1_294_BC.png,125,1.3x,2.1,3.0,5519,123,meters,jsons/MX_seq51_2_VE125_flipped.json,444970,739096,66,Man
43,432350,final-intermixed-textured,v2,jsons/MX_seq51_2_VE125_flipped.json,http://54.235.29.9/FacialAge/BNav_EC2/DepthDuration/MX_fS_VE_MTurk/MX_fS_HTML.html#225,225,1358,620,1366,768,1-13-2024,13-33-6,44,VR_target_stimuli/s45_1x_3.5_368_BC.png,125,1x,3.5,3.0,4792,123,meters,jsons/MX_seq51_2_VE125_flipped.json,444970,739096,66,Man
44,432350,final-intermixed-textured,v2,jsons/MX_seq51_2_VE125_flipped.json,http://54.235.29.9/FacialAge/BNav_EC2/DepthDuration/MX_fS_VE_MTurk/MX_fS_HTML.html#225,225,1358,620,1366,768,1-13-2024,13-33-6,45,catch_stimuli/c4_BC.png,125,,,0.0,4945,124,meters,jsons/MX_seq51_2_VE125_flipped.json,444970,739096,66,Man
45,432350,final-intermixed-textured,v2,jsons/MX_seq51_2_VE125_flipped.json,http://54.235.29.9/FacialAge/BNav_EC2/DepthDuration/MX_fS_VE_MTurk/MX_fS_HTML.html#225,225,1358,620,1366,768,1-13-2024,13-33-6,46,VR_target_stimuli/s23_0.75x_3.65_351_BC.png,125,0.75x,3.65,3.0,4293,123,meters,jsons/MX_seq51_2_VE125_flipped.json,444970,739096,66,Man
46,432350,final-intermixed-textured,v2,jsons/MX_seq51_2_VE125_flipped.json,http://54.235.29.9/FacialAge/BNav_EC2/DepthDuration/MX_fS_VE_MTurk/MX_fS_HTML.html#225,225,1358,620,1366,768,1-13-2024,13-33-6,47,VR_target_stimuli/s26_1.3x_4_441.png,125,1.3x,4.0,2.5,6870,124,meters,jsons/MX_seq51_2_VE125_flipped.json,444970,739096,66,Man
47,432350,final-intermixed-textured,v2,jsons/MX_seq51_2_VE125_flipped.json,http://54.235.29.9/FacialAge/BNav_EC2/DepthDuration/MX_fS_VE_MTurk/MX_fS_HTML.html#225,225,1358,620,1366,768,1-13-2024,13-33-6,48,VR_target_stimuli/s12_1.3x_3.1_375.png,125,1.3x,3.1,2.0,3982,123,meters,jsons/MX_seq51_2_VE125_flipped.json,444970,739096,66,Man
48,432350,final-intermixed-textured,v2,jsons/MX_seq51_2_VE125_flipped.json,http://54.235.29.9/FacialAge/BNav_EC2/DepthDuration/MX_fS_VE_MTurk/MX_fS_HTML.html#225,225,1358,620,1366,768,1-13-2024,13-33-6,49,VR_target_stimuli/s30_1x_2.3_334_BC.png,125,1x,2.3,2.5,7397,123,meters,jsons/MX_seq51_2_VE125_flipped.json,444970,739096,66,Man
49,432350,final-intermixed-textured,v2,jsons/MX_seq51_2_VE125_flipped.json,http://54.235.29.9/FacialAge/BNav_EC2/DepthDuration/MX_fS_VE_MTurk/MX_fS_HTML.html#225,225,1358,620,1366,768,1-13-2024,13-33-6,50,VR_target_stimuli/s16_0.75x_1_217.png,125,0.75x,1.0,2.0,3672,125,meters,jsons/MX_seq51_2_VE125_flipped.json,444970,739096,66,Man
50,432350,final-intermixed-textured,v2,jsons/MX_seq51_2_VE125_flipped.json,http://54.235.29.9/FacialAge/BNav_EC2/DepthDuration/MX_fS_VE_MTurk/MX_fS_HTML.html#225,225,1358,620,1366,768,1-13-2024,13-33-6,51,VR_target_stimuli/s17_1x_1.8_291.png,125,1x,1.8,2.0,3690,123,meters,jsons/MX_seq51_2_VE125_flipped.json,444970,739096,66,Man
51,432350,final-intermixed-textured,v2,jsons/MX_seq51_2_VE125_flipped.json,http://54.235.29.9/FacialAge/BNav_EC2/DepthDuration/MX_fS_VE_MTurk/MX_fS_HTML.html#225,225,1358,620,1366,768,1-13-2024,13-33-6,52,VR_target_stimuli/s5_1.3x_4_393_BC.png,125,1.3x,4.0,3.0,3705,124,meters,jsons/MX_seq51_2_VE125_flipped.json,444970,739096,66,Man
52,432350,final-intermixed-textured,v2,jsons/MX_seq51_2_VE125_flipped.json,http://54.235.29.9/FacialAge/BNav_EC2/DepthDuration/MX_fS_VE_MTurk/MX_fS_HTML.html#225,225,1358,620,1366,768,1-13-2024,13-33-6,53,catch_stimuli/c5_BC.png,125,,,0.0,5043,124,meters,jsons/MX_seq51_2_VE125_flipped.json,444970,739096,66,Man
53,432350,final-intermixed-textured,v2,jsons/MX_seq51_2_VE125_flipped.json,http://54.235.29.9/FacialAge/BNav_EC2/DepthDuration/MX_fS_VE_MTurk/MX_fS_HTML.html#225,225,1358,620,1366,768,1-13-2024,13-33-6,54,VR_target_stimuli/s37_0.75x_3.3_567_BC.png,125,0.75x,3.3,2.5,10361,124,meters,jsons/MX_seq51_2_VE125_flipped.json,444970,739096,66,Man
54,432350,final-intermixed-textured,v2,jsons/MX_seq51_2_VE125_flipped.json,http://54.235.29.9/FacialAge/BNav_EC2/DepthDuration/MX_fS_VE_MTurk/MX_fS_HTML.html#225,225,1358,620,1366,768,1-13-2024,13-33-6,55,VR_target_stimuli/s46_1.3x_2.42_354_BC.png,125,1.3x,2.42,3.0,6911,125,meters,jsons/MX_seq51_2_VE125_flipped.json,444970,739096,66,Man
55,432350,final-intermixed-textured,v2,jsons/MX_seq51_2_VE125_flipped.json,http://54.235.29.9/FacialAge/BNav_EC2/DepthDuration/MX_fS_VE_MTurk/MX_fS_HTML.html#225,225,1358,620,1366,768,1-13-2024,13-33-6,56,VR_target_stimuli/s22_1x_4.29_354_BC.png,125,1x,4.29,3.0,12525,125,meters,jsons/MX_seq51_2_VE125_flipped.json,444970,739096,66,Man
56,432350,final-intermixed-textured,v2,jsons/MX_seq51_2_VE125_flipped.json,http://54.235.29.9/FacialAge/BNav_EC2/DepthDuration/MX_fS_VE_MTurk/MX_fS_HTML.html#225,225,1358,620,1366,768,1-13-2024,13-33-6,57,VR_target_stimuli/s42_0.75x_3.2_301_BC.png,125,0.75x,3.2,2.5,7885,125,meters,jsons/MX_seq51_2_VE125_flipped.json,444970,739096,66,Man
57,432350,final-intermixed-textured,v2,jsons/MX_seq51_2_VE125_flipped.json,http://54.235.29.9/FacialAge/BNav_EC2/DepthDuration/MX_fS_VE_MTurk/MX_fS_HTML.html#225,225,1358,620,1366,768,1-13-2024,13-33-6,58,VR_target_stimuli/s25_0.75x_1.4_281.png,125,0.75x,1.4,2.0,5713,125,meters,jsons/MX_seq51_2_VE125_flipped.json,444970,739096,66,Man
58,432350,final-intermixed-textured,v2,jsons/MX_seq51_2_VE125_flipped.json,http://54.235.29.9/FacialAge/BNav_EC2/DepthDuration/MX_fS_VE_MTurk/MX_fS_HTML.html#225,225,1358,620,1366,768,1-13-2024,13-33-6,59,VR_target_stimuli/s50_1.3x_4.53_518.png,125,1.3x,4.53,2.5,11126,127,meters,jsons/MX_seq51_2_VE125_flipped.json,444970,739096,66,Man
59,432350,final-intermixed-textured,v2,jsons/MX_seq51_2_VE125_flipped.json,http://54.235.29.9/FacialAge/BNav_EC2/DepthDuration/MX_fS_VE_MTurk/MX_fS_HTML.html#225,225,1358,620,1366,768,1-13-2024,13-33-6,60,VR_target_stimuli/s53_1x_1.6_387.png,125,1x,1.6,2.0,5141,120,meters,jsons/MX_seq51_2_VE125_flipped.json,444970,739096,66,Man
