,subjID,experimentName,versionName,sequenceName,url,selected_row,windowWidth,windowHeight,screenWidth,screenHeight,startDate,startTime,trial,stimulus,duration,scale,actual_depth,depth_estimate,trial_RT,log_sceneDuration,unitSelection,seq_filepath,experimentTime,totalTime,age,gender
0,434672,final-intermixed-textured,v2,jsons/MX_seq13_2_VE125.json,http://54.235.29.9/FacialAge/BNav_EC2/DepthDuration/MX_fS_VE_MTurk/MX_fS_HTML.html#152,152,1526,749,1280,800,1-12-2024,18-17-16,1,VR_target_stimuli/s19_1x_1.21_263_BC.png,125,1x,1.21,3,2764,125,meters,jsons/MX_seq13_2_VE125.json,192433,761142,26,Woman
1,434672,final-intermixed-textured,v2,jsons/MX_seq13_2_VE125.json,http://54.235.29.9/FacialAge/BNav_EC2/DepthDuration/MX_fS_VE_MTurk/MX_fS_HTML.html#152,152,1526,749,1280,800,1-12-2024,18-17-16,2,VR_target_stimuli/s21_1.3x_4.22_384.png,125,1.3x,4.22,5,3994,125,meters,jsons/MX_seq13_2_VE125.json,192433,761142,26,Woman
2,434672,final-intermixed-textured,v2,jsons/MX_seq13_2_VE125.json,http://54.235.29.9/FacialAge/BNav_EC2/DepthDuration/MX_fS_VE_MTurk/MX_fS_HTML.html#152,152,1526,749,1280,800,1-12-2024,18-17-16,3,VR_target_stimuli/s8_0.75x_3.1_325_BC.png,125,0.75x,3.1,4,4096,124,meters,jsons/MX_seq13_2_VE125.json,192433,761142,26,Woman
3,434672,final-intermixed-textured,v2,jsons/MX_seq13_2_VE125.json,http://54.235.29.9/FacialAge/BNav_EC2/DepthDuration/MX_fS_VE_MTurk/MX_fS_HTML.html#152,152,1526,749,1280,800,1-12-2024,18-17-16,4,VR_target_stimuli/s27_1.3x_1.76_250_BC.png,125,1.3x,1.76,4,3651,125,meters,jsons/MX_seq13_2_VE125.json,192433,761142,26,Woman
4,434672,final-intermixed-textured,v2,jsons/MX_seq13_2_VE125.json,http://54.235.29.9/FacialAge/BNav_EC2/DepthDuration/MX_fS_VE_MTurk/MX_fS_HTML.html#152,152,1526,749,1280,800,1-12-2024,18-17-16,5,VR_target_stimuli/s15_1x_4.2_390.png,125,1x,4.2,4,2163,124,meters,jsons/MX_seq13_2_VE125.json,192433,761142,26,Woman
5,434672,final-intermixed-textured,v2,jsons/MX_seq13_2_VE125.json,http://54.235.29.9/FacialAge/BNav_EC2/DepthDuration/MX_fS_VE_MTurk/MX_fS_HTML.html#152,152,1526,749,1280,800,1-12-2024,18-17-16,6,VR_target_stimuli/s4_0.75x_1.4_301.png,125,0.75x,1.4,3,2820,125,meters,jsons/MX_seq13_2_VE125.json,192433,761142,26,Woman
6,434672,final-intermixed-textured,v2,jsons/MX_seq13_2_VE125.json,http://54.235.29.9/FacialAge/BNav_EC2/DepthDuration/MX_fS_VE_MTurk/MX_fS_HTML.html#152,152,1526,749,1280,800,1-12-2024,18-17-16,7,catch_stimuli/c0.png,125,,,0,3874,126,meters,jsons/MX_seq13_2_VE125.json,192433,761142,26,Woman
7,434672,final-intermixed-textured,v2,jsons/MX_seq13_2_VE125.json,http://54.235.29.9/FacialAge/BNav_EC2/DepthDuration/MX_fS_VE_MTurk/MX_fS_HTML.html#152,152,1526,749,1280,800,1-12-2024,18-17-16,8,VR_target_stimuli/s35_0.75x_2_323.png,125,0.75x,2.0,5,3084,126,meters,jsons/MX_seq13_2_VE125.json,192433,761142,26,Woman
8,434672,final-intermixed-textured,v2,jsons/MX_seq13_2_VE125.json,http://54.235.29.9/FacialAge/BNav_EC2/DepthDuration/MX_fS_VE_MTurk/MX_fS_HTML.html#152,152,1526,749,1280,800,1-12-2024,18-17-16,9,VR_target_stimuli/s49_1.3x_4.67_354.png,125,1.3x,4.67,5,2634,126,meters,jsons/MX_seq13_2_VE125.json,192433,761142,26,Woman
9,434672,final-intermixed-textured,v2,jsons/MX_seq13_2_VE125.json,http://54.235.29.9/FacialAge/BNav_EC2/DepthDuration/MX_fS_VE_MTurk/MX_fS_HTML.html#152,152,1526,749,1280,800,1-12-2024,18-17-16,10,VR_target_stimuli/s7_1x_1.5_255_BC.png,125,1x,1.5,3,2395,125,meters,jsons/MX_seq13_2_VE125.json,192433,761142,26,Woman
10,434672,final-intermixed-textured,v2,jsons/MX_seq13_2_VE125.json,http://54.235.29.9/FacialAge/BNav_EC2/DepthDuration/MX_fS_VE_MTurk/MX_fS_HTML.html#152,152,1526,749,1280,800,1-12-2024,18-17-16,11,VR_target_stimuli/s20_1.3x_4.99_412_BC.png,125,1.3x,4.99,6,2131,125,meters,jsons/MX_seq13_2_VE125.json,192433,761142,26,Woman
11,434672,final-intermixed-textured,v2,jsons/MX_seq13_2_VE125.json,http://54.235.29.9/FacialAge/BNav_EC2/DepthDuration/MX_fS_VE_MTurk/MX_fS_HTML.html#152,152,1526,749,1280,800,1-12-2024,18-17-16,12,VR_target_stimuli/s31_0.75x_4.96_329_BC.png,125,0.75x,4.96,5,1940,126,meters,jsons/MX_seq13_2_VE125.json,192433,761142,26,Woman
12,434672,final-intermixed-textured,v2,jsons/MX_seq13_2_VE125.json,http://54.235.29.9/FacialAge/BNav_EC2/DepthDuration/MX_fS_VE_MTurk/MX_fS_HTML.html#152,152,1526,749,1280,800,1-12-2024,18-17-16,13,VR_target_stimuli/s33_1x_3.1_366.png,125,1x,3.1,4,2203,125,meters,jsons/MX_seq13_2_VE125.json,192433,761142,26,Woman
13,434672,final-intermixed-textured,v2,jsons/MX_seq13_2_VE125.json,http://54.235.29.9/FacialAge/BNav_EC2/DepthDuration/MX_fS_VE_MTurk/MX_fS_HTML.html#152,152,1526,749,1280,800,1-12-2024,18-17-16,14,VR_target_stimuli/s52_0.75x_3.2_270.png,125,0.75x,3.2,6,2330,126,meters,jsons/MX_seq13_2_VE125.json,192433,761142,26,Woman
14,434672,final-intermixed-textured,v2,jsons/MX_seq13_2_VE125.json,http://54.235.29.9/FacialAge/BNav_EC2/DepthDuration/MX_fS_VE_MTurk/MX_fS_HTML.html#152,152,1526,749,1280,800,1-12-2024,18-17-16,15,VR_target_stimuli/s32_1.3x_1.5_224_BC.png,125,1.3x,1.5,6,2860,125,meters,jsons/MX_seq13_2_VE125.json,192433,761142,26,Woman
15,434672,final-intermixed-textured,v2,jsons/MX_seq13_2_VE125.json,http://54.235.29.9/FacialAge/BNav_EC2/DepthDuration/MX_fS_VE_MTurk/MX_fS_HTML.html#152,152,1526,749,1280,800,1-12-2024,18-17-16,16,VR_target_stimuli/s18_1x_2.25_353.png,125,1x,2.25,4,2643,125,meters,jsons/MX_seq13_2_VE125.json,192433,761142,26,Woman
16,434672,final-intermixed-textured,v2,jsons/MX_seq13_2_VE125.json,http://54.235.29.9/FacialAge/BNav_EC2/DepthDuration/MX_fS_VE_MTurk/MX_fS_HTML.html#152,152,1526,749,1280,800,1-12-2024,18-17-16,17,catch_stimuli/c1.png,125,,,0,2858,125,meters,jsons/MX_seq13_2_VE125.json,192433,761142,26,Woman
17,434672,final-intermixed-textured,v2,jsons/MX_seq13_2_VE125.json,http://54.235.29.9/FacialAge/BNav_EC2/DepthDuration/MX_fS_VE_MTurk/MX_fS_HTML.html#152,152,1526,749,1280,800,1-12-2024,18-17-16,18,VR_target_stimuli/s39_1x_1_207_BC.png,125,1x,1.0,3,2483,126,meters,jsons/MX_seq13_2_VE125.json,192433,761142,26,Woman
18,434672,final-intermixed-textured,v2,jsons/MX_seq13_2_VE125.json,http://54.235.29.9/FacialAge/BNav_EC2/DepthDuration/MX_fS_VE_MTurk/MX_fS_HTML.html#152,152,1526,749,1280,800,1-12-2024,18-17-16,19,VR_target_stimuli/s51_0.75x_3.64_460_BC.png,125,0.75x,3.64,4,2267,125,meters,jsons/MX_seq13_2_VE125.json,192433,761142,26,Woman
19,434672,final-intermixed-textured,v2,jsons/MX_seq13_2_VE125.json,http://54.235.29.9/FacialAge/BNav_EC2/DepthDuration/MX_fS_VE_MTurk/MX_fS_HTML.html#152,152,1526,749,1280,800,1-12-2024,18-17-16,20,VR_target_stimuli/s43_1.3x_2.2_363.png,125,1.3x,2.2,4,7571,125,meters,jsons/MX_seq13_2_VE125.json,192433,761142,26,Woman
20,434672,final-intermixed-textured,v2,jsons/MX_seq13_2_VE125.json,http://54.235.29.9/FacialAge/BNav_EC2/DepthDuration/MX_fS_VE_MTurk/MX_fS_HTML.html#152,152,1526,749,1280,800,1-12-2024,18-17-16,21,VR_target_stimuli/s24_0.75x_3.3_344.png,125,0.75x,3.3,6,4132,125,meters,jsons/MX_seq13_2_VE125.json,192433,761142,26,Woman
21,434672,final-intermixed-textured,v2,jsons/MX_seq13_2_VE125.json,http://54.235.29.9/FacialAge/BNav_EC2/DepthDuration/MX_fS_VE_MTurk/MX_fS_HTML.html#152,152,1526,749,1280,800,1-12-2024,18-17-16,22,VR_target_stimuli/s10_1x_2.7_324.png,125,1x,2.7,3,4579,126,meters,jsons/MX_seq13_2_VE125.json,192433,761142,26,Woman
22,434672,final-intermixed-textured,v2,jsons/MX_seq13_2_VE125.json,http://54.235.29.9/FacialAge/BNav_EC2/DepthDuration/MX_fS_VE_MTurk/MX_fS_HTML.html#152,152,1526,749,1280,800,1-12-2024,18-17-16,23,VR_target_stimuli/s36_1.3x_4.1_442.png,125,1.3x,4.1,4,3075,126,meters,jsons/MX_seq13_2_VE125.json,192433,761142,26,Woman
23,434672,final-intermixed-textured,v2,jsons/MX_seq13_2_VE125.json,http://54.235.29.9/FacialAge/BNav_EC2/DepthDuration/MX_fS_VE_MTurk/MX_fS_HTML.html#152,152,1526,749,1280,800,1-12-2024,18-17-16,24,VR_target_stimuli/s40_1x_1.2_319_BC.png,125,1x,1.2,2,2162,125,meters,jsons/MX_seq13_2_VE125.json,192433,761142,26,Woman
24,434672,final-intermixed-textured,v2,jsons/MX_seq13_2_VE125.json,http://54.235.29.9/FacialAge/BNav_EC2/DepthDuration/MX_fS_VE_MTurk/MX_fS_HTML.html#152,152,1526,749,1280,800,1-12-2024,18-17-16,25,VR_target_stimuli/s41_0.75x_2.1_281_BC.png,125,0.75x,2.1,3,4514,124,meters,jsons/MX_seq13_2_VE125.json,192433,761142,26,Woman
25,434672,final-intermixed-textured,v2,jsons/MX_seq13_2_VE125.json,http://54.235.29.9/FacialAge/BNav_EC2/DepthDuration/MX_fS_VE_MTurk/MX_fS_HTML.html#152,152,1526,749,1280,800,1-12-2024,18-17-16,26,catch_stimuli/c2.png,125,,,0,3891,125,meters,jsons/MX_seq13_2_VE125.json,192433,761142,26,Woman
26,434672,final-intermixed-textured,v2,jsons/MX_seq13_2_VE125.json,http://54.235.29.9/FacialAge/BNav_EC2/DepthDuration/MX_fS_VE_MTurk/MX_fS_HTML.html#152,152,1526,749,1280,800,1-12-2024,18-17-16,27,VR_target_stimuli/s45_1.3x_3.5_377_BC.png,125,1.3x,3.5,4,2186,125,meters,jsons/MX_seq13_2_VE125.json,192433,761142,26,Woman
27,434672,final-intermixed-textured,v2,jsons/MX_seq13_2_VE125.json,http://54.235.29.9/FacialAge/BNav_EC2/DepthDuration/MX_fS_VE_MTurk/MX_fS_HTML.html#152,152,1526,749,1280,800,1-12-2024,18-17-16,28,VR_target_stimuli/s23_1.3x_3.65_354.png,125,1.3x,3.65,5,2164,125,meters,jsons/MX_seq13_2_VE125.json,192433,761142,26,Woman
28,434672,final-intermixed-textured,v2,jsons/MX_seq13_2_VE125.json,http://54.235.29.9/FacialAge/BNav_EC2/DepthDuration/MX_fS_VE_MTurk/MX_fS_HTML.html#152,152,1526,749,1280,800,1-12-2024,18-17-16,29,VR_target_stimuli/s26_1x_4_433_BC.png,125,1x,4.0,5,1779,125,meters,jsons/MX_seq13_2_VE125.json,192433,761142,26,Woman
29,434672,final-intermixed-textured,v2,jsons/MX_seq13_2_VE125.json,http://54.235.29.9/FacialAge/BNav_EC2/DepthDuration/MX_fS_VE_MTurk/MX_fS_HTML.html#152,152,1526,749,1280,800,1-12-2024,18-17-16,30,VR_target_stimuli/s12_0.75x_3.1_364.png,125,0.75x,3.1,3,1618,125,meters,jsons/MX_seq13_2_VE125.json,192433,761142,26,Woman
30,434672,final-intermixed-textured,v2,jsons/MX_seq13_2_VE125.json,http://54.235.29.9/FacialAge/BNav_EC2/DepthDuration/MX_fS_VE_MTurk/MX_fS_HTML.html#152,152,1526,749,1280,800,1-12-2024,18-17-16,31,VR_target_stimuli/s30_1.3x_2.3_337_BC.png,125,1.3x,2.3,4,3474,125,meters,jsons/MX_seq13_2_VE125.json,192433,761142,26,Woman
31,434672,final-intermixed-textured,v2,jsons/MX_seq13_2_VE125.json,http://54.235.29.9/FacialAge/BNav_EC2/DepthDuration/MX_fS_VE_MTurk/MX_fS_HTML.html#152,152,1526,749,1280,800,1-12-2024,18-17-16,32,VR_target_stimuli/s16_0.75x_1_217_BC.png,125,0.75x,1.0,2,3388,125,meters,jsons/MX_seq13_2_VE125.json,192433,761142,26,Woman
32,434672,final-intermixed-textured,v2,jsons/MX_seq13_2_VE125.json,http://54.235.29.9/FacialAge/BNav_EC2/DepthDuration/MX_fS_VE_MTurk/MX_fS_HTML.html#152,152,1526,749,1280,800,1-12-2024,18-17-16,33,VR_target_stimuli/s17_1x_1.8_291.png,125,1x,1.8,2,2219,125,meters,jsons/MX_seq13_2_VE125.json,192433,761142,26,Woman
33,434672,final-intermixed-textured,v2,jsons/MX_seq13_2_VE125.json,http://54.235.29.9/FacialAge/BNav_EC2/DepthDuration/MX_fS_VE_MTurk/MX_fS_HTML.html#152,152,1526,749,1280,800,1-12-2024,18-17-16,34,catch_stimuli/c3.png,125,,,0,4124,125,meters,jsons/MX_seq13_2_VE125.json,192433,761142,26,Woman
34,434672,final-intermixed-textured,v2,jsons/MX_seq13_2_VE125.json,http://54.235.29.9/FacialAge/BNav_EC2/DepthDuration/MX_fS_VE_MTurk/MX_fS_HTML.html#152,152,1526,749,1280,800,1-12-2024,18-17-16,35,VR_target_stimuli/s5_0.75x_4_375_BC.png,125,0.75x,4.0,3,1748,126,meters,jsons/MX_seq13_2_VE125.json,192433,761142,26,Woman
35,434672,final-intermixed-textured,v2,jsons/MX_seq13_2_VE125.json,http://54.235.29.9/FacialAge/BNav_EC2/DepthDuration/MX_fS_VE_MTurk/MX_fS_HTML.html#152,152,1526,749,1280,800,1-12-2024,18-17-16,36,VR_target_stimuli/s37_1.3x_3.3_555.png,125,1.3x,3.3,4,1659,125,meters,jsons/MX_seq13_2_VE125.json,192433,761142,26,Woman
36,434672,final-intermixed-textured,v2,jsons/MX_seq13_2_VE125.json,http://54.235.29.9/FacialAge/BNav_EC2/DepthDuration/MX_fS_VE_MTurk/MX_fS_HTML.html#152,152,1526,749,1280,800,1-12-2024,18-17-16,37,VR_target_stimuli/s46_1x_2.42_348.png,125,1x,2.42,4,2131,125,meters,jsons/MX_seq13_2_VE125.json,192433,761142,26,Woman
37,434672,final-intermixed-textured,v2,jsons/MX_seq13_2_VE125.json,http://54.235.29.9/FacialAge/BNav_EC2/DepthDuration/MX_fS_VE_MTurk/MX_fS_HTML.html#152,152,1526,749,1280,800,1-12-2024,18-17-16,38,VR_target_stimuli/s22_1x_4.29_354_BC.png,125,1x,4.29,5,2170,124,meters,jsons/MX_seq13_2_VE125.json,192433,761142,26,Woman
38,434672,final-intermixed-textured,v2,jsons/MX_seq13_2_VE125.json,http://54.235.29.9/FacialAge/BNav_EC2/DepthDuration/MX_fS_VE_MTurk/MX_fS_HTML.html#152,152,1526,749,1280,800,1-12-2024,18-17-16,39,VR_target_stimuli/s42_0.75x_3.2_301.png,125,0.75x,3.2,4,2426,126,meters,jsons/MX_seq13_2_VE125.json,192433,761142,26,Woman
39,434672,final-intermixed-textured,v2,jsons/MX_seq13_2_VE125.json,http://54.235.29.9/FacialAge/BNav_EC2/DepthDuration/MX_fS_VE_MTurk/MX_fS_HTML.html#152,152,1526,749,1280,800,1-12-2024,18-17-16,40,VR_target_stimuli/s25_1.3x_1.4_299_BC.png,125,1.3x,1.4,3,2499,126,meters,jsons/MX_seq13_2_VE125.json,192433,761142,26,Woman
40,434672,final-intermixed-textured,v2,jsons/MX_seq13_2_VE125.json,http://54.235.29.9/FacialAge/BNav_EC2/DepthDuration/MX_fS_VE_MTurk/MX_fS_HTML.html#152,152,1526,749,1280,800,1-12-2024,18-17-16,41,VR_target_stimuli/s50_0.75x_4.53_517.png,125,0.75x,4.53,4,1906,126,meters,jsons/MX_seq13_2_VE125.json,192433,761142,26,Woman
41,434672,final-intermixed-textured,v2,jsons/MX_seq13_2_VE125.json,http://54.235.29.9/FacialAge/BNav_EC2/DepthDuration/MX_fS_VE_MTurk/MX_fS_HTML.html#152,152,1526,749,1280,800,1-12-2024,18-17-16,42,VR_target_stimuli/s53_1x_1.6_387_BC.png,125,1x,1.6,3,1803,126,meters,jsons/MX_seq13_2_VE125.json,192433,761142,26,Woman
42,434672,final-intermixed-textured,v2,jsons/MX_seq13_2_VE125.json,http://54.235.29.9/FacialAge/BNav_EC2/DepthDuration/MX_fS_VE_MTurk/MX_fS_HTML.html#152,152,1526,749,1280,800,1-12-2024,18-17-16,43,VR_target_stimuli/s38_1.3x_3.55_358.png,125,1.3x,3.55,4,1875,125,meters,jsons/MX_seq13_2_VE125.json,192433,761142,26,Woman
43,434672,final-intermixed-textured,v2,jsons/MX_seq13_2_VE125.json,http://54.235.29.9/FacialAge/BNav_EC2/DepthDuration/MX_fS_VE_MTurk/MX_fS_HTML.html#152,152,1526,749,1280,800,1-12-2024,18-17-16,44,VR_target_stimuli/s9_1x_1.2_263.png,125,1x,1.2,2,1947,125,meters,jsons/MX_seq13_2_VE125.json,192433,761142,26,Woman
44,434672,final-intermixed-textured,v2,jsons/MX_seq13_2_VE125.json,http://54.235.29.9/FacialAge/BNav_EC2/DepthDuration/MX_fS_VE_MTurk/MX_fS_HTML.html#152,152,1526,749,1280,800,1-12-2024,18-17-16,45,catch_stimuli/c4.png,125,,,0,2444,125,meters,jsons/MX_seq13_2_VE125.json,192433,761142,26,Woman
45,434672,final-intermixed-textured,v2,jsons/MX_seq13_2_VE125.json,http://54.235.29.9/FacialAge/BNav_EC2/DepthDuration/MX_fS_VE_MTurk/MX_fS_HTML.html#152,152,1526,749,1280,800,1-12-2024,18-17-16,46,VR_target_stimuli/s44_0.75x_4.4_314_BC.png,125,0.75x,4.4,3,3252,125,meters,jsons/MX_seq13_2_VE125.json,192433,761142,26,Woman
46,434672,final-intermixed-textured,v2,jsons/MX_seq13_2_VE125.json,http://54.235.29.9/FacialAge/BNav_EC2/DepthDuration/MX_fS_VE_MTurk/MX_fS_HTML.html#152,152,1526,749,1280,800,1-12-2024,18-17-16,47,VR_target_stimuli/s3_1.3x_5_390_BC.png,125,1.3x,5.0,0,3244,125,meters,jsons/MX_seq13_2_VE125.json,192433,761142,26,Woman
47,434672,final-intermixed-textured,v2,jsons/MX_seq13_2_VE125.json,http://54.235.29.9/FacialAge/BNav_EC2/DepthDuration/MX_fS_VE_MTurk/MX_fS_HTML.html#152,152,1526,749,1280,800,1-12-2024,18-17-16,48,VR_target_stimuli/s1_1.3x_1.7_261.png,125,1.3x,1.7,2,4067,125,meters,jsons/MX_seq13_2_VE125.json,192433,761142,26,Woman
48,434672,final-intermixed-textured,v2,jsons/MX_seq13_2_VE125.json,http://54.235.29.9/FacialAge/BNav_EC2/DepthDuration/MX_fS_VE_MTurk/MX_fS_HTML.html#152,152,1526,749,1280,800,1-12-2024,18-17-16,49,VR_target_stimuli/s11_1x_5_361_BC.png,125,1x,5.0,4,2723,127,meters,jsons/MX_seq13_2_VE125.json,192433,761142,26,Woman
49,434672,final-intermixed-textured,v2,jsons/MX_seq13_2_VE125.json,http://54.235.29.9/FacialAge/BNav_EC2/DepthDuration/MX_fS_VE_MTurk/MX_fS_HTML.html#152,152,1526,749,1280,800,1-12-2024,18-17-16,50,VR_target_stimuli/s2_0.75x_2.7_384_BC.png,125,0.75x,2.7,3,2372,126,meters,jsons/MX_seq13_2_VE125.json,192433,761142,26,Woman
50,434672,final-intermixed-textured,v2,jsons/MX_seq13_2_VE125.json,http://54.235.29.9/FacialAge/BNav_EC2/DepthDuration/MX_fS_VE_MTurk/MX_fS_HTML.html#152,152,1526,749,1280,800,1-12-2024,18-17-16,51,VR_target_stimuli/s6_1x_2.1_293.png,125,1x,2.1,4,2956,126,meters,jsons/MX_seq13_2_VE125.json,192433,761142,26,Woman
51,434672,final-intermixed-textured,v2,jsons/MX_seq13_2_VE125.json,http://54.235.29.9/FacialAge/BNav_EC2/DepthDuration/MX_fS_VE_MTurk/MX_fS_HTML.html#152,152,1526,749,1280,800,1-12-2024,18-17-16,52,VR_target_stimuli/s0_1.3x_2.6_356_BC.png,125,1.3x,2.6,3,1875,126,meters,jsons/MX_seq13_2_VE125.json,192433,761142,26,Woman
52,434672,final-intermixed-textured,v2,jsons/MX_seq13_2_VE125.json,http://54.235.29.9/FacialAge/BNav_EC2/DepthDuration/MX_fS_VE_MTurk/MX_fS_HTML.html#152,152,1526,749,1280,800,1-12-2024,18-17-16,53,catch_stimuli/c5.png,125,,,0,2538,125,meters,jsons/MX_seq13_2_VE125.json,192433,761142,26,Woman
53,434672,final-intermixed-textured,v2,jsons/MX_seq13_2_VE125.json,http://54.235.29.9/FacialAge/BNav_EC2/DepthDuration/MX_fS_VE_MTurk/MX_fS_HTML.html#152,152,1526,749,1280,800,1-12-2024,18-17-16,54,VR_target_stimuli/s34_0.75x_2.8_269.png,125,0.75x,2.8,4,1731,125,meters,jsons/MX_seq13_2_VE125.json,192433,761142,26,Woman
54,434672,final-intermixed-textured,v2,jsons/MX_seq13_2_VE125.json,http://54.235.29.9/FacialAge/BNav_EC2/DepthDuration/MX_fS_VE_MTurk/MX_fS_HTML.html#152,152,1526,749,1280,800,1-12-2024,18-17-16,55,VR_target_stimuli/s13_1.3x_2.4_313.png,125,1.3x,2.4,4,2459,125,meters,jsons/MX_seq13_2_VE125.json,192433,761142,26,Woman
55,434672,final-intermixed-textured,v2,jsons/MX_seq13_2_VE125.json,http://54.235.29.9/FacialAge/BNav_EC2/DepthDuration/MX_fS_VE_MTurk/MX_fS_HTML.html#152,152,1526,749,1280,800,1-12-2024,18-17-16,56,VR_target_stimuli/s14_1x_ 3.83_357_BC.png,125,1x,3.83,5,1964,126,meters,jsons/MX_seq13_2_VE125.json,192433,761142,26,Woman
56,434672,final-intermixed-textured,v2,jsons/MX_seq13_2_VE125.json,http://54.235.29.9/FacialAge/BNav_EC2/DepthDuration/MX_fS_VE_MTurk/MX_fS_HTML.html#152,152,1526,749,1280,800,1-12-2024,18-17-16,57,VR_target_stimuli/s47_0.75x_3.45_366.png,125,0.75x,3.45,3,1771,126,meters,jsons/MX_seq13_2_VE125.json,192433,761142,26,Woman
57,434672,final-intermixed-textured,v2,jsons/MX_seq13_2_VE125.json,http://54.235.29.9/FacialAge/BNav_EC2/DepthDuration/MX_fS_VE_MTurk/MX_fS_HTML.html#152,152,1526,749,1280,800,1-12-2024,18-17-16,58,VR_target_stimuli/s29_0.75x_1.3_246_BC.png,125,0.75x,1.3,3,1844,126,meters,jsons/MX_seq13_2_VE125.json,192433,761142,26,Woman
58,434672,final-intermixed-textured,v2,jsons/MX_seq13_2_VE125.json,http://54.235.29.9/FacialAge/BNav_EC2/DepthDuration/MX_fS_VE_MTurk/MX_fS_HTML.html#152,152,1526,749,1280,800,1-12-2024,18-17-16,59,VR_target_stimuli/s28_1.3x_3.2_365_BC.png,125,1.3x,3.2,4,1531,125,meters,jsons/MX_seq13_2_VE125.json,192433,761142,26,Woman
59,434672,final-intermixed-textured,v2,jsons/MX_seq13_2_VE125.json,http://54.235.29.9/FacialAge/BNav_EC2/DepthDuration/MX_fS_VE_MTurk/MX_fS_HTML.html#152,152,1526,749,1280,800,1-12-2024,18-17-16,60,VR_target_stimuli/s48_1x_2.55_256.png,125,1x,2.55,4,1371,124,meters,jsons/MX_seq13_2_VE125.json,192433,761142,26,Woman
