,subjID,experimentName,versionName,sequenceName,url,selected_row,windowWidth,windowHeight,screenWidth,screenHeight,startDate,startTime,trial,stimulus,duration,scale,actual_depth,depth_estimate,trial_RT,log_sceneDuration,unitSelection,seq_filepath,experimentTime,totalTime,age,gender
0,441932,final-intermixed-textured,v2,jsons/MX_seq25_2_VE125.json,http://54.235.29.9/FacialAge/BNav_EC2/DepthDuration/MX_fS_VE_MTurk/MX_fS_HTML.html#121,121,1440,813,1440,900,1-13-2024,8-40-7,1,VR_target_stimuli/s52_1x_3.2_275.png,125,1x,3.2,0,4072,125,meters,jsons/MX_seq25_2_VE125.json,277857,388205,24,Woman
1,441932,final-intermixed-textured,v2,jsons/MX_seq25_2_VE125.json,http://54.235.29.9/FacialAge/BNav_EC2/DepthDuration/MX_fS_VE_MTurk/MX_fS_HTML.html#121,121,1440,813,1440,900,1-13-2024,8-40-7,2,VR_target_stimuli/s32_1.3x_1.5_224_BC.png,125,1.3x,1.5,0,5532,128,meters,jsons/MX_seq25_2_VE125.json,277857,388205,24,Woman
2,441932,final-intermixed-textured,v2,jsons/MX_seq25_2_VE125.json,http://54.235.29.9/FacialAge/BNav_EC2/DepthDuration/MX_fS_VE_MTurk/MX_fS_HTML.html#121,121,1440,813,1440,900,1-13-2024,8-40-7,3,VR_target_stimuli/s18_0.75x_2.25_341_BC.png,125,0.75x,2.25,4,3551,122,meters,jsons/MX_seq25_2_VE125.json,277857,388205,24,Woman
3,441932,final-intermixed-textured,v2,jsons/MX_seq25_2_VE125.json,http://54.235.29.9/FacialAge/BNav_EC2/DepthDuration/MX_fS_VE_MTurk/MX_fS_HTML.html#121,121,1440,813,1440,900,1-13-2024,8-40-7,4,VR_target_stimuli/s39_1.3x_1_208.png,125,1.3x,1.0,3,16916,120,meters,jsons/MX_seq25_2_VE125.json,277857,388205,24,Woman
4,441932,final-intermixed-textured,v2,jsons/MX_seq25_2_VE125.json,http://54.235.29.9/FacialAge/BNav_EC2/DepthDuration/MX_fS_VE_MTurk/MX_fS_HTML.html#121,121,1440,813,1440,900,1-13-2024,8-40-7,5,VR_target_stimuli/s51_1x_3.64_461_BC.png,125,1x,3.64,2,3605,121,meters,jsons/MX_seq25_2_VE125.json,277857,388205,24,Woman
5,441932,final-intermixed-textured,v2,jsons/MX_seq25_2_VE125.json,http://54.235.29.9/FacialAge/BNav_EC2/DepthDuration/MX_fS_VE_MTurk/MX_fS_HTML.html#121,121,1440,813,1440,900,1-13-2024,8-40-7,6,VR_target_stimuli/s43_0.75x_2.2_348.png,125,0.75x,2.2,2,5464,125,meters,jsons/MX_seq25_2_VE125.json,277857,388205,24,Woman
6,441932,final-intermixed-textured,v2,jsons/MX_seq25_2_VE125.json,http://54.235.29.9/FacialAge/BNav_EC2/DepthDuration/MX_fS_VE_MTurk/MX_fS_HTML.html#121,121,1440,813,1440,900,1-13-2024,8-40-7,7,catch_stimuli/c0.png,125,,,3,11278,122,meters,jsons/MX_seq25_2_VE125.json,277857,388205,24,Woman
7,441932,final-intermixed-textured,v2,jsons/MX_seq25_2_VE125.json,http://54.235.29.9/FacialAge/BNav_EC2/DepthDuration/MX_fS_VE_MTurk/MX_fS_HTML.html#121,121,1440,813,1440,900,1-13-2024,8-40-7,8,VR_target_stimuli/s24_0.75x_3.3_344_BC.png,125,0.75x,3.3,4,4002,126,meters,jsons/MX_seq25_2_VE125.json,277857,388205,24,Woman
8,441932,final-intermixed-textured,v2,jsons/MX_seq25_2_VE125.json,http://54.235.29.9/FacialAge/BNav_EC2/DepthDuration/MX_fS_VE_MTurk/MX_fS_HTML.html#121,121,1440,813,1440,900,1-13-2024,8-40-7,9,VR_target_stimuli/s10_1.3x_2.7_325_BC.png,125,1.3x,2.7,4,4098,123,meters,jsons/MX_seq25_2_VE125.json,277857,388205,24,Woman
9,441932,final-intermixed-textured,v2,jsons/MX_seq25_2_VE125.json,http://54.235.29.9/FacialAge/BNav_EC2/DepthDuration/MX_fS_VE_MTurk/MX_fS_HTML.html#121,121,1440,813,1440,900,1-13-2024,8-40-7,10,VR_target_stimuli/s36_1x_4.1_423_BC.png,125,1x,4.1,2,3884,126,meters,jsons/MX_seq25_2_VE125.json,277857,388205,24,Woman
10,441932,final-intermixed-textured,v2,jsons/MX_seq25_2_VE125.json,http://54.235.29.9/FacialAge/BNav_EC2/DepthDuration/MX_fS_VE_MTurk/MX_fS_HTML.html#121,121,1440,813,1440,900,1-13-2024,8-40-7,11,VR_target_stimuli/s40_1.3x_1.2_332.png,125,1.3x,1.2,5,3571,121,meters,jsons/MX_seq25_2_VE125.json,277857,388205,24,Woman
11,441932,final-intermixed-textured,v2,jsons/MX_seq25_2_VE125.json,http://54.235.29.9/FacialAge/BNav_EC2/DepthDuration/MX_fS_VE_MTurk/MX_fS_HTML.html#121,121,1440,813,1440,900,1-13-2024,8-40-7,12,VR_target_stimuli/s41_0.75x_2.1_281.png,125,0.75x,2.1,5,4565,123,meters,jsons/MX_seq25_2_VE125.json,277857,388205,24,Woman
12,441932,final-intermixed-textured,v2,jsons/MX_seq25_2_VE125.json,http://54.235.29.9/FacialAge/BNav_EC2/DepthDuration/MX_fS_VE_MTurk/MX_fS_HTML.html#121,121,1440,813,1440,900,1-13-2024,8-40-7,13,VR_target_stimuli/s45_1x_3.5_368.png,125,1x,3.5,3,3839,124,meters,jsons/MX_seq25_2_VE125.json,277857,388205,24,Woman
13,441932,final-intermixed-textured,v2,jsons/MX_seq25_2_VE125.json,http://54.235.29.9/FacialAge/BNav_EC2/DepthDuration/MX_fS_VE_MTurk/MX_fS_HTML.html#121,121,1440,813,1440,900,1-13-2024,8-40-7,14,VR_target_stimuli/s23_0.75x_3.65_351_BC.png,125,0.75x,3.65,4,4997,122,meters,jsons/MX_seq25_2_VE125.json,277857,388205,24,Woman
14,441932,final-intermixed-textured,v2,jsons/MX_seq25_2_VE125.json,http://54.235.29.9/FacialAge/BNav_EC2/DepthDuration/MX_fS_VE_MTurk/MX_fS_HTML.html#121,121,1440,813,1440,900,1-13-2024,8-40-7,15,VR_target_stimuli/s26_1.3x_4_441.png,125,1.3x,4.0,4,2922,122,meters,jsons/MX_seq25_2_VE125.json,277857,388205,24,Woman
15,441932,final-intermixed-textured,v2,jsons/MX_seq25_2_VE125.json,http://54.235.29.9/FacialAge/BNav_EC2/DepthDuration/MX_fS_VE_MTurk/MX_fS_HTML.html#121,121,1440,813,1440,900,1-13-2024,8-40-7,16,VR_target_stimuli/s12_1x_3.1_372.png,125,1x,3.1,3,3076,123,meters,jsons/MX_seq25_2_VE125.json,277857,388205,24,Woman
16,441932,final-intermixed-textured,v2,jsons/MX_seq25_2_VE125.json,http://54.235.29.9/FacialAge/BNav_EC2/DepthDuration/MX_fS_VE_MTurk/MX_fS_HTML.html#121,121,1440,813,1440,900,1-13-2024,8-40-7,17,catch_stimuli/c1.png,125,,,3,3109,123,meters,jsons/MX_seq25_2_VE125.json,277857,388205,24,Woman
17,441932,final-intermixed-textured,v2,jsons/MX_seq25_2_VE125.json,http://54.235.29.9/FacialAge/BNav_EC2/DepthDuration/MX_fS_VE_MTurk/MX_fS_HTML.html#121,121,1440,813,1440,900,1-13-2024,8-40-7,18,VR_target_stimuli/s30_1x_2.3_334_BC.png,125,1x,2.3,2,3291,123,meters,jsons/MX_seq25_2_VE125.json,277857,388205,24,Woman
18,441932,final-intermixed-textured,v2,jsons/MX_seq25_2_VE125.json,http://54.235.29.9/FacialAge/BNav_EC2/DepthDuration/MX_fS_VE_MTurk/MX_fS_HTML.html#121,121,1440,813,1440,900,1-13-2024,8-40-7,19,VR_target_stimuli/s16_0.75x_1_217.png,125,0.75x,1.0,2,2797,126,meters,jsons/MX_seq25_2_VE125.json,277857,388205,24,Woman
19,441932,final-intermixed-textured,v2,jsons/MX_seq25_2_VE125.json,http://54.235.29.9/FacialAge/BNav_EC2/DepthDuration/MX_fS_VE_MTurk/MX_fS_HTML.html#121,121,1440,813,1440,900,1-13-2024,8-40-7,20,VR_target_stimuli/s17_1.3x_1.8_300_BC.png,125,1.3x,1.8,3,6846,125,meters,jsons/MX_seq25_2_VE125.json,277857,388205,24,Woman
20,441932,final-intermixed-textured,v2,jsons/MX_seq25_2_VE125.json,http://54.235.29.9/FacialAge/BNav_EC2/DepthDuration/MX_fS_VE_MTurk/MX_fS_HTML.html#121,121,1440,813,1440,900,1-13-2024,8-40-7,21,VR_target_stimuli/s5_0.75x_4_375.png,125,0.75x,4.0,4,2361,123,meters,jsons/MX_seq25_2_VE125.json,277857,388205,24,Woman
21,441932,final-intermixed-textured,v2,jsons/MX_seq25_2_VE125.json,http://54.235.29.9/FacialAge/BNav_EC2/DepthDuration/MX_fS_VE_MTurk/MX_fS_HTML.html#121,121,1440,813,1440,900,1-13-2024,8-40-7,22,VR_target_stimuli/s37_1x_3.3_563.png,125,1x,3.3,5,5138,119,meters,jsons/MX_seq25_2_VE125.json,277857,388205,24,Woman
22,441932,final-intermixed-textured,v2,jsons/MX_seq25_2_VE125.json,http://54.235.29.9/FacialAge/BNav_EC2/DepthDuration/MX_fS_VE_MTurk/MX_fS_HTML.html#121,121,1440,813,1440,900,1-13-2024,8-40-7,23,VR_target_stimuli/s46_1.3x_2.42_354_BC.png,125,1.3x,2.42,4,3857,122,meters,jsons/MX_seq25_2_VE125.json,277857,388205,24,Woman
23,441932,final-intermixed-textured,v2,jsons/MX_seq25_2_VE125.json,http://54.235.29.9/FacialAge/BNav_EC2/DepthDuration/MX_fS_VE_MTurk/MX_fS_HTML.html#121,121,1440,813,1440,900,1-13-2024,8-40-7,24,VR_target_stimuli/s22_1x_4.29_354_BC.png,125,1x,4.29,3,2777,123,meters,jsons/MX_seq25_2_VE125.json,277857,388205,24,Woman
24,441932,final-intermixed-textured,v2,jsons/MX_seq25_2_VE125.json,http://54.235.29.9/FacialAge/BNav_EC2/DepthDuration/MX_fS_VE_MTurk/MX_fS_HTML.html#121,121,1440,813,1440,900,1-13-2024,8-40-7,25,VR_target_stimuli/s42_0.75x_3.2_301_BC.png,125,0.75x,3.2,4,3335,126,meters,jsons/MX_seq25_2_VE125.json,277857,388205,24,Woman
25,441932,final-intermixed-textured,v2,jsons/MX_seq25_2_VE125.json,http://54.235.29.9/FacialAge/BNav_EC2/DepthDuration/MX_fS_VE_MTurk/MX_fS_HTML.html#121,121,1440,813,1440,900,1-13-2024,8-40-7,26,catch_stimuli/c2.png,125,,,1,3411,124,meters,jsons/MX_seq25_2_VE125.json,277857,388205,24,Woman
26,441932,final-intermixed-textured,v2,jsons/MX_seq25_2_VE125.json,http://54.235.29.9/FacialAge/BNav_EC2/DepthDuration/MX_fS_VE_MTurk/MX_fS_HTML.html#121,121,1440,813,1440,900,1-13-2024,8-40-7,27,VR_target_stimuli/s25_1.3x_1.4_299.png,125,1.3x,1.4,1,2130,124,meters,jsons/MX_seq25_2_VE125.json,277857,388205,24,Woman
27,441932,final-intermixed-textured,v2,jsons/MX_seq25_2_VE125.json,http://54.235.29.9/FacialAge/BNav_EC2/DepthDuration/MX_fS_VE_MTurk/MX_fS_HTML.html#121,121,1440,813,1440,900,1-13-2024,8-40-7,28,VR_target_stimuli/s50_1.3x_4.53_518_BC.png,125,1.3x,4.53,2,1961,124,meters,jsons/MX_seq25_2_VE125.json,277857,388205,24,Woman
28,441932,final-intermixed-textured,v2,jsons/MX_seq25_2_VE125.json,http://54.235.29.9/FacialAge/BNav_EC2/DepthDuration/MX_fS_VE_MTurk/MX_fS_HTML.html#121,121,1440,813,1440,900,1-13-2024,8-40-7,29,VR_target_stimuli/s53_1x_1.6_387_BC.png,125,1x,1.6,1,3165,123,meters,jsons/MX_seq25_2_VE125.json,277857,388205,24,Woman
29,441932,final-intermixed-textured,v2,jsons/MX_seq25_2_VE125.json,http://54.235.29.9/FacialAge/BNav_EC2/DepthDuration/MX_fS_VE_MTurk/MX_fS_HTML.html#121,121,1440,813,1440,900,1-13-2024,8-40-7,30,VR_target_stimuli/s38_0.75x_3.55_346.png,125,0.75x,3.55,4,2186,124,meters,jsons/MX_seq25_2_VE125.json,277857,388205,24,Woman
30,441932,final-intermixed-textured,v2,jsons/MX_seq25_2_VE125.json,http://54.235.29.9/FacialAge/BNav_EC2/DepthDuration/MX_fS_VE_MTurk/MX_fS_HTML.html#121,121,1440,813,1440,900,1-13-2024,8-40-7,31,VR_target_stimuli/s9_1.3x_1.2_276.png,125,1.3x,1.2,3,3969,124,meters,jsons/MX_seq25_2_VE125.json,277857,388205,24,Woman
31,441932,final-intermixed-textured,v2,jsons/MX_seq25_2_VE125.json,http://54.235.29.9/FacialAge/BNav_EC2/DepthDuration/MX_fS_VE_MTurk/MX_fS_HTML.html#121,121,1440,813,1440,900,1-13-2024,8-40-7,32,VR_target_stimuli/s44_0.75x_4.4_314_BC.png,125,0.75x,4.4,2,2683,120,meters,jsons/MX_seq25_2_VE125.json,277857,388205,24,Woman
32,441932,final-intermixed-textured,v2,jsons/MX_seq25_2_VE125.json,http://54.235.29.9/FacialAge/BNav_EC2/DepthDuration/MX_fS_VE_MTurk/MX_fS_HTML.html#121,121,1440,813,1440,900,1-13-2024,8-40-7,33,VR_target_stimuli/s3_1x_5_385.png,125,1x,5.0,3,4258,126,meters,jsons/MX_seq25_2_VE125.json,277857,388205,24,Woman
33,441932,final-intermixed-textured,v2,jsons/MX_seq25_2_VE125.json,http://54.235.29.9/FacialAge/BNav_EC2/DepthDuration/MX_fS_VE_MTurk/MX_fS_HTML.html#121,121,1440,813,1440,900,1-13-2024,8-40-7,34,catch_stimuli/c3.png,125,,,1,2302,124,meters,jsons/MX_seq25_2_VE125.json,277857,388205,24,Woman
34,441932,final-intermixed-textured,v2,jsons/MX_seq25_2_VE125.json,http://54.235.29.9/FacialAge/BNav_EC2/DepthDuration/MX_fS_VE_MTurk/MX_fS_HTML.html#121,121,1440,813,1440,900,1-13-2024,8-40-7,35,VR_target_stimuli/s1_0.75x_1.7_265.png,125,0.75x,1.7,2,4743,121,meters,jsons/MX_seq25_2_VE125.json,277857,388205,24,Woman
35,441932,final-intermixed-textured,v2,jsons/MX_seq25_2_VE125.json,http://54.235.29.9/FacialAge/BNav_EC2/DepthDuration/MX_fS_VE_MTurk/MX_fS_HTML.html#121,121,1440,813,1440,900,1-13-2024,8-40-7,36,VR_target_stimuli/s11_1.3x_5_363.png,125,1.3x,5.0,3,4138,126,meters,jsons/MX_seq25_2_VE125.json,277857,388205,24,Woman
36,441932,final-intermixed-textured,v2,jsons/MX_seq25_2_VE125.json,http://54.235.29.9/FacialAge/BNav_EC2/DepthDuration/MX_fS_VE_MTurk/MX_fS_HTML.html#121,121,1440,813,1440,900,1-13-2024,8-40-7,37,VR_target_stimuli/s2_1x_2.7_390_BC.png,125,1x,2.7,2,2827,124,meters,jsons/MX_seq25_2_VE125.json,277857,388205,24,Woman
37,441932,final-intermixed-textured,v2,jsons/MX_seq25_2_VE125.json,http://54.235.29.9/FacialAge/BNav_EC2/DepthDuration/MX_fS_VE_MTurk/MX_fS_HTML.html#121,121,1440,813,1440,900,1-13-2024,8-40-7,38,VR_target_stimuli/s6_1x_2.1_293.png,125,1x,2.1,2,4189,121,meters,jsons/MX_seq25_2_VE125.json,277857,388205,24,Woman
38,441932,final-intermixed-textured,v2,jsons/MX_seq25_2_VE125.json,http://54.235.29.9/FacialAge/BNav_EC2/DepthDuration/MX_fS_VE_MTurk/MX_fS_HTML.html#121,121,1440,813,1440,900,1-13-2024,8-40-7,39,VR_target_stimuli/s0_0.75x_2.6_345_BC.png,125,0.75x,2.6,2,2945,120,meters,jsons/MX_seq25_2_VE125.json,277857,388205,24,Woman
39,441932,final-intermixed-textured,v2,jsons/MX_seq25_2_VE125.json,http://54.235.29.9/FacialAge/BNav_EC2/DepthDuration/MX_fS_VE_MTurk/MX_fS_HTML.html#121,121,1440,813,1440,900,1-13-2024,8-40-7,40,VR_target_stimuli/s34_1.3x_2.8_294_BC.png,125,1.3x,2.8,3,3901,124,meters,jsons/MX_seq25_2_VE125.json,277857,388205,24,Woman
40,441932,final-intermixed-textured,v2,jsons/MX_seq25_2_VE125.json,http://54.235.29.9/FacialAge/BNav_EC2/DepthDuration/MX_fS_VE_MTurk/MX_fS_HTML.html#121,121,1440,813,1440,900,1-13-2024,8-40-7,41,VR_target_stimuli/s13_0.75x_2.4_308_BC.png,125,0.75x,2.4,2,24412,126,meters,jsons/MX_seq25_2_VE125.json,277857,388205,24,Woman
41,441932,final-intermixed-textured,v2,jsons/MX_seq25_2_VE125.json,http://54.235.29.9/FacialAge/BNav_EC2/DepthDuration/MX_fS_VE_MTurk/MX_fS_HTML.html#121,121,1440,813,1440,900,1-13-2024,8-40-7,42,VR_target_stimuli/s14_1x_ 3.83_357_BC.png,125,1x,3.83,3,2296,121,meters,jsons/MX_seq25_2_VE125.json,277857,388205,24,Woman
42,441932,final-intermixed-textured,v2,jsons/MX_seq25_2_VE125.json,http://54.235.29.9/FacialAge/BNav_EC2/DepthDuration/MX_fS_VE_MTurk/MX_fS_HTML.html#121,121,1440,813,1440,900,1-13-2024,8-40-7,43,VR_target_stimuli/s47_1.3x_3.45_373.png,125,1.3x,3.45,5,2662,121,meters,jsons/MX_seq25_2_VE125.json,277857,388205,24,Woman
43,441932,final-intermixed-textured,v2,jsons/MX_seq25_2_VE125.json,http://54.235.29.9/FacialAge/BNav_EC2/DepthDuration/MX_fS_VE_MTurk/MX_fS_HTML.html#121,121,1440,813,1440,900,1-13-2024,8-40-7,44,VR_target_stimuli/s29_1x_1.3_250.png,125,1x,1.3,4,4647,122,meters,jsons/MX_seq25_2_VE125.json,277857,388205,24,Woman
44,441932,final-intermixed-textured,v2,jsons/MX_seq25_2_VE125.json,http://54.235.29.9/FacialAge/BNav_EC2/DepthDuration/MX_fS_VE_MTurk/MX_fS_HTML.html#121,121,1440,813,1440,900,1-13-2024,8-40-7,45,catch_stimuli/c4.png,125,,,3,2704,122,meters,jsons/MX_seq25_2_VE125.json,277857,388205,24,Woman
45,441932,final-intermixed-textured,v2,jsons/MX_seq25_2_VE125.json,http://54.235.29.9/FacialAge/BNav_EC2/DepthDuration/MX_fS_VE_MTurk/MX_fS_HTML.html#121,121,1440,813,1440,900,1-13-2024,8-40-7,46,VR_target_stimuli/s28_0.75x_3.2_357.png,125,0.75x,3.2,4,2314,123,meters,jsons/MX_seq25_2_VE125.json,277857,388205,24,Woman
46,441932,final-intermixed-textured,v2,jsons/MX_seq25_2_VE125.json,http://54.235.29.9/FacialAge/BNav_EC2/DepthDuration/MX_fS_VE_MTurk/MX_fS_HTML.html#121,121,1440,813,1440,900,1-13-2024,8-40-7,47,VR_target_stimuli/s48_1.3x_2.55_255_BC.png,125,1.3x,2.55,3,3127,122,meters,jsons/MX_seq25_2_VE125.json,277857,388205,24,Woman
47,441932,final-intermixed-textured,v2,jsons/MX_seq25_2_VE125.json,http://54.235.29.9/FacialAge/BNav_EC2/DepthDuration/MX_fS_VE_MTurk/MX_fS_HTML.html#121,121,1440,813,1440,900,1-13-2024,8-40-7,48,VR_target_stimuli/s19_1.3x_1.21_270.png,125,1.3x,1.21,1,2061,126,meters,jsons/MX_seq25_2_VE125.json,277857,388205,24,Woman
48,441932,final-intermixed-textured,v2,jsons/MX_seq25_2_VE125.json,http://54.235.29.9/FacialAge/BNav_EC2/DepthDuration/MX_fS_VE_MTurk/MX_fS_HTML.html#121,121,1440,813,1440,900,1-13-2024,8-40-7,49,VR_target_stimuli/s21_1x_4.22_379.png,125,1x,4.22,2,2273,125,meters,jsons/MX_seq25_2_VE125.json,277857,388205,24,Woman
49,441932,final-intermixed-textured,v2,jsons/MX_seq25_2_VE125.json,http://54.235.29.9/FacialAge/BNav_EC2/DepthDuration/MX_fS_VE_MTurk/MX_fS_HTML.html#121,121,1440,813,1440,900,1-13-2024,8-40-7,50,VR_target_stimuli/s8_0.75x_3.1_325.png,125,0.75x,3.1,3,3191,127,meters,jsons/MX_seq25_2_VE125.json,277857,388205,24,Woman
50,441932,final-intermixed-textured,v2,jsons/MX_seq25_2_VE125.json,http://54.235.29.9/FacialAge/BNav_EC2/DepthDuration/MX_fS_VE_MTurk/MX_fS_HTML.html#121,121,1440,813,1440,900,1-13-2024,8-40-7,51,VR_target_stimuli/s27_1x_1.76_248_BC.png,125,1x,1.76,3,4406,124,meters,jsons/MX_seq25_2_VE125.json,277857,388205,24,Woman
51,441932,final-intermixed-textured,v2,jsons/MX_seq25_2_VE125.json,http://54.235.29.9/FacialAge/BNav_EC2/DepthDuration/MX_fS_VE_MTurk/MX_fS_HTML.html#121,121,1440,813,1440,900,1-13-2024,8-40-7,52,VR_target_stimuli/s15_1.3x_4.2_389_BC.png,125,1.3x,4.2,3,2677,123,meters,jsons/MX_seq25_2_VE125.json,277857,388205,24,Woman
52,441932,final-intermixed-textured,v2,jsons/MX_seq25_2_VE125.json,http://54.235.29.9/FacialAge/BNav_EC2/DepthDuration/MX_fS_VE_MTurk/MX_fS_HTML.html#121,121,1440,813,1440,900,1-13-2024,8-40-7,53,catch_stimuli/c5.png,125,,,1,2454,121,meters,jsons/MX_seq25_2_VE125.json,277857,388205,24,Woman
53,441932,final-intermixed-textured,v2,jsons/MX_seq25_2_VE125.json,http://54.235.29.9/FacialAge/BNav_EC2/DepthDuration/MX_fS_VE_MTurk/MX_fS_HTML.html#121,121,1440,813,1440,900,1-13-2024,8-40-7,54,VR_target_stimuli/s4_0.75x_1.4_301_BC.png,125,0.75x,1.4,2,2280,128,meters,jsons/MX_seq25_2_VE125.json,277857,388205,24,Woman
54,441932,final-intermixed-textured,v2,jsons/MX_seq25_2_VE125.json,http://54.235.29.9/FacialAge/BNav_EC2/DepthDuration/MX_fS_VE_MTurk/MX_fS_HTML.html#121,121,1440,813,1440,900,1-13-2024,8-40-7,55,VR_target_stimuli/s35_1.3x_2_338_BC.png,125,1.3x,2.0,2,3035,125,meters,jsons/MX_seq25_2_VE125.json,277857,388205,24,Woman
55,441932,final-intermixed-textured,v2,jsons/MX_seq25_2_VE125.json,http://54.235.29.9/FacialAge/BNav_EC2/DepthDuration/MX_fS_VE_MTurk/MX_fS_HTML.html#121,121,1440,813,1440,900,1-13-2024,8-40-7,56,VR_target_stimuli/s49_1x_4.67_341.png,125,1x,4.67,5,2858,123,meters,jsons/MX_seq25_2_VE125.json,277857,388205,24,Woman
56,441932,final-intermixed-textured,v2,jsons/MX_seq25_2_VE125.json,http://54.235.29.9/FacialAge/BNav_EC2/DepthDuration/MX_fS_VE_MTurk/MX_fS_HTML.html#121,121,1440,813,1440,900,1-13-2024,8-40-7,57,VR_target_stimuli/s7_0.75x_1.5_253.png,125,0.75x,1.5,1,4020,123,meters,jsons/MX_seq25_2_VE125.json,277857,388205,24,Woman
57,441932,final-intermixed-textured,v2,jsons/MX_seq25_2_VE125.json,http://54.235.29.9/FacialAge/BNav_EC2/DepthDuration/MX_fS_VE_MTurk/MX_fS_HTML.html#121,121,1440,813,1440,900,1-13-2024,8-40-7,58,VR_target_stimuli/s20_0.75x_4.99_390_BC.png,125,0.75x,4.99,3,2228,120,meters,jsons/MX_seq25_2_VE125.json,277857,388205,24,Woman
58,441932,final-intermixed-textured,v2,jsons/MX_seq25_2_VE125.json,http://54.235.29.9/FacialAge/BNav_EC2/DepthDuration/MX_fS_VE_MTurk/MX_fS_HTML.html#121,121,1440,813,1440,900,1-13-2024,8-40-7,59,VR_target_stimuli/s31_1.3x_4.96_342.png,125,1.3x,4.96,3,4192,120,meters,jsons/MX_seq25_2_VE125.json,277857,388205,24,Woman
59,441932,final-intermixed-textured,v2,jsons/MX_seq25_2_VE125.json,http://54.235.29.9/FacialAge/BNav_EC2/DepthDuration/MX_fS_VE_MTurk/MX_fS_HTML.html#121,121,1440,813,1440,900,1-13-2024,8-40-7,60,VR_target_stimuli/s33_1x_3.1_366_BC.png,125,1x,3.1,4,2115,124,meters,jsons/MX_seq25_2_VE125.json,277857,388205,24,Woman
