,subjID,experimentName,versionName,sequenceName,url,selected_row,windowWidth,windowHeight,screenWidth,screenHeight,startDate,startTime,trial,stimulus,duration,scale,actual_depth,depth_estimate,trial_RT,log_sceneDuration,unitSelection,seq_filepath,experimentTime,totalTime,age,gender
0,453198,final-intermixed-textured,v2,jsons/MX_seq8_1_VE125_flipped.json,http://54.235.29.9/FacialAge/BNav_EC2/DepthDuration/MX_fS_VE_MTurk/MX_fS_HTML.html#125,125,1536,695,1536,864,1-12-2024,15-47-24,1,VR_target_stimuli/s14_1.3x_3.83_359.png,125,1.3x,3.83,3,6215,126,meters,jsons/MX_seq8_1_VE125_flipped.json,236223,565905,34,Woman
1,453198,final-intermixed-textured,v2,jsons/MX_seq8_1_VE125_flipped.json,http://54.235.29.9/FacialAge/BNav_EC2/DepthDuration/MX_fS_VE_MTurk/MX_fS_HTML.html#125,125,1536,695,1536,864,1-12-2024,15-47-24,2,VR_target_stimuli/s47_0.75x_3.45_366.png,125,0.75x,3.45,2,5526,123,meters,jsons/MX_seq8_1_VE125_flipped.json,236223,565905,34,Woman
2,453198,final-intermixed-textured,v2,jsons/MX_seq8_1_VE125_flipped.json,http://54.235.29.9/FacialAge/BNav_EC2/DepthDuration/MX_fS_VE_MTurk/MX_fS_HTML.html#125,125,1536,695,1536,864,1-12-2024,15-47-24,3,VR_target_stimuli/s29_1x_1.3_250.png,125,1x,1.3,2,4171,127,meters,jsons/MX_seq8_1_VE125_flipped.json,236223,565905,34,Woman
3,453198,final-intermixed-textured,v2,jsons/MX_seq8_1_VE125_flipped.json,http://54.235.29.9/FacialAge/BNav_EC2/DepthDuration/MX_fS_VE_MTurk/MX_fS_HTML.html#125,125,1536,695,1536,864,1-12-2024,15-47-24,4,VR_target_stimuli/s28_0.75x_3.2_357_BC.png,125,0.75x,3.2,0,4047,132,meters,jsons/MX_seq8_1_VE125_flipped.json,236223,565905,34,Woman
4,453198,final-intermixed-textured,v2,jsons/MX_seq8_1_VE125_flipped.json,http://54.235.29.9/FacialAge/BNav_EC2/DepthDuration/MX_fS_VE_MTurk/MX_fS_HTML.html#125,125,1536,695,1536,864,1-12-2024,15-47-24,5,VR_target_stimuli/s48_1.3x_2.55_255_BC.png,125,1.3x,2.55,2,5125,123,meters,jsons/MX_seq8_1_VE125_flipped.json,236223,565905,34,Woman
5,453198,final-intermixed-textured,v2,jsons/MX_seq8_1_VE125_flipped.json,http://54.235.29.9/FacialAge/BNav_EC2/DepthDuration/MX_fS_VE_MTurk/MX_fS_HTML.html#125,125,1536,695,1536,864,1-12-2024,15-47-24,6,VR_target_stimuli/s19_1x_1.21_263_BC.png,125,1x,1.21,2,7481,123,meters,jsons/MX_seq8_1_VE125_flipped.json,236223,565905,34,Woman
6,453198,final-intermixed-textured,v2,jsons/MX_seq8_1_VE125_flipped.json,http://54.235.29.9/FacialAge/BNav_EC2/DepthDuration/MX_fS_VE_MTurk/MX_fS_HTML.html#125,125,1536,695,1536,864,1-12-2024,15-47-24,7,catch_stimuli/c0_BC.png,125,,,0,3332,117,meters,jsons/MX_seq8_1_VE125_flipped.json,236223,565905,34,Woman
7,453198,final-intermixed-textured,v2,jsons/MX_seq8_1_VE125_flipped.json,http://54.235.29.9/FacialAge/BNav_EC2/DepthDuration/MX_fS_VE_MTurk/MX_fS_HTML.html#125,125,1536,695,1536,864,1-12-2024,15-47-24,8,VR_target_stimuli/s21_1x_4.22_379_BC.png,125,1x,4.22,2,6352,123,meters,jsons/MX_seq8_1_VE125_flipped.json,236223,565905,34,Woman
8,453198,final-intermixed-textured,v2,jsons/MX_seq8_1_VE125_flipped.json,http://54.235.29.9/FacialAge/BNav_EC2/DepthDuration/MX_fS_VE_MTurk/MX_fS_HTML.html#125,125,1536,695,1536,864,1-12-2024,15-47-24,9,VR_target_stimuli/s8_0.75x_3.1_325_BC.png,125,0.75x,3.1,2,2901,131,meters,jsons/MX_seq8_1_VE125_flipped.json,236223,565905,34,Woman
9,453198,final-intermixed-textured,v2,jsons/MX_seq8_1_VE125_flipped.json,http://54.235.29.9/FacialAge/BNav_EC2/DepthDuration/MX_fS_VE_MTurk/MX_fS_HTML.html#125,125,1536,695,1536,864,1-12-2024,15-47-24,10,VR_target_stimuli/s27_1.3x_1.76_250_BC.png,125,1.3x,1.76,2,3700,130,meters,jsons/MX_seq8_1_VE125_flipped.json,236223,565905,34,Woman
10,453198,final-intermixed-textured,v2,jsons/MX_seq8_1_VE125_flipped.json,http://54.235.29.9/FacialAge/BNav_EC2/DepthDuration/MX_fS_VE_MTurk/MX_fS_HTML.html#125,125,1536,695,1536,864,1-12-2024,15-47-24,11,VR_target_stimuli/s15_0.75x_4.2_388.png,125,0.75x,4.2,5,4015,127,meters,jsons/MX_seq8_1_VE125_flipped.json,236223,565905,34,Woman
11,453198,final-intermixed-textured,v2,jsons/MX_seq8_1_VE125_flipped.json,http://54.235.29.9/FacialAge/BNav_EC2/DepthDuration/MX_fS_VE_MTurk/MX_fS_HTML.html#125,125,1536,695,1536,864,1-12-2024,15-47-24,12,VR_target_stimuli/s4_1x_1.4_313.png,125,1x,1.4,2,2760,122,meters,jsons/MX_seq8_1_VE125_flipped.json,236223,565905,34,Woman
12,453198,final-intermixed-textured,v2,jsons/MX_seq8_1_VE125_flipped.json,http://54.235.29.9/FacialAge/BNav_EC2/DepthDuration/MX_fS_VE_MTurk/MX_fS_HTML.html#125,125,1536,695,1536,864,1-12-2024,15-47-24,13,VR_target_stimuli/s35_1.3x_2_338.png,125,1.3x,2.0,5,3763,121,meters,jsons/MX_seq8_1_VE125_flipped.json,236223,565905,34,Woman
13,453198,final-intermixed-textured,v2,jsons/MX_seq8_1_VE125_flipped.json,http://54.235.29.9/FacialAge/BNav_EC2/DepthDuration/MX_fS_VE_MTurk/MX_fS_HTML.html#125,125,1536,695,1536,864,1-12-2024,15-47-24,14,VR_target_stimuli/s49_1x_4.67_341_BC.png,125,1x,4.67,6,3374,134,meters,jsons/MX_seq8_1_VE125_flipped.json,236223,565905,34,Woman
14,453198,final-intermixed-textured,v2,jsons/MX_seq8_1_VE125_flipped.json,http://54.235.29.9/FacialAge/BNav_EC2/DepthDuration/MX_fS_VE_MTurk/MX_fS_HTML.html#125,125,1536,695,1536,864,1-12-2024,15-47-24,15,VR_target_stimuli/s7_0.75x_1.5_253_BC.png,125,0.75x,1.5,2,3272,123,meters,jsons/MX_seq8_1_VE125_flipped.json,236223,565905,34,Woman
15,453198,final-intermixed-textured,v2,jsons/MX_seq8_1_VE125_flipped.json,http://54.235.29.9/FacialAge/BNav_EC2/DepthDuration/MX_fS_VE_MTurk/MX_fS_HTML.html#125,125,1536,695,1536,864,1-12-2024,15-47-24,16,VR_target_stimuli/s20_1.3x_4.99_412.png,125,1.3x,4.99,5,3040,133,meters,jsons/MX_seq8_1_VE125_flipped.json,236223,565905,34,Woman
16,453198,final-intermixed-textured,v2,jsons/MX_seq8_1_VE125_flipped.json,http://54.235.29.9/FacialAge/BNav_EC2/DepthDuration/MX_fS_VE_MTurk/MX_fS_HTML.html#125,125,1536,695,1536,864,1-12-2024,15-47-24,17,catch_stimuli/c1_BC.png,125,,,0,5469,132,meters,jsons/MX_seq8_1_VE125_flipped.json,236223,565905,34,Woman
17,453198,final-intermixed-textured,v2,jsons/MX_seq8_1_VE125_flipped.json,http://54.235.29.9/FacialAge/BNav_EC2/DepthDuration/MX_fS_VE_MTurk/MX_fS_HTML.html#125,125,1536,695,1536,864,1-12-2024,15-47-24,18,VR_target_stimuli/s31_1.3x_4.96_342_BC.png,125,1.3x,4.96,2,3179,131,meters,jsons/MX_seq8_1_VE125_flipped.json,236223,565905,34,Woman
18,453198,final-intermixed-textured,v2,jsons/MX_seq8_1_VE125_flipped.json,http://54.235.29.9/FacialAge/BNav_EC2/DepthDuration/MX_fS_VE_MTurk/MX_fS_HTML.html#125,125,1536,695,1536,864,1-12-2024,15-47-24,19,VR_target_stimuli/s33_1x_3.1_366.png,125,1x,3.1,2,2289,132,meters,jsons/MX_seq8_1_VE125_flipped.json,236223,565905,34,Woman
19,453198,final-intermixed-textured,v2,jsons/MX_seq8_1_VE125_flipped.json,http://54.235.29.9/FacialAge/BNav_EC2/DepthDuration/MX_fS_VE_MTurk/MX_fS_HTML.html#125,125,1536,695,1536,864,1-12-2024,15-47-24,20,VR_target_stimuli/s52_0.75x_3.2_270.png,125,0.75x,3.2,5,3326,121,meters,jsons/MX_seq8_1_VE125_flipped.json,236223,565905,34,Woman
20,453198,final-intermixed-textured,v2,jsons/MX_seq8_1_VE125_flipped.json,http://54.235.29.9/FacialAge/BNav_EC2/DepthDuration/MX_fS_VE_MTurk/MX_fS_HTML.html#125,125,1536,695,1536,864,1-12-2024,15-47-24,21,VR_target_stimuli/s32_1x_1.5_218.png,125,1x,1.5,5,2497,122,meters,jsons/MX_seq8_1_VE125_flipped.json,236223,565905,34,Woman
21,453198,final-intermixed-textured,v2,jsons/MX_seq8_1_VE125_flipped.json,http://54.235.29.9/FacialAge/BNav_EC2/DepthDuration/MX_fS_VE_MTurk/MX_fS_HTML.html#125,125,1536,695,1536,864,1-12-2024,15-47-24,22,VR_target_stimuli/s18_1.3x_2.25_368.png,125,1.3x,2.25,2,2177,139,meters,jsons/MX_seq8_1_VE125_flipped.json,236223,565905,34,Woman
22,453198,final-intermixed-textured,v2,jsons/MX_seq8_1_VE125_flipped.json,http://54.235.29.9/FacialAge/BNav_EC2/DepthDuration/MX_fS_VE_MTurk/MX_fS_HTML.html#125,125,1536,695,1536,864,1-12-2024,15-47-24,23,VR_target_stimuli/s39_0.75x_1_205_BC.png,125,0.75x,1.0,1,3465,118,meters,jsons/MX_seq8_1_VE125_flipped.json,236223,565905,34,Woman
23,453198,final-intermixed-textured,v2,jsons/MX_seq8_1_VE125_flipped.json,http://54.235.29.9/FacialAge/BNav_EC2/DepthDuration/MX_fS_VE_MTurk/MX_fS_HTML.html#125,125,1536,695,1536,864,1-12-2024,15-47-24,24,VR_target_stimuli/s51_1.3x_3.64_479_BC.png,125,1.3x,3.64,4,3155,137,meters,jsons/MX_seq8_1_VE125_flipped.json,236223,565905,34,Woman
24,453198,final-intermixed-textured,v2,jsons/MX_seq8_1_VE125_flipped.json,http://54.235.29.9/FacialAge/BNav_EC2/DepthDuration/MX_fS_VE_MTurk/MX_fS_HTML.html#125,125,1536,695,1536,864,1-12-2024,15-47-24,25,VR_target_stimuli/s43_1x_2.2_354_BC.png,125,1x,2.2,3,2647,117,meters,jsons/MX_seq8_1_VE125_flipped.json,236223,565905,34,Woman
25,453198,final-intermixed-textured,v2,jsons/MX_seq8_1_VE125_flipped.json,http://54.235.29.9/FacialAge/BNav_EC2/DepthDuration/MX_fS_VE_MTurk/MX_fS_HTML.html#125,125,1536,695,1536,864,1-12-2024,15-47-24,26,catch_stimuli/c2_BC.png,125,,,0,2783,132,meters,jsons/MX_seq8_1_VE125_flipped.json,236223,565905,34,Woman
26,453198,final-intermixed-textured,v2,jsons/MX_seq8_1_VE125_flipped.json,http://54.235.29.9/FacialAge/BNav_EC2/DepthDuration/MX_fS_VE_MTurk/MX_fS_HTML.html#125,125,1536,695,1536,864,1-12-2024,15-47-24,27,VR_target_stimuli/s24_0.75x_3.3_344.png,125,0.75x,3.3,0,2247,120,meters,jsons/MX_seq8_1_VE125_flipped.json,236223,565905,34,Woman
27,453198,final-intermixed-textured,v2,jsons/MX_seq8_1_VE125_flipped.json,http://54.235.29.9/FacialAge/BNav_EC2/DepthDuration/MX_fS_VE_MTurk/MX_fS_HTML.html#125,125,1536,695,1536,864,1-12-2024,15-47-24,28,VR_target_stimuli/s10_0.75x_2.7_321_BC.png,125,0.75x,2.7,4,4934,126,meters,jsons/MX_seq8_1_VE125_flipped.json,236223,565905,34,Woman
28,453198,final-intermixed-textured,v2,jsons/MX_seq8_1_VE125_flipped.json,http://54.235.29.9/FacialAge/BNav_EC2/DepthDuration/MX_fS_VE_MTurk/MX_fS_HTML.html#125,125,1536,695,1536,864,1-12-2024,15-47-24,29,VR_target_stimuli/s36_1.3x_4.1_442.png,125,1.3x,4.1,4,3893,126,meters,jsons/MX_seq8_1_VE125_flipped.json,236223,565905,34,Woman
29,453198,final-intermixed-textured,v2,jsons/MX_seq8_1_VE125_flipped.json,http://54.235.29.9/FacialAge/BNav_EC2/DepthDuration/MX_fS_VE_MTurk/MX_fS_HTML.html#125,125,1536,695,1536,864,1-12-2024,15-47-24,30,VR_target_stimuli/s40_1x_1.2_319.png,125,1x,1.2,2,3838,127,meters,jsons/MX_seq8_1_VE125_flipped.json,236223,565905,34,Woman
30,453198,final-intermixed-textured,v2,jsons/MX_seq8_1_VE125_flipped.json,http://54.235.29.9/FacialAge/BNav_EC2/DepthDuration/MX_fS_VE_MTurk/MX_fS_HTML.html#125,125,1536,695,1536,864,1-12-2024,15-47-24,31,VR_target_stimuli/s41_0.75x_2.1_281.png,125,0.75x,2.1,4,2786,129,meters,jsons/MX_seq8_1_VE125_flipped.json,236223,565905,34,Woman
31,453198,final-intermixed-textured,v2,jsons/MX_seq8_1_VE125_flipped.json,http://54.235.29.9/FacialAge/BNav_EC2/DepthDuration/MX_fS_VE_MTurk/MX_fS_HTML.html#125,125,1536,695,1536,864,1-12-2024,15-47-24,32,VR_target_stimuli/s45_1x_3.5_368_BC.png,125,1x,3.5,0,2248,116,meters,jsons/MX_seq8_1_VE125_flipped.json,236223,565905,34,Woman
32,453198,final-intermixed-textured,v2,jsons/MX_seq8_1_VE125_flipped.json,http://54.235.29.9/FacialAge/BNav_EC2/DepthDuration/MX_fS_VE_MTurk/MX_fS_HTML.html#125,125,1536,695,1536,864,1-12-2024,15-47-24,33,VR_target_stimuli/s23_1.3x_3.65_354_BC.png,125,1.3x,3.65,3,2674,129,meters,jsons/MX_seq8_1_VE125_flipped.json,236223,565905,34,Woman
33,453198,final-intermixed-textured,v2,jsons/MX_seq8_1_VE125_flipped.json,http://54.235.29.9/FacialAge/BNav_EC2/DepthDuration/MX_fS_VE_MTurk/MX_fS_HTML.html#125,125,1536,695,1536,864,1-12-2024,15-47-24,34,catch_stimuli/c3_BC.png,125,,,0,2702,127,meters,jsons/MX_seq8_1_VE125_flipped.json,236223,565905,34,Woman
34,453198,final-intermixed-textured,v2,jsons/MX_seq8_1_VE125_flipped.json,http://54.235.29.9/FacialAge/BNav_EC2/DepthDuration/MX_fS_VE_MTurk/MX_fS_HTML.html#125,125,1536,695,1536,864,1-12-2024,15-47-24,35,VR_target_stimuli/s26_1x_4_433_BC.png,125,1x,4.0,0,2107,123,meters,jsons/MX_seq8_1_VE125_flipped.json,236223,565905,34,Woman
35,453198,final-intermixed-textured,v2,jsons/MX_seq8_1_VE125_flipped.json,http://54.235.29.9/FacialAge/BNav_EC2/DepthDuration/MX_fS_VE_MTurk/MX_fS_HTML.html#125,125,1536,695,1536,864,1-12-2024,15-47-24,36,VR_target_stimuli/s12_0.75x_3.1_364.png,125,0.75x,3.1,2,4609,131,meters,jsons/MX_seq8_1_VE125_flipped.json,236223,565905,34,Woman
36,453198,final-intermixed-textured,v2,jsons/MX_seq8_1_VE125_flipped.json,http://54.235.29.9/FacialAge/BNav_EC2/DepthDuration/MX_fS_VE_MTurk/MX_fS_HTML.html#125,125,1536,695,1536,864,1-12-2024,15-47-24,37,VR_target_stimuli/s30_1.3x_2.3_337_BC.png,125,1.3x,2.3,2,2183,131,meters,jsons/MX_seq8_1_VE125_flipped.json,236223,565905,34,Woman
37,453198,final-intermixed-textured,v2,jsons/MX_seq8_1_VE125_flipped.json,http://54.235.29.9/FacialAge/BNav_EC2/DepthDuration/MX_fS_VE_MTurk/MX_fS_HTML.html#125,125,1536,695,1536,864,1-12-2024,15-47-24,38,VR_target_stimuli/s16_1.3x_1_223.png,125,1.3x,1.0,2,2010,121,meters,jsons/MX_seq8_1_VE125_flipped.json,236223,565905,34,Woman
38,453198,final-intermixed-textured,v2,jsons/MX_seq8_1_VE125_flipped.json,http://54.235.29.9/FacialAge/BNav_EC2/DepthDuration/MX_fS_VE_MTurk/MX_fS_HTML.html#125,125,1536,695,1536,864,1-12-2024,15-47-24,39,VR_target_stimuli/s17_1x_1.8_291.png,125,1x,1.8,2,2156,133,meters,jsons/MX_seq8_1_VE125_flipped.json,236223,565905,34,Woman
39,453198,final-intermixed-textured,v2,jsons/MX_seq8_1_VE125_flipped.json,http://54.235.29.9/FacialAge/BNav_EC2/DepthDuration/MX_fS_VE_MTurk/MX_fS_HTML.html#125,125,1536,695,1536,864,1-12-2024,15-47-24,40,VR_target_stimuli/s5_0.75x_4_375_BC.png,125,0.75x,4.0,4,5096,127,meters,jsons/MX_seq8_1_VE125_flipped.json,236223,565905,34,Woman
40,453198,final-intermixed-textured,v2,jsons/MX_seq8_1_VE125_flipped.json,http://54.235.29.9/FacialAge/BNav_EC2/DepthDuration/MX_fS_VE_MTurk/MX_fS_HTML.html#125,125,1536,695,1536,864,1-12-2024,15-47-24,41,VR_target_stimuli/s37_1x_3.3_563.png,125,1x,3.3,2,3988,121,meters,jsons/MX_seq8_1_VE125_flipped.json,236223,565905,34,Woman
41,453198,final-intermixed-textured,v2,jsons/MX_seq8_1_VE125_flipped.json,http://54.235.29.9/FacialAge/BNav_EC2/DepthDuration/MX_fS_VE_MTurk/MX_fS_HTML.html#125,125,1536,695,1536,864,1-12-2024,15-47-24,42,VR_target_stimuli/s46_1.3x_2.42_354_BC.png,125,1.3x,2.42,2,2640,131,meters,jsons/MX_seq8_1_VE125_flipped.json,236223,565905,34,Woman
42,453198,final-intermixed-textured,v2,jsons/MX_seq8_1_VE125_flipped.json,http://54.235.29.9/FacialAge/BNav_EC2/DepthDuration/MX_fS_VE_MTurk/MX_fS_HTML.html#125,125,1536,695,1536,864,1-12-2024,15-47-24,43,VR_target_stimuli/s22_0.75x_4.29_348_BC.png,125,0.75x,4.29,3,2891,123,meters,jsons/MX_seq8_1_VE125_flipped.json,236223,565905,34,Woman
43,453198,final-intermixed-textured,v2,jsons/MX_seq8_1_VE125_flipped.json,http://54.235.29.9/FacialAge/BNav_EC2/DepthDuration/MX_fS_VE_MTurk/MX_fS_HTML.html#125,125,1536,695,1536,864,1-12-2024,15-47-24,44,VR_target_stimuli/s42_1.3x_3.2_305.png,125,1.3x,3.2,3,2189,125,meters,jsons/MX_seq8_1_VE125_flipped.json,236223,565905,34,Woman
44,453198,final-intermixed-textured,v2,jsons/MX_seq8_1_VE125_flipped.json,http://54.235.29.9/FacialAge/BNav_EC2/DepthDuration/MX_fS_VE_MTurk/MX_fS_HTML.html#125,125,1536,695,1536,864,1-12-2024,15-47-24,45,catch_stimuli/c4_BC.png,125,,,0,2592,123,meters,jsons/MX_seq8_1_VE125_flipped.json,236223,565905,34,Woman
45,453198,final-intermixed-textured,v2,jsons/MX_seq8_1_VE125_flipped.json,http://54.235.29.9/FacialAge/BNav_EC2/DepthDuration/MX_fS_VE_MTurk/MX_fS_HTML.html#125,125,1536,695,1536,864,1-12-2024,15-47-24,46,VR_target_stimuli/s25_1x_1.4_290_BC.png,125,1x,1.4,2,2928,121,meters,jsons/MX_seq8_1_VE125_flipped.json,236223,565905,34,Woman
46,453198,final-intermixed-textured,v2,jsons/MX_seq8_1_VE125_flipped.json,http://54.235.29.9/FacialAge/BNav_EC2/DepthDuration/MX_fS_VE_MTurk/MX_fS_HTML.html#125,125,1536,695,1536,864,1-12-2024,15-47-24,47,VR_target_stimuli/s50_0.75x_4.53_517.png,125,0.75x,4.53,4,2544,121,meters,jsons/MX_seq8_1_VE125_flipped.json,236223,565905,34,Woman
47,453198,final-intermixed-textured,v2,jsons/MX_seq8_1_VE125_flipped.json,http://54.235.29.9/FacialAge/BNav_EC2/DepthDuration/MX_fS_VE_MTurk/MX_fS_HTML.html#125,125,1536,695,1536,864,1-12-2024,15-47-24,48,VR_target_stimuli/s53_0.75x_1.6_403_BC.png,125,0.75x,1.6,4,2035,119,meters,jsons/MX_seq8_1_VE125_flipped.json,236223,565905,34,Woman
48,453198,final-intermixed-textured,v2,jsons/MX_seq8_1_VE125_flipped.json,http://54.235.29.9/FacialAge/BNav_EC2/DepthDuration/MX_fS_VE_MTurk/MX_fS_HTML.html#125,125,1536,695,1536,864,1-12-2024,15-47-24,49,VR_target_stimuli/s38_1.3x_3.55_358.png,125,1.3x,3.55,3,3045,117,meters,jsons/MX_seq8_1_VE125_flipped.json,236223,565905,34,Woman
49,453198,final-intermixed-textured,v2,jsons/MX_seq8_1_VE125_flipped.json,http://54.235.29.9/FacialAge/BNav_EC2/DepthDuration/MX_fS_VE_MTurk/MX_fS_HTML.html#125,125,1536,695,1536,864,1-12-2024,15-47-24,50,VR_target_stimuli/s9_1x_1.2_263_BC.png,125,1x,1.2,2,2571,123,meters,jsons/MX_seq8_1_VE125_flipped.json,236223,565905,34,Woman
50,453198,final-intermixed-textured,v2,jsons/MX_seq8_1_VE125_flipped.json,http://54.235.29.9/FacialAge/BNav_EC2/DepthDuration/MX_fS_VE_MTurk/MX_fS_HTML.html#125,125,1536,695,1536,864,1-12-2024,15-47-24,51,VR_target_stimuli/s44_1.3x_4.4_325_BC.png,125,1.3x,4.4,3,2836,119,meters,jsons/MX_seq8_1_VE125_flipped.json,236223,565905,34,Woman
51,453198,final-intermixed-textured,v2,jsons/MX_seq8_1_VE125_flipped.json,http://54.235.29.9/FacialAge/BNav_EC2/DepthDuration/MX_fS_VE_MTurk/MX_fS_HTML.html#125,125,1536,695,1536,864,1-12-2024,15-47-24,52,VR_target_stimuli/s3_0.75x_5_381.png,125,0.75x,5.0,5,2641,121,meters,jsons/MX_seq8_1_VE125_flipped.json,236223,565905,34,Woman
52,453198,final-intermixed-textured,v2,jsons/MX_seq8_1_VE125_flipped.json,http://54.235.29.9/FacialAge/BNav_EC2/DepthDuration/MX_fS_VE_MTurk/MX_fS_HTML.html#125,125,1536,695,1536,864,1-12-2024,15-47-24,53,catch_stimuli/c5_BC.png,125,,,0,2301,133,meters,jsons/MX_seq8_1_VE125_flipped.json,236223,565905,34,Woman
53,453198,final-intermixed-textured,v2,jsons/MX_seq8_1_VE125_flipped.json,http://54.235.29.9/FacialAge/BNav_EC2/DepthDuration/MX_fS_VE_MTurk/MX_fS_HTML.html#125,125,1536,695,1536,864,1-12-2024,15-47-24,54,VR_target_stimuli/s1_1x_1.7_262.png,125,1x,1.7,3,5812,122,meters,jsons/MX_seq8_1_VE125_flipped.json,236223,565905,34,Woman
54,453198,final-intermixed-textured,v2,jsons/MX_seq8_1_VE125_flipped.json,http://54.235.29.9/FacialAge/BNav_EC2/DepthDuration/MX_fS_VE_MTurk/MX_fS_HTML.html#125,125,1536,695,1536,864,1-12-2024,15-47-24,55,VR_target_stimuli/s11_0.75x_5_359_BC.png,125,0.75x,5.0,4,2631,114,meters,jsons/MX_seq8_1_VE125_flipped.json,236223,565905,34,Woman
55,453198,final-intermixed-textured,v2,jsons/MX_seq8_1_VE125_flipped.json,http://54.235.29.9/FacialAge/BNav_EC2/DepthDuration/MX_fS_VE_MTurk/MX_fS_HTML.html#125,125,1536,695,1536,864,1-12-2024,15-47-24,56,VR_target_stimuli/s2_1.3x_2.7_397.png,125,1.3x,2.7,2,3058,124,meters,jsons/MX_seq8_1_VE125_flipped.json,236223,565905,34,Woman
56,453198,final-intermixed-textured,v2,jsons/MX_seq8_1_VE125_flipped.json,http://54.235.29.9/FacialAge/BNav_EC2/DepthDuration/MX_fS_VE_MTurk/MX_fS_HTML.html#125,125,1536,695,1536,864,1-12-2024,15-47-24,57,VR_target_stimuli/s6_1x_2.1_293.png,125,1x,2.1,3,3520,115,meters,jsons/MX_seq8_1_VE125_flipped.json,236223,565905,34,Woman
57,453198,final-intermixed-textured,v2,jsons/MX_seq8_1_VE125_flipped.json,http://54.235.29.9/FacialAge/BNav_EC2/DepthDuration/MX_fS_VE_MTurk/MX_fS_HTML.html#125,125,1536,695,1536,864,1-12-2024,15-47-24,58,VR_target_stimuli/s0_1x_2.6_351_BC.png,125,1x,2.6,3,5561,132,meters,jsons/MX_seq8_1_VE125_flipped.json,236223,565905,34,Woman
58,453198,final-intermixed-textured,v2,jsons/MX_seq8_1_VE125_flipped.json,http://54.235.29.9/FacialAge/BNav_EC2/DepthDuration/MX_fS_VE_MTurk/MX_fS_HTML.html#125,125,1536,695,1536,864,1-12-2024,15-47-24,59,VR_target_stimuli/s34_0.75x_2.8_269.png,125,0.75x,2.8,2,3462,134,meters,jsons/MX_seq8_1_VE125_flipped.json,236223,565905,34,Woman
59,453198,final-intermixed-textured,v2,jsons/MX_seq8_1_VE125_flipped.json,http://54.235.29.9/FacialAge/BNav_EC2/DepthDuration/MX_fS_VE_MTurk/MX_fS_HTML.html#125,125,1536,695,1536,864,1-12-2024,15-47-24,60,VR_target_stimuli/s13_1.3x_2.4_313_BC.png,125,1.3x,2.4,2,2995,129,meters,jsons/MX_seq8_1_VE125_flipped.json,236223,565905,34,Woman
