,subjID,experimentName,versionName,sequenceName,url,selected_row,windowWidth,windowHeight,screenWidth,screenHeight,startDate,startTime,trial,stimulus,duration,scale,actual_depth,depth_estimate,trial_RT,log_sceneDuration,unitSelection,seq_filepath,experimentTime,totalTime,age,gender
0,457332,final-intermixed-textured,v2,jsons/MX_seq26_1_VE125.json,http://54.235.29.9/FacialAge/BNav_EC2/DepthDuration/MX_fS_VE_MTurk/MX_fS_HTML.html#78,78,1536,742,1536,864,1-12-2024,12-34-27,1,VR_target_stimuli/s32_1.3x_1.5_224.png,125,1.3x,1.5,5,5069,136,meters,jsons/MX_seq26_1_VE125.json,222113,466322,23,Woman
1,457332,final-intermixed-textured,v2,jsons/MX_seq26_1_VE125.json,http://54.235.29.9/FacialAge/BNav_EC2/DepthDuration/MX_fS_VE_MTurk/MX_fS_HTML.html#78,78,1536,742,1536,864,1-12-2024,12-34-27,2,VR_target_stimuli/s18_0.75x_2.25_341_BC.png,125,0.75x,2.25,3,4858,124,meters,jsons/MX_seq26_1_VE125.json,222113,466322,23,Woman
2,457332,final-intermixed-textured,v2,jsons/MX_seq26_1_VE125.json,http://54.235.29.9/FacialAge/BNav_EC2/DepthDuration/MX_fS_VE_MTurk/MX_fS_HTML.html#78,78,1536,742,1536,864,1-12-2024,12-34-27,3,VR_target_stimuli/s39_1x_1_207.png,125,1x,1.0,0,4495,124,meters,jsons/MX_seq26_1_VE125.json,222113,466322,23,Woman
3,457332,final-intermixed-textured,v2,jsons/MX_seq26_1_VE125.json,http://54.235.29.9/FacialAge/BNav_EC2/DepthDuration/MX_fS_VE_MTurk/MX_fS_HTML.html#78,78,1536,742,1536,864,1-12-2024,12-34-27,4,VR_target_stimuli/s51_0.75x_3.64_460.png,125,0.75x,3.64,7,3428,125,meters,jsons/MX_seq26_1_VE125.json,222113,466322,23,Woman
4,457332,final-intermixed-textured,v2,jsons/MX_seq26_1_VE125.json,http://54.235.29.9/FacialAge/BNav_EC2/DepthDuration/MX_fS_VE_MTurk/MX_fS_HTML.html#78,78,1536,742,1536,864,1-12-2024,12-34-27,5,VR_target_stimuli/s43_1.3x_2.2_363_BC.png,125,1.3x,2.2,5,3720,126,meters,jsons/MX_seq26_1_VE125.json,222113,466322,23,Woman
5,457332,final-intermixed-textured,v2,jsons/MX_seq26_1_VE125.json,http://54.235.29.9/FacialAge/BNav_EC2/DepthDuration/MX_fS_VE_MTurk/MX_fS_HTML.html#78,78,1536,742,1536,864,1-12-2024,12-34-27,6,VR_target_stimuli/s24_1x_3.3_349_BC.png,125,1x,3.3,10,3310,126,meters,jsons/MX_seq26_1_VE125.json,222113,466322,23,Woman
6,457332,final-intermixed-textured,v2,jsons/MX_seq26_1_VE125.json,http://54.235.29.9/FacialAge/BNav_EC2/DepthDuration/MX_fS_VE_MTurk/MX_fS_HTML.html#78,78,1536,742,1536,864,1-12-2024,12-34-27,7,catch_stimuli/c0.png,125,,,0,3691,125,meters,jsons/MX_seq26_1_VE125.json,222113,466322,23,Woman
7,457332,final-intermixed-textured,v2,jsons/MX_seq26_1_VE125.json,http://54.235.29.9/FacialAge/BNav_EC2/DepthDuration/MX_fS_VE_MTurk/MX_fS_HTML.html#78,78,1536,742,1536,864,1-12-2024,12-34-27,8,VR_target_stimuli/s10_1x_2.7_324_BC.png,125,1x,2.7,8,3862,125,meters,jsons/MX_seq26_1_VE125.json,222113,466322,23,Woman
8,457332,final-intermixed-textured,v2,jsons/MX_seq26_1_VE125.json,http://54.235.29.9/FacialAge/BNav_EC2/DepthDuration/MX_fS_VE_MTurk/MX_fS_HTML.html#78,78,1536,742,1536,864,1-12-2024,12-34-27,9,VR_target_stimuli/s36_0.75x_4.1_407_BC.png,125,0.75x,4.1,8,4436,131,meters,jsons/MX_seq26_1_VE125.json,222113,466322,23,Woman
9,457332,final-intermixed-textured,v2,jsons/MX_seq26_1_VE125.json,http://54.235.29.9/FacialAge/BNav_EC2/DepthDuration/MX_fS_VE_MTurk/MX_fS_HTML.html#78,78,1536,742,1536,864,1-12-2024,12-34-27,10,VR_target_stimuli/s40_1.3x_1.2_332_BC.png,125,1.3x,1.2,6,3178,126,meters,jsons/MX_seq26_1_VE125.json,222113,466322,23,Woman
10,457332,final-intermixed-textured,v2,jsons/MX_seq26_1_VE125.json,http://54.235.29.9/FacialAge/BNav_EC2/DepthDuration/MX_fS_VE_MTurk/MX_fS_HTML.html#78,78,1536,742,1536,864,1-12-2024,12-34-27,11,VR_target_stimuli/s41_0.75x_2.1_281.png,125,0.75x,2.1,3,3507,110,meters,jsons/MX_seq26_1_VE125.json,222113,466322,23,Woman
11,457332,final-intermixed-textured,v2,jsons/MX_seq26_1_VE125.json,http://54.235.29.9/FacialAge/BNav_EC2/DepthDuration/MX_fS_VE_MTurk/MX_fS_HTML.html#78,78,1536,742,1536,864,1-12-2024,12-34-27,12,VR_target_stimuli/s45_1x_3.5_368.png,125,1x,3.5,5,3127,125,meters,jsons/MX_seq26_1_VE125.json,222113,466322,23,Woman
12,457332,final-intermixed-textured,v2,jsons/MX_seq26_1_VE125.json,http://54.235.29.9/FacialAge/BNav_EC2/DepthDuration/MX_fS_VE_MTurk/MX_fS_HTML.html#78,78,1536,742,1536,864,1-12-2024,12-34-27,13,VR_target_stimuli/s23_1.3x_3.65_354.png,125,1.3x,3.65,4,3787,126,meters,jsons/MX_seq26_1_VE125.json,222113,466322,23,Woman
13,457332,final-intermixed-textured,v2,jsons/MX_seq26_1_VE125.json,http://54.235.29.9/FacialAge/BNav_EC2/DepthDuration/MX_fS_VE_MTurk/MX_fS_HTML.html#78,78,1536,742,1536,864,1-12-2024,12-34-27,14,VR_target_stimuli/s26_1x_4_433_BC.png,125,1x,4.0,7,3651,124,meters,jsons/MX_seq26_1_VE125.json,222113,466322,23,Woman
14,457332,final-intermixed-textured,v2,jsons/MX_seq26_1_VE125.json,http://54.235.29.9/FacialAge/BNav_EC2/DepthDuration/MX_fS_VE_MTurk/MX_fS_HTML.html#78,78,1536,742,1536,864,1-12-2024,12-34-27,15,VR_target_stimuli/s12_0.75x_3.1_364.png,125,0.75x,3.1,0,3065,125,meters,jsons/MX_seq26_1_VE125.json,222113,466322,23,Woman
15,457332,final-intermixed-textured,v2,jsons/MX_seq26_1_VE125.json,http://54.235.29.9/FacialAge/BNav_EC2/DepthDuration/MX_fS_VE_MTurk/MX_fS_HTML.html#78,78,1536,742,1536,864,1-12-2024,12-34-27,16,VR_target_stimuli/s30_1.3x_2.3_337.png,125,1.3x,2.3,4,3155,124,meters,jsons/MX_seq26_1_VE125.json,222113,466322,23,Woman
16,457332,final-intermixed-textured,v2,jsons/MX_seq26_1_VE125.json,http://54.235.29.9/FacialAge/BNav_EC2/DepthDuration/MX_fS_VE_MTurk/MX_fS_HTML.html#78,78,1536,742,1536,864,1-12-2024,12-34-27,17,catch_stimuli/c1.png,125,,,0,2886,112,meters,jsons/MX_seq26_1_VE125.json,222113,466322,23,Woman
17,457332,final-intermixed-textured,v2,jsons/MX_seq26_1_VE125.json,http://54.235.29.9/FacialAge/BNav_EC2/DepthDuration/MX_fS_VE_MTurk/MX_fS_HTML.html#78,78,1536,742,1536,864,1-12-2024,12-34-27,18,VR_target_stimuli/s16_1.3x_1_223_BC.png,125,1.3x,1.0,2,3416,129,meters,jsons/MX_seq26_1_VE125.json,222113,466322,23,Woman
18,457332,final-intermixed-textured,v2,jsons/MX_seq26_1_VE125.json,http://54.235.29.9/FacialAge/BNav_EC2/DepthDuration/MX_fS_VE_MTurk/MX_fS_HTML.html#78,78,1536,742,1536,864,1-12-2024,12-34-27,19,VR_target_stimuli/s17_1x_1.8_291.png,125,1x,1.8,5,2929,110,meters,jsons/MX_seq26_1_VE125.json,222113,466322,23,Woman
19,457332,final-intermixed-textured,v2,jsons/MX_seq26_1_VE125.json,http://54.235.29.9/FacialAge/BNav_EC2/DepthDuration/MX_fS_VE_MTurk/MX_fS_HTML.html#78,78,1536,742,1536,864,1-12-2024,12-34-27,20,VR_target_stimuli/s5_0.75x_4_375_BC.png,125,0.75x,4.0,8,2850,140,meters,jsons/MX_seq26_1_VE125.json,222113,466322,23,Woman
20,457332,final-intermixed-textured,v2,jsons/MX_seq26_1_VE125.json,http://54.235.29.9/FacialAge/BNav_EC2/DepthDuration/MX_fS_VE_MTurk/MX_fS_HTML.html#78,78,1536,742,1536,864,1-12-2024,12-34-27,21,VR_target_stimuli/s37_1x_3.3_563_BC.png,125,1x,3.3,7,3078,121,meters,jsons/MX_seq26_1_VE125.json,222113,466322,23,Woman
21,457332,final-intermixed-textured,v2,jsons/MX_seq26_1_VE125.json,http://54.235.29.9/FacialAge/BNav_EC2/DepthDuration/MX_fS_VE_MTurk/MX_fS_HTML.html#78,78,1536,742,1536,864,1-12-2024,12-34-27,22,VR_target_stimuli/s46_1.3x_2.42_354.png,125,1.3x,2.42,6,4044,125,meters,jsons/MX_seq26_1_VE125.json,222113,466322,23,Woman
22,457332,final-intermixed-textured,v2,jsons/MX_seq26_1_VE125.json,http://54.235.29.9/FacialAge/BNav_EC2/DepthDuration/MX_fS_VE_MTurk/MX_fS_HTML.html#78,78,1536,742,1536,864,1-12-2024,12-34-27,23,VR_target_stimuli/s22_0.75x_4.29_348_BC.png,125,0.75x,4.29,8,2975,125,meters,jsons/MX_seq26_1_VE125.json,222113,466322,23,Woman
23,457332,final-intermixed-textured,v2,jsons/MX_seq26_1_VE125.json,http://54.235.29.9/FacialAge/BNav_EC2/DepthDuration/MX_fS_VE_MTurk/MX_fS_HTML.html#78,78,1536,742,1536,864,1-12-2024,12-34-27,24,VR_target_stimuli/s42_1.3x_3.2_305_BC.png,125,1.3x,3.2,4,2706,125,meters,jsons/MX_seq26_1_VE125.json,222113,466322,23,Woman
24,457332,final-intermixed-textured,v2,jsons/MX_seq26_1_VE125.json,http://54.235.29.9/FacialAge/BNav_EC2/DepthDuration/MX_fS_VE_MTurk/MX_fS_HTML.html#78,78,1536,742,1536,864,1-12-2024,12-34-27,25,VR_target_stimuli/s25_1x_1.4_290.png,125,1x,1.4,6,2608,124,meters,jsons/MX_seq26_1_VE125.json,222113,466322,23,Woman
25,457332,final-intermixed-textured,v2,jsons/MX_seq26_1_VE125.json,http://54.235.29.9/FacialAge/BNav_EC2/DepthDuration/MX_fS_VE_MTurk/MX_fS_HTML.html#78,78,1536,742,1536,864,1-12-2024,12-34-27,26,catch_stimuli/c2.png,125,,,0,2803,125,meters,jsons/MX_seq26_1_VE125.json,222113,466322,23,Woman
26,457332,final-intermixed-textured,v2,jsons/MX_seq26_1_VE125.json,http://54.235.29.9/FacialAge/BNav_EC2/DepthDuration/MX_fS_VE_MTurk/MX_fS_HTML.html#78,78,1536,742,1536,864,1-12-2024,12-34-27,27,VR_target_stimuli/s50_0.75x_4.53_517.png,125,0.75x,4.53,0,2598,124,meters,jsons/MX_seq26_1_VE125.json,222113,466322,23,Woman
27,457332,final-intermixed-textured,v2,jsons/MX_seq26_1_VE125.json,http://54.235.29.9/FacialAge/BNav_EC2/DepthDuration/MX_fS_VE_MTurk/MX_fS_HTML.html#78,78,1536,742,1536,864,1-12-2024,12-34-27,28,VR_target_stimuli/s53_0.75x_1.6_403_BC.png,125,0.75x,1.6,7,2396,124,meters,jsons/MX_seq26_1_VE125.json,222113,466322,23,Woman
28,457332,final-intermixed-textured,v2,jsons/MX_seq26_1_VE125.json,http://54.235.29.9/FacialAge/BNav_EC2/DepthDuration/MX_fS_VE_MTurk/MX_fS_HTML.html#78,78,1536,742,1536,864,1-12-2024,12-34-27,29,VR_target_stimuli/s38_1.3x_3.55_358_BC.png,125,1.3x,3.55,5,2674,129,meters,jsons/MX_seq26_1_VE125.json,222113,466322,23,Woman
29,457332,final-intermixed-textured,v2,jsons/MX_seq26_1_VE125.json,http://54.235.29.9/FacialAge/BNav_EC2/DepthDuration/MX_fS_VE_MTurk/MX_fS_HTML.html#78,78,1536,742,1536,864,1-12-2024,12-34-27,30,VR_target_stimuli/s9_1x_1.2_263_BC.png,125,1x,1.2,3,2686,125,meters,jsons/MX_seq26_1_VE125.json,222113,466322,23,Woman
30,457332,final-intermixed-textured,v2,jsons/MX_seq26_1_VE125.json,http://54.235.29.9/FacialAge/BNav_EC2/DepthDuration/MX_fS_VE_MTurk/MX_fS_HTML.html#78,78,1536,742,1536,864,1-12-2024,12-34-27,31,VR_target_stimuli/s44_0.75x_4.4_314.png,125,0.75x,4.4,10,3462,125,meters,jsons/MX_seq26_1_VE125.json,222113,466322,23,Woman
31,457332,final-intermixed-textured,v2,jsons/MX_seq26_1_VE125.json,http://54.235.29.9/FacialAge/BNav_EC2/DepthDuration/MX_fS_VE_MTurk/MX_fS_HTML.html#78,78,1536,742,1536,864,1-12-2024,12-34-27,32,VR_target_stimuli/s3_1x_5_385.png,125,1x,5.0,11,3305,132,meters,jsons/MX_seq26_1_VE125.json,222113,466322,23,Woman
32,457332,final-intermixed-textured,v2,jsons/MX_seq26_1_VE125.json,http://54.235.29.9/FacialAge/BNav_EC2/DepthDuration/MX_fS_VE_MTurk/MX_fS_HTML.html#78,78,1536,742,1536,864,1-12-2024,12-34-27,33,VR_target_stimuli/s1_1.3x_1.7_261.png,125,1.3x,1.7,4,2907,126,meters,jsons/MX_seq26_1_VE125.json,222113,466322,23,Woman
33,457332,final-intermixed-textured,v2,jsons/MX_seq26_1_VE125.json,http://54.235.29.9/FacialAge/BNav_EC2/DepthDuration/MX_fS_VE_MTurk/MX_fS_HTML.html#78,78,1536,742,1536,864,1-12-2024,12-34-27,34,catch_stimuli/c3.png,125,,,0,3595,126,meters,jsons/MX_seq26_1_VE125.json,222113,466322,23,Woman
34,457332,final-intermixed-textured,v2,jsons/MX_seq26_1_VE125.json,http://54.235.29.9/FacialAge/BNav_EC2/DepthDuration/MX_fS_VE_MTurk/MX_fS_HTML.html#78,78,1536,742,1536,864,1-12-2024,12-34-27,35,VR_target_stimuli/s11_1x_5_361.png,125,1x,5.0,6,2657,123,meters,jsons/MX_seq26_1_VE125.json,222113,466322,23,Woman
35,457332,final-intermixed-textured,v2,jsons/MX_seq26_1_VE125.json,http://54.235.29.9/FacialAge/BNav_EC2/DepthDuration/MX_fS_VE_MTurk/MX_fS_HTML.html#78,78,1536,742,1536,864,1-12-2024,12-34-27,36,VR_target_stimuli/s2_0.75x_2.7_384_BC.png,125,0.75x,2.7,5,3370,127,meters,jsons/MX_seq26_1_VE125.json,222113,466322,23,Woman
36,457332,final-intermixed-textured,v2,jsons/MX_seq26_1_VE125.json,http://54.235.29.9/FacialAge/BNav_EC2/DepthDuration/MX_fS_VE_MTurk/MX_fS_HTML.html#78,78,1536,742,1536,864,1-12-2024,12-34-27,37,VR_target_stimuli/s6_1.3x_2.1_298_BC.png,125,1.3x,2.1,4,3251,125,meters,jsons/MX_seq26_1_VE125.json,222113,466322,23,Woman
37,457332,final-intermixed-textured,v2,jsons/MX_seq26_1_VE125.json,http://54.235.29.9/FacialAge/BNav_EC2/DepthDuration/MX_fS_VE_MTurk/MX_fS_HTML.html#78,78,1536,742,1536,864,1-12-2024,12-34-27,38,VR_target_stimuli/s0_1.3x_2.6_356.png,125,1.3x,2.6,7,3686,125,meters,jsons/MX_seq26_1_VE125.json,222113,466322,23,Woman
38,457332,final-intermixed-textured,v2,jsons/MX_seq26_1_VE125.json,http://54.235.29.9/FacialAge/BNav_EC2/DepthDuration/MX_fS_VE_MTurk/MX_fS_HTML.html#78,78,1536,742,1536,864,1-12-2024,12-34-27,39,VR_target_stimuli/s34_1x_2.8_283_BC.png,125,1x,2.8,5,3061,125,meters,jsons/MX_seq26_1_VE125.json,222113,466322,23,Woman
39,457332,final-intermixed-textured,v2,jsons/MX_seq26_1_VE125.json,http://54.235.29.9/FacialAge/BNav_EC2/DepthDuration/MX_fS_VE_MTurk/MX_fS_HTML.html#78,78,1536,742,1536,864,1-12-2024,12-34-27,40,VR_target_stimuli/s13_0.75x_2.4_308.png,125,0.75x,2.4,4,2831,125,meters,jsons/MX_seq26_1_VE125.json,222113,466322,23,Woman
40,457332,final-intermixed-textured,v2,jsons/MX_seq26_1_VE125.json,http://54.235.29.9/FacialAge/BNav_EC2/DepthDuration/MX_fS_VE_MTurk/MX_fS_HTML.html#78,78,1536,742,1536,864,1-12-2024,12-34-27,41,VR_target_stimuli/s14_1x_ 3.83_357.png,125,1x,3.83,8,2534,112,meters,jsons/MX_seq26_1_VE125.json,222113,466322,23,Woman
41,457332,final-intermixed-textured,v2,jsons/MX_seq26_1_VE125.json,http://54.235.29.9/FacialAge/BNav_EC2/DepthDuration/MX_fS_VE_MTurk/MX_fS_HTML.html#78,78,1536,742,1536,864,1-12-2024,12-34-27,42,VR_target_stimuli/s47_1.3x_3.45_373.png,125,1.3x,3.45,3,2443,125,meters,jsons/MX_seq26_1_VE125.json,222113,466322,23,Woman
42,457332,final-intermixed-textured,v2,jsons/MX_seq26_1_VE125.json,http://54.235.29.9/FacialAge/BNav_EC2/DepthDuration/MX_fS_VE_MTurk/MX_fS_HTML.html#78,78,1536,742,1536,864,1-12-2024,12-34-27,43,VR_target_stimuli/s29_0.75x_1.3_246.png,125,0.75x,1.3,5,2833,125,meters,jsons/MX_seq26_1_VE125.json,222113,466322,23,Woman
43,457332,final-intermixed-textured,v2,jsons/MX_seq26_1_VE125.json,http://54.235.29.9/FacialAge/BNav_EC2/DepthDuration/MX_fS_VE_MTurk/MX_fS_HTML.html#78,78,1536,742,1536,864,1-12-2024,12-34-27,44,VR_target_stimuli/s28_1.3x_3.2_365_BC.png,125,1.3x,3.2,4,2884,110,meters,jsons/MX_seq26_1_VE125.json,222113,466322,23,Woman
44,457332,final-intermixed-textured,v2,jsons/MX_seq26_1_VE125.json,http://54.235.29.9/FacialAge/BNav_EC2/DepthDuration/MX_fS_VE_MTurk/MX_fS_HTML.html#78,78,1536,742,1536,864,1-12-2024,12-34-27,45,catch_stimuli/c4.png,125,,,0,2799,125,meters,jsons/MX_seq26_1_VE125.json,222113,466322,23,Woman
45,457332,final-intermixed-textured,v2,jsons/MX_seq26_1_VE125.json,http://54.235.29.9/FacialAge/BNav_EC2/DepthDuration/MX_fS_VE_MTurk/MX_fS_HTML.html#78,78,1536,742,1536,864,1-12-2024,12-34-27,46,VR_target_stimuli/s48_1x_2.55_256_BC.png,125,1x,2.55,7,4829,127,meters,jsons/MX_seq26_1_VE125.json,222113,466322,23,Woman
46,457332,final-intermixed-textured,v2,jsons/MX_seq26_1_VE125.json,http://54.235.29.9/FacialAge/BNav_EC2/DepthDuration/MX_fS_VE_MTurk/MX_fS_HTML.html#78,78,1536,742,1536,864,1-12-2024,12-34-27,47,VR_target_stimuli/s19_0.75x_1.21_257_BC.png,125,0.75x,1.21,8,2478,128,meters,jsons/MX_seq26_1_VE125.json,222113,466322,23,Woman
47,457332,final-intermixed-textured,v2,jsons/MX_seq26_1_VE125.json,http://54.235.29.9/FacialAge/BNav_EC2/DepthDuration/MX_fS_VE_MTurk/MX_fS_HTML.html#78,78,1536,742,1536,864,1-12-2024,12-34-27,48,VR_target_stimuli/s21_0.75x_4.22_374_BC.png,125,0.75x,4.22,10,3065,125,meters,jsons/MX_seq26_1_VE125.json,222113,466322,23,Woman
48,457332,final-intermixed-textured,v2,jsons/MX_seq26_1_VE125.json,http://54.235.29.9/FacialAge/BNav_EC2/DepthDuration/MX_fS_VE_MTurk/MX_fS_HTML.html#78,78,1536,742,1536,864,1-12-2024,12-34-27,49,VR_target_stimuli/s8_1.3x_3.1_345.png,125,1.3x,3.1,3,3055,123,meters,jsons/MX_seq26_1_VE125.json,222113,466322,23,Woman
49,457332,final-intermixed-textured,v2,jsons/MX_seq26_1_VE125.json,http://54.235.29.9/FacialAge/BNav_EC2/DepthDuration/MX_fS_VE_MTurk/MX_fS_HTML.html#78,78,1536,742,1536,864,1-12-2024,12-34-27,50,VR_target_stimuli/s27_1x_1.76_248_BC.png,125,1x,1.76,4,2519,110,meters,jsons/MX_seq26_1_VE125.json,222113,466322,23,Woman
50,457332,final-intermixed-textured,v2,jsons/MX_seq26_1_VE125.json,http://54.235.29.9/FacialAge/BNav_EC2/DepthDuration/MX_fS_VE_MTurk/MX_fS_HTML.html#78,78,1536,742,1536,864,1-12-2024,12-34-27,51,VR_target_stimuli/s15_1.3x_4.2_389_BC.png,125,1.3x,4.2,5,2407,127,meters,jsons/MX_seq26_1_VE125.json,222113,466322,23,Woman
51,457332,final-intermixed-textured,v2,jsons/MX_seq26_1_VE125.json,http://54.235.29.9/FacialAge/BNav_EC2/DepthDuration/MX_fS_VE_MTurk/MX_fS_HTML.html#78,78,1536,742,1536,864,1-12-2024,12-34-27,52,VR_target_stimuli/s4_0.75x_1.4_301.png,125,0.75x,1.4,3,3357,125,meters,jsons/MX_seq26_1_VE125.json,222113,466322,23,Woman
52,457332,final-intermixed-textured,v2,jsons/MX_seq26_1_VE125.json,http://54.235.29.9/FacialAge/BNav_EC2/DepthDuration/MX_fS_VE_MTurk/MX_fS_HTML.html#78,78,1536,742,1536,864,1-12-2024,12-34-27,53,catch_stimuli/c5.png,125,,,0,3800,125,meters,jsons/MX_seq26_1_VE125.json,222113,466322,23,Woman
53,457332,final-intermixed-textured,v2,jsons/MX_seq26_1_VE125.json,http://54.235.29.9/FacialAge/BNav_EC2/DepthDuration/MX_fS_VE_MTurk/MX_fS_HTML.html#78,78,1536,742,1536,864,1-12-2024,12-34-27,54,VR_target_stimuli/s35_1x_2_331.png,125,1x,2.0,4,2773,123,meters,jsons/MX_seq26_1_VE125.json,222113,466322,23,Woman
54,457332,final-intermixed-textured,v2,jsons/MX_seq26_1_VE125.json,http://54.235.29.9/FacialAge/BNav_EC2/DepthDuration/MX_fS_VE_MTurk/MX_fS_HTML.html#78,78,1536,742,1536,864,1-12-2024,12-34-27,55,VR_target_stimuli/s49_0.75x_4.67_328_BC.png,125,0.75x,4.67,4,2373,124,meters,jsons/MX_seq26_1_VE125.json,222113,466322,23,Woman
55,457332,final-intermixed-textured,v2,jsons/MX_seq26_1_VE125.json,http://54.235.29.9/FacialAge/BNav_EC2/DepthDuration/MX_fS_VE_MTurk/MX_fS_HTML.html#78,78,1536,742,1536,864,1-12-2024,12-34-27,56,VR_target_stimuli/s7_1.3x_1.5_256.png,125,1.3x,1.5,4,3002,127,meters,jsons/MX_seq26_1_VE125.json,222113,466322,23,Woman
56,457332,final-intermixed-textured,v2,jsons/MX_seq26_1_VE125.json,http://54.235.29.9/FacialAge/BNav_EC2/DepthDuration/MX_fS_VE_MTurk/MX_fS_HTML.html#78,78,1536,742,1536,864,1-12-2024,12-34-27,57,VR_target_stimuli/s20_1x_4.99_398_BC.png,125,1x,4.99,9,2913,125,meters,jsons/MX_seq26_1_VE125.json,222113,466322,23,Woman
57,457332,final-intermixed-textured,v2,jsons/MX_seq26_1_VE125.json,http://54.235.29.9/FacialAge/BNav_EC2/DepthDuration/MX_fS_VE_MTurk/MX_fS_HTML.html#78,78,1536,742,1536,864,1-12-2024,12-34-27,58,VR_target_stimuli/s31_1x_4.96_333.png,125,1x,4.96,4,2424,127,meters,jsons/MX_seq26_1_VE125.json,222113,466322,23,Woman
58,457332,final-intermixed-textured,v2,jsons/MX_seq26_1_VE125.json,http://54.235.29.9/FacialAge/BNav_EC2/DepthDuration/MX_fS_VE_MTurk/MX_fS_HTML.html#78,78,1536,742,1536,864,1-12-2024,12-34-27,59,VR_target_stimuli/s33_0.75x_3.1_361.png,125,0.75x,3.1,4,3040,124,meters,jsons/MX_seq26_1_VE125.json,222113,466322,23,Woman
59,457332,final-intermixed-textured,v2,jsons/MX_seq26_1_VE125.json,http://54.235.29.9/FacialAge/BNav_EC2/DepthDuration/MX_fS_VE_MTurk/MX_fS_HTML.html#78,78,1536,742,1536,864,1-12-2024,12-34-27,60,VR_target_stimuli/s52_1.3x_3.2_280_BC.png,125,1.3x,3.2,6,2997,124,meters,jsons/MX_seq26_1_VE125.json,222113,466322,23,Woman
