,subjID,experimentName,versionName,sequenceName,url,selected_row,windowWidth,windowHeight,screenWidth,screenHeight,startDate,startTime,trial,stimulus,duration,scale,actual_depth,depth_estimate,trial_RT,log_sceneDuration,unitSelection,seq_filepath,experimentTime,totalTime,age,gender
0,470447,final-intermixed-textured,v2,jsons/MX_seq29_0_VE125_flipped.json,http://54.235.29.9/FacialAge/BNav_EC2/DepthDuration/MX_fS_VE_MTurk/MX_fS_HTML.html#49,49,1920,1080,1920,1080,1-12-2024,13-26-20,1,VR_target_stimuli/s51_0.75x_3.64_460.png,125,0.75x,3.64,2.5,4606,123,meters,jsons/MX_seq29_0_VE125_flipped.json,299330,591160,28,Man
1,470447,final-intermixed-textured,v2,jsons/MX_seq29_0_VE125_flipped.json,http://54.235.29.9/FacialAge/BNav_EC2/DepthDuration/MX_fS_VE_MTurk/MX_fS_HTML.html#49,49,1920,1080,1920,1080,1-12-2024,13-26-20,2,VR_target_stimuli/s43_1x_2.2_354_BC.png,125,1x,2.2,0.0,4378,124,meters,jsons/MX_seq29_0_VE125_flipped.json,299330,591160,28,Man
2,470447,final-intermixed-textured,v2,jsons/MX_seq29_0_VE125_flipped.json,http://54.235.29.9/FacialAge/BNav_EC2/DepthDuration/MX_fS_VE_MTurk/MX_fS_HTML.html#49,49,1920,1080,1920,1080,1-12-2024,13-26-20,3,VR_target_stimuli/s24_1.3x_3.3_352.png,125,1.3x,3.3,3.5,5630,127,meters,jsons/MX_seq29_0_VE125_flipped.json,299330,591160,28,Man
3,470447,final-intermixed-textured,v2,jsons/MX_seq29_0_VE125_flipped.json,http://54.235.29.9/FacialAge/BNav_EC2/DepthDuration/MX_fS_VE_MTurk/MX_fS_HTML.html#49,49,1920,1080,1920,1080,1-12-2024,13-26-20,4,VR_target_stimuli/s10_1x_2.7_324.png,125,1x,2.7,2.0,3850,124,meters,jsons/MX_seq29_0_VE125_flipped.json,299330,591160,28,Man
4,470447,final-intermixed-textured,v2,jsons/MX_seq29_0_VE125_flipped.json,http://54.235.29.9/FacialAge/BNav_EC2/DepthDuration/MX_fS_VE_MTurk/MX_fS_HTML.html#49,49,1920,1080,1920,1080,1-12-2024,13-26-20,5,VR_target_stimuli/s36_0.75x_4.1_407_BC.png,125,0.75x,4.1,4.5,4910,126,meters,jsons/MX_seq29_0_VE125_flipped.json,299330,591160,28,Man
5,470447,final-intermixed-textured,v2,jsons/MX_seq29_0_VE125_flipped.json,http://54.235.29.9/FacialAge/BNav_EC2/DepthDuration/MX_fS_VE_MTurk/MX_fS_HTML.html#49,49,1920,1080,1920,1080,1-12-2024,13-26-20,6,VR_target_stimuli/s40_1.3x_1.2_332_BC.png,125,1.3x,1.2,1.5,4048,127,meters,jsons/MX_seq29_0_VE125_flipped.json,299330,591160,28,Man
6,470447,final-intermixed-textured,v2,jsons/MX_seq29_0_VE125_flipped.json,http://54.235.29.9/FacialAge/BNav_EC2/DepthDuration/MX_fS_VE_MTurk/MX_fS_HTML.html#49,49,1920,1080,1920,1080,1-12-2024,13-26-20,7,catch_stimuli/c0_BC.png,125,,,0.0,2813,125,meters,jsons/MX_seq29_0_VE125_flipped.json,299330,591160,28,Man
7,470447,final-intermixed-textured,v2,jsons/MX_seq29_0_VE125_flipped.json,http://54.235.29.9/FacialAge/BNav_EC2/DepthDuration/MX_fS_VE_MTurk/MX_fS_HTML.html#49,49,1920,1080,1920,1080,1-12-2024,13-26-20,8,VR_target_stimuli/s41_1.3x_2.1_294_BC.png,125,1.3x,2.1,2.0,5028,122,meters,jsons/MX_seq29_0_VE125_flipped.json,299330,591160,28,Man
8,470447,final-intermixed-textured,v2,jsons/MX_seq29_0_VE125_flipped.json,http://54.235.29.9/FacialAge/BNav_EC2/DepthDuration/MX_fS_VE_MTurk/MX_fS_HTML.html#49,49,1920,1080,1920,1080,1-12-2024,13-26-20,9,VR_target_stimuli/s45_1x_3.5_368_BC.png,125,1x,3.5,3.0,3423,138,meters,jsons/MX_seq29_0_VE125_flipped.json,299330,591160,28,Man
9,470447,final-intermixed-textured,v2,jsons/MX_seq29_0_VE125_flipped.json,http://54.235.29.9/FacialAge/BNav_EC2/DepthDuration/MX_fS_VE_MTurk/MX_fS_HTML.html#49,49,1920,1080,1920,1080,1-12-2024,13-26-20,10,VR_target_stimuli/s23_0.75x_3.65_351.png,125,0.75x,3.65,1.5,4817,124,meters,jsons/MX_seq29_0_VE125_flipped.json,299330,591160,28,Man
10,470447,final-intermixed-textured,v2,jsons/MX_seq29_0_VE125_flipped.json,http://54.235.29.9/FacialAge/BNav_EC2/DepthDuration/MX_fS_VE_MTurk/MX_fS_HTML.html#49,49,1920,1080,1920,1080,1-12-2024,13-26-20,11,VR_target_stimuli/s26_1x_4_433.png,125,1x,4.0,3.0,4760,125,meters,jsons/MX_seq29_0_VE125_flipped.json,299330,591160,28,Man
11,470447,final-intermixed-textured,v2,jsons/MX_seq29_0_VE125_flipped.json,http://54.235.29.9/FacialAge/BNav_EC2/DepthDuration/MX_fS_VE_MTurk/MX_fS_HTML.html#49,49,1920,1080,1920,1080,1-12-2024,13-26-20,12,VR_target_stimuli/s12_1.3x_3.1_375.png,125,1.3x,3.1,2.5,5370,125,meters,jsons/MX_seq29_0_VE125_flipped.json,299330,591160,28,Man
12,470447,final-intermixed-textured,v2,jsons/MX_seq29_0_VE125_flipped.json,http://54.235.29.9/FacialAge/BNav_EC2/DepthDuration/MX_fS_VE_MTurk/MX_fS_HTML.html#49,49,1920,1080,1920,1080,1-12-2024,13-26-20,13,VR_target_stimuli/s30_0.75x_2.3_332_BC.png,125,0.75x,2.3,3.0,3453,138,meters,jsons/MX_seq29_0_VE125_flipped.json,299330,591160,28,Man
13,470447,final-intermixed-textured,v2,jsons/MX_seq29_0_VE125_flipped.json,http://54.235.29.9/FacialAge/BNav_EC2/DepthDuration/MX_fS_VE_MTurk/MX_fS_HTML.html#49,49,1920,1080,1920,1080,1-12-2024,13-26-20,14,VR_target_stimuli/s16_1.3x_1_223.png,125,1.3x,1.0,1.0,3769,123,meters,jsons/MX_seq29_0_VE125_flipped.json,299330,591160,28,Man
14,470447,final-intermixed-textured,v2,jsons/MX_seq29_0_VE125_flipped.json,http://54.235.29.9/FacialAge/BNav_EC2/DepthDuration/MX_fS_VE_MTurk/MX_fS_HTML.html#49,49,1920,1080,1920,1080,1-12-2024,13-26-20,15,VR_target_stimuli/s17_1x_1.8_291_BC.png,125,1x,1.8,1.2,4282,124,meters,jsons/MX_seq29_0_VE125_flipped.json,299330,591160,28,Man
15,470447,final-intermixed-textured,v2,jsons/MX_seq29_0_VE125_flipped.json,http://54.235.29.9/FacialAge/BNav_EC2/DepthDuration/MX_fS_VE_MTurk/MX_fS_HTML.html#49,49,1920,1080,1920,1080,1-12-2024,13-26-20,16,VR_target_stimuli/s5_0.75x_4_375.png,125,0.75x,4.0,4.0,6724,124,meters,jsons/MX_seq29_0_VE125_flipped.json,299330,591160,28,Man
16,470447,final-intermixed-textured,v2,jsons/MX_seq29_0_VE125_flipped.json,http://54.235.29.9/FacialAge/BNav_EC2/DepthDuration/MX_fS_VE_MTurk/MX_fS_HTML.html#49,49,1920,1080,1920,1080,1-12-2024,13-26-20,17,catch_stimuli/c1_BC.png,125,,,0.0,3218,124,meters,jsons/MX_seq29_0_VE125_flipped.json,299330,591160,28,Man
17,470447,final-intermixed-textured,v2,jsons/MX_seq29_0_VE125_flipped.json,http://54.235.29.9/FacialAge/BNav_EC2/DepthDuration/MX_fS_VE_MTurk/MX_fS_HTML.html#49,49,1920,1080,1920,1080,1-12-2024,13-26-20,18,VR_target_stimuli/s37_0.75x_3.3_567_BC.png,125,0.75x,3.3,3.0,4137,125,meters,jsons/MX_seq29_0_VE125_flipped.json,299330,591160,28,Man
18,470447,final-intermixed-textured,v2,jsons/MX_seq29_0_VE125_flipped.json,http://54.235.29.9/FacialAge/BNav_EC2/DepthDuration/MX_fS_VE_MTurk/MX_fS_HTML.html#49,49,1920,1080,1920,1080,1-12-2024,13-26-20,19,VR_target_stimuli/s46_1.3x_2.42_354_BC.png,125,1.3x,2.42,2.0,3228,125,meters,jsons/MX_seq29_0_VE125_flipped.json,299330,591160,28,Man
19,470447,final-intermixed-textured,v2,jsons/MX_seq29_0_VE125_flipped.json,http://54.235.29.9/FacialAge/BNav_EC2/DepthDuration/MX_fS_VE_MTurk/MX_fS_HTML.html#49,49,1920,1080,1920,1080,1-12-2024,13-26-20,20,VR_target_stimuli/s22_1x_4.29_354.png,125,1x,4.29,4.5,4796,126,meters,jsons/MX_seq29_0_VE125_flipped.json,299330,591160,28,Man
20,470447,final-intermixed-textured,v2,jsons/MX_seq29_0_VE125_flipped.json,http://54.235.29.9/FacialAge/BNav_EC2/DepthDuration/MX_fS_VE_MTurk/MX_fS_HTML.html#49,49,1920,1080,1920,1080,1-12-2024,13-26-20,21,VR_target_stimuli/s42_1.3x_3.2_305.png,125,1.3x,3.2,3.5,4521,122,meters,jsons/MX_seq29_0_VE125_flipped.json,299330,591160,28,Man
21,470447,final-intermixed-textured,v2,jsons/MX_seq29_0_VE125_flipped.json,http://54.235.29.9/FacialAge/BNav_EC2/DepthDuration/MX_fS_VE_MTurk/MX_fS_HTML.html#49,49,1920,1080,1920,1080,1-12-2024,13-26-20,22,VR_target_stimuli/s25_0.75x_1.4_281.png,125,0.75x,1.4,1.5,6948,123,meters,jsons/MX_seq29_0_VE125_flipped.json,299330,591160,28,Man
22,470447,final-intermixed-textured,v2,jsons/MX_seq29_0_VE125_flipped.json,http://54.235.29.9/FacialAge/BNav_EC2/DepthDuration/MX_fS_VE_MTurk/MX_fS_HTML.html#49,49,1920,1080,1920,1080,1-12-2024,13-26-20,23,VR_target_stimuli/s50_1x_4.53_518_BC.png,125,1x,4.53,3.0,3925,124,meters,jsons/MX_seq29_0_VE125_flipped.json,299330,591160,28,Man
23,470447,final-intermixed-textured,v2,jsons/MX_seq29_0_VE125_flipped.json,http://54.235.29.9/FacialAge/BNav_EC2/DepthDuration/MX_fS_VE_MTurk/MX_fS_HTML.html#49,49,1920,1080,1920,1080,1-12-2024,13-26-20,24,VR_target_stimuli/s53_0.75x_1.6_403_BC.png,125,0.75x,1.6,2.5,4522,125,meters,jsons/MX_seq29_0_VE125_flipped.json,299330,591160,28,Man
24,470447,final-intermixed-textured,v2,jsons/MX_seq29_0_VE125_flipped.json,http://54.235.29.9/FacialAge/BNav_EC2/DepthDuration/MX_fS_VE_MTurk/MX_fS_HTML.html#49,49,1920,1080,1920,1080,1-12-2024,13-26-20,25,VR_target_stimuli/s38_1.3x_3.55_358_BC.png,125,1.3x,3.55,4.0,7625,125,meters,jsons/MX_seq29_0_VE125_flipped.json,299330,591160,28,Man
25,470447,final-intermixed-textured,v2,jsons/MX_seq29_0_VE125_flipped.json,http://54.235.29.9/FacialAge/BNav_EC2/DepthDuration/MX_fS_VE_MTurk/MX_fS_HTML.html#49,49,1920,1080,1920,1080,1-12-2024,13-26-20,26,catch_stimuli/c2_BC.png,125,,,0.0,2733,124,meters,jsons/MX_seq29_0_VE125_flipped.json,299330,591160,28,Man
26,470447,final-intermixed-textured,v2,jsons/MX_seq29_0_VE125_flipped.json,http://54.235.29.9/FacialAge/BNav_EC2/DepthDuration/MX_fS_VE_MTurk/MX_fS_HTML.html#49,49,1920,1080,1920,1080,1-12-2024,13-26-20,27,VR_target_stimuli/s9_1x_1.2_263.png,125,1x,1.2,1.5,5010,125,meters,jsons/MX_seq29_0_VE125_flipped.json,299330,591160,28,Man
27,470447,final-intermixed-textured,v2,jsons/MX_seq29_0_VE125_flipped.json,http://54.235.29.9/FacialAge/BNav_EC2/DepthDuration/MX_fS_VE_MTurk/MX_fS_HTML.html#49,49,1920,1080,1920,1080,1-12-2024,13-26-20,28,VR_target_stimuli/s44_1x_4.4_317_BC.png,125,1x,4.4,2.0,3131,123,meters,jsons/MX_seq29_0_VE125_flipped.json,299330,591160,28,Man
28,470447,final-intermixed-textured,v2,jsons/MX_seq29_0_VE125_flipped.json,http://54.235.29.9/FacialAge/BNav_EC2/DepthDuration/MX_fS_VE_MTurk/MX_fS_HTML.html#49,49,1920,1080,1920,1080,1-12-2024,13-26-20,29,VR_target_stimuli/s3_0.75x_5_381_BC.png,125,0.75x,5.0,4.0,4366,125,meters,jsons/MX_seq29_0_VE125_flipped.json,299330,591160,28,Man
29,470447,final-intermixed-textured,v2,jsons/MX_seq29_0_VE125_flipped.json,http://54.235.29.9/FacialAge/BNav_EC2/DepthDuration/MX_fS_VE_MTurk/MX_fS_HTML.html#49,49,1920,1080,1920,1080,1-12-2024,13-26-20,30,VR_target_stimuli/s1_1.3x_1.7_261.png,125,1.3x,1.7,2.0,3295,125,meters,jsons/MX_seq29_0_VE125_flipped.json,299330,591160,28,Man
30,470447,final-intermixed-textured,v2,jsons/MX_seq29_0_VE125_flipped.json,http://54.235.29.9/FacialAge/BNav_EC2/DepthDuration/MX_fS_VE_MTurk/MX_fS_HTML.html#49,49,1920,1080,1920,1080,1-12-2024,13-26-20,31,VR_target_stimuli/s11_1x_5_361.png,125,1x,5.0,4.5,4849,124,meters,jsons/MX_seq29_0_VE125_flipped.json,299330,591160,28,Man
31,470447,final-intermixed-textured,v2,jsons/MX_seq29_0_VE125_flipped.json,http://54.235.29.9/FacialAge/BNav_EC2/DepthDuration/MX_fS_VE_MTurk/MX_fS_HTML.html#49,49,1920,1080,1920,1080,1-12-2024,13-26-20,32,VR_target_stimuli/s2_1.3x_2.7_397_BC.png,125,1.3x,2.7,2.0,3744,123,meters,jsons/MX_seq29_0_VE125_flipped.json,299330,591160,28,Man
32,470447,final-intermixed-textured,v2,jsons/MX_seq29_0_VE125_flipped.json,http://54.235.29.9/FacialAge/BNav_EC2/DepthDuration/MX_fS_VE_MTurk/MX_fS_HTML.html#49,49,1920,1080,1920,1080,1-12-2024,13-26-20,33,VR_target_stimuli/s6_0.75x_2.1_290.png,125,0.75x,2.1,2.5,4243,124,meters,jsons/MX_seq29_0_VE125_flipped.json,299330,591160,28,Man
33,470447,final-intermixed-textured,v2,jsons/MX_seq29_0_VE125_flipped.json,http://54.235.29.9/FacialAge/BNav_EC2/DepthDuration/MX_fS_VE_MTurk/MX_fS_HTML.html#49,49,1920,1080,1920,1080,1-12-2024,13-26-20,34,catch_stimuli/c3_BC.png,125,,,0.0,3630,124,meters,jsons/MX_seq29_0_VE125_flipped.json,299330,591160,28,Man
34,470447,final-intermixed-textured,v2,jsons/MX_seq29_0_VE125_flipped.json,http://54.235.29.9/FacialAge/BNav_EC2/DepthDuration/MX_fS_VE_MTurk/MX_fS_HTML.html#49,49,1920,1080,1920,1080,1-12-2024,13-26-20,35,VR_target_stimuli/s0_1.3x_2.6_356_BC.png,125,1.3x,2.6,2.5,5471,125,meters,jsons/MX_seq29_0_VE125_flipped.json,299330,591160,28,Man
35,470447,final-intermixed-textured,v2,jsons/MX_seq29_0_VE125_flipped.json,http://54.235.29.9/FacialAge/BNav_EC2/DepthDuration/MX_fS_VE_MTurk/MX_fS_HTML.html#49,49,1920,1080,1920,1080,1-12-2024,13-26-20,36,VR_target_stimuli/s34_1x_2.8_283.png,125,1x,2.8,3.5,4507,126,meters,jsons/MX_seq29_0_VE125_flipped.json,299330,591160,28,Man
36,470447,final-intermixed-textured,v2,jsons/MX_seq29_0_VE125_flipped.json,http://54.235.29.9/FacialAge/BNav_EC2/DepthDuration/MX_fS_VE_MTurk/MX_fS_HTML.html#49,49,1920,1080,1920,1080,1-12-2024,13-26-20,37,VR_target_stimuli/s13_0.75x_2.4_308_BC.png,125,0.75x,2.4,4.0,7302,125,meters,jsons/MX_seq29_0_VE125_flipped.json,299330,591160,28,Man
37,470447,final-intermixed-textured,v2,jsons/MX_seq29_0_VE125_flipped.json,http://54.235.29.9/FacialAge/BNav_EC2/DepthDuration/MX_fS_VE_MTurk/MX_fS_HTML.html#49,49,1920,1080,1920,1080,1-12-2024,13-26-20,38,VR_target_stimuli/s14_0.75x_3.83_355.png,125,0.75x,3.83,5.5,4106,133,meters,jsons/MX_seq29_0_VE125_flipped.json,299330,591160,28,Man
38,470447,final-intermixed-textured,v2,jsons/MX_seq29_0_VE125_flipped.json,http://54.235.29.9/FacialAge/BNav_EC2/DepthDuration/MX_fS_VE_MTurk/MX_fS_HTML.html#49,49,1920,1080,1920,1080,1-12-2024,13-26-20,39,VR_target_stimuli/s47_1.3x_3.45_373.png,125,1.3x,3.45,2.5,6005,126,meters,jsons/MX_seq29_0_VE125_flipped.json,299330,591160,28,Man
39,470447,final-intermixed-textured,v2,jsons/MX_seq29_0_VE125_flipped.json,http://54.235.29.9/FacialAge/BNav_EC2/DepthDuration/MX_fS_VE_MTurk/MX_fS_HTML.html#49,49,1920,1080,1920,1080,1-12-2024,13-26-20,40,VR_target_stimuli/s29_1x_1.3_250_BC.png,125,1x,1.3,1.5,4209,112,meters,jsons/MX_seq29_0_VE125_flipped.json,299330,591160,28,Man
40,470447,final-intermixed-textured,v2,jsons/MX_seq29_0_VE125_flipped.json,http://54.235.29.9/FacialAge/BNav_EC2/DepthDuration/MX_fS_VE_MTurk/MX_fS_HTML.html#49,49,1920,1080,1920,1080,1-12-2024,13-26-20,41,VR_target_stimuli/s28_1.3x_3.2_365_BC.png,125,1.3x,3.2,3.0,4535,125,meters,jsons/MX_seq29_0_VE125_flipped.json,299330,591160,28,Man
41,470447,final-intermixed-textured,v2,jsons/MX_seq29_0_VE125_flipped.json,http://54.235.29.9/FacialAge/BNav_EC2/DepthDuration/MX_fS_VE_MTurk/MX_fS_HTML.html#49,49,1920,1080,1920,1080,1-12-2024,13-26-20,42,VR_target_stimuli/s48_0.75x_2.55_243_BC.png,125,0.75x,2.55,5.0,4146,125,meters,jsons/MX_seq29_0_VE125_flipped.json,299330,591160,28,Man
42,470447,final-intermixed-textured,v2,jsons/MX_seq29_0_VE125_flipped.json,http://54.235.29.9/FacialAge/BNav_EC2/DepthDuration/MX_fS_VE_MTurk/MX_fS_HTML.html#49,49,1920,1080,1920,1080,1-12-2024,13-26-20,43,VR_target_stimuli/s19_1x_1.21_263_BC.png,125,1x,1.21,1.5,4357,126,meters,jsons/MX_seq29_0_VE125_flipped.json,299330,591160,28,Man
43,470447,final-intermixed-textured,v2,jsons/MX_seq29_0_VE125_flipped.json,http://54.235.29.9/FacialAge/BNav_EC2/DepthDuration/MX_fS_VE_MTurk/MX_fS_HTML.html#49,49,1920,1080,1920,1080,1-12-2024,13-26-20,44,VR_target_stimuli/s21_0.75x_4.22_374.png,125,0.75x,4.22,6.5,7059,125,meters,jsons/MX_seq29_0_VE125_flipped.json,299330,591160,28,Man
44,470447,final-intermixed-textured,v2,jsons/MX_seq29_0_VE125_flipped.json,http://54.235.29.9/FacialAge/BNav_EC2/DepthDuration/MX_fS_VE_MTurk/MX_fS_HTML.html#49,49,1920,1080,1920,1080,1-12-2024,13-26-20,45,catch_stimuli/c4_BC.png,125,,,0.0,2773,123,meters,jsons/MX_seq29_0_VE125_flipped.json,299330,591160,28,Man
45,470447,final-intermixed-textured,v2,jsons/MX_seq29_0_VE125_flipped.json,http://54.235.29.9/FacialAge/BNav_EC2/DepthDuration/MX_fS_VE_MTurk/MX_fS_HTML.html#49,49,1920,1080,1920,1080,1-12-2024,13-26-20,46,VR_target_stimuli/s8_1.3x_3.1_345.png,125,1.3x,3.1,3.0,3695,126,meters,jsons/MX_seq29_0_VE125_flipped.json,299330,591160,28,Man
46,470447,final-intermixed-textured,v2,jsons/MX_seq29_0_VE125_flipped.json,http://54.235.29.9/FacialAge/BNav_EC2/DepthDuration/MX_fS_VE_MTurk/MX_fS_HTML.html#49,49,1920,1080,1920,1080,1-12-2024,13-26-20,47,VR_target_stimuli/s27_1x_1.76_248.png,125,1x,1.76,2.0,2942,126,meters,jsons/MX_seq29_0_VE125_flipped.json,299330,591160,28,Man
47,470447,final-intermixed-textured,v2,jsons/MX_seq29_0_VE125_flipped.json,http://54.235.29.9/FacialAge/BNav_EC2/DepthDuration/MX_fS_VE_MTurk/MX_fS_HTML.html#49,49,1920,1080,1920,1080,1-12-2024,13-26-20,48,VR_target_stimuli/s15_1x_4.2_390.png,125,1x,4.2,4.5,4090,127,meters,jsons/MX_seq29_0_VE125_flipped.json,299330,591160,28,Man
48,470447,final-intermixed-textured,v2,jsons/MX_seq29_0_VE125_flipped.json,http://54.235.29.9/FacialAge/BNav_EC2/DepthDuration/MX_fS_VE_MTurk/MX_fS_HTML.html#49,49,1920,1080,1920,1080,1-12-2024,13-26-20,49,VR_target_stimuli/s4_0.75x_1.4_301.png,125,0.75x,1.4,1.5,4817,124,meters,jsons/MX_seq29_0_VE125_flipped.json,299330,591160,28,Man
49,470447,final-intermixed-textured,v2,jsons/MX_seq29_0_VE125_flipped.json,http://54.235.29.9/FacialAge/BNav_EC2/DepthDuration/MX_fS_VE_MTurk/MX_fS_HTML.html#49,49,1920,1080,1920,1080,1-12-2024,13-26-20,50,VR_target_stimuli/s35_1.3x_2_338.png,125,1.3x,2.0,2.0,3776,123,meters,jsons/MX_seq29_0_VE125_flipped.json,299330,591160,28,Man
50,470447,final-intermixed-textured,v2,jsons/MX_seq29_0_VE125_flipped.json,http://54.235.29.9/FacialAge/BNav_EC2/DepthDuration/MX_fS_VE_MTurk/MX_fS_HTML.html#49,49,1920,1080,1920,1080,1-12-2024,13-26-20,51,VR_target_stimuli/s49_0.75x_4.67_328_BC.png,125,0.75x,4.67,5.0,5049,126,meters,jsons/MX_seq29_0_VE125_flipped.json,299330,591160,28,Man
51,470447,final-intermixed-textured,v2,jsons/MX_seq29_0_VE125_flipped.json,http://54.235.29.9/FacialAge/BNav_EC2/DepthDuration/MX_fS_VE_MTurk/MX_fS_HTML.html#49,49,1920,1080,1920,1080,1-12-2024,13-26-20,52,VR_target_stimuli/s7_1x_1.5_255_BC.png,125,1x,1.5,1.5,5026,125,meters,jsons/MX_seq29_0_VE125_flipped.json,299330,591160,28,Man
52,470447,final-intermixed-textured,v2,jsons/MX_seq29_0_VE125_flipped.json,http://54.235.29.9/FacialAge/BNav_EC2/DepthDuration/MX_fS_VE_MTurk/MX_fS_HTML.html#49,49,1920,1080,1920,1080,1-12-2024,13-26-20,53,catch_stimuli/c5_BC.png,125,,,0.0,2987,125,meters,jsons/MX_seq29_0_VE125_flipped.json,299330,591160,28,Man
53,470447,final-intermixed-textured,v2,jsons/MX_seq29_0_VE125_flipped.json,http://54.235.29.9/FacialAge/BNav_EC2/DepthDuration/MX_fS_VE_MTurk/MX_fS_HTML.html#49,49,1920,1080,1920,1080,1-12-2024,13-26-20,54,VR_target_stimuli/s20_1.3x_4.99_412_BC.png,125,1.3x,4.99,5.0,4705,124,meters,jsons/MX_seq29_0_VE125_flipped.json,299330,591160,28,Man
54,470447,final-intermixed-textured,v2,jsons/MX_seq29_0_VE125_flipped.json,http://54.235.29.9/FacialAge/BNav_EC2/DepthDuration/MX_fS_VE_MTurk/MX_fS_HTML.html#49,49,1920,1080,1920,1080,1-12-2024,13-26-20,55,VR_target_stimuli/s31_1x_4.96_333_BC.png,125,1x,4.96,4.0,3317,124,meters,jsons/MX_seq29_0_VE125_flipped.json,299330,591160,28,Man
55,470447,final-intermixed-textured,v2,jsons/MX_seq29_0_VE125_flipped.json,http://54.235.29.9/FacialAge/BNav_EC2/DepthDuration/MX_fS_VE_MTurk/MX_fS_HTML.html#49,49,1920,1080,1920,1080,1-12-2024,13-26-20,56,VR_target_stimuli/s33_0.75x_3.1_361.png,125,0.75x,3.1,3.5,4307,137,meters,jsons/MX_seq29_0_VE125_flipped.json,299330,591160,28,Man
56,470447,final-intermixed-textured,v2,jsons/MX_seq29_0_VE125_flipped.json,http://54.235.29.9/FacialAge/BNav_EC2/DepthDuration/MX_fS_VE_MTurk/MX_fS_HTML.html#49,49,1920,1080,1920,1080,1-12-2024,13-26-20,57,VR_target_stimuli/s52_1.3x_3.2_280.png,125,1.3x,3.2,4.0,6333,123,meters,jsons/MX_seq29_0_VE125_flipped.json,299330,591160,28,Man
57,470447,final-intermixed-textured,v2,jsons/MX_seq29_0_VE125_flipped.json,http://54.235.29.9/FacialAge/BNav_EC2/DepthDuration/MX_fS_VE_MTurk/MX_fS_HTML.html#49,49,1920,1080,1920,1080,1-12-2024,13-26-20,58,VR_target_stimuli/s32_1.3x_1.5_224_BC.png,125,1.3x,1.5,2.5,6184,125,meters,jsons/MX_seq29_0_VE125_flipped.json,299330,591160,28,Man
58,470447,final-intermixed-textured,v2,jsons/MX_seq29_0_VE125_flipped.json,http://54.235.29.9/FacialAge/BNav_EC2/DepthDuration/MX_fS_VE_MTurk/MX_fS_HTML.html#49,49,1920,1080,1920,1080,1-12-2024,13-26-20,59,VR_target_stimuli/s18_1x_2.25_353.png,125,1x,2.25,2.0,4107,123,meters,jsons/MX_seq29_0_VE125_flipped.json,299330,591160,28,Man
59,470447,final-intermixed-textured,v2,jsons/MX_seq29_0_VE125_flipped.json,http://54.235.29.9/FacialAge/BNav_EC2/DepthDuration/MX_fS_VE_MTurk/MX_fS_HTML.html#49,49,1920,1080,1920,1080,1-12-2024,13-26-20,60,VR_target_stimuli/s39_0.75x_1_205_BC.png,125,0.75x,1.0,1.0,3282,123,meters,jsons/MX_seq29_0_VE125_flipped.json,299330,591160,28,Man
