,subjID,experimentName,versionName,sequenceName,url,selected_row,windowWidth,windowHeight,screenWidth,screenHeight,startDate,startTime,trial,stimulus,duration,scale,actual_depth,depth_estimate,trial_RT,log_sceneDuration,unitSelection,seq_filepath,experimentTime,totalTime,age,gender
0,471396,final-intermixed-textured,v2,jsons/MX_seq35_2_VE125_flipped.json,http://54.235.29.9/FacialAge/BNav_EC2/DepthDuration/MX_fS_VE_MTurk/MX_fS_HTML.html#174,174,1920,1080,1920,1080,1-12-2024,15-46-50,1,VR_target_stimuli/s41_1x_2.1_286.png,125,1x,2.1,6,5780,124,meters,jsons/MX_seq35_2_VE125_flipped.json,280023,530490,22,Man
1,471396,final-intermixed-textured,v2,jsons/MX_seq35_2_VE125_flipped.json,http://54.235.29.9/FacialAge/BNav_EC2/DepthDuration/MX_fS_VE_MTurk/MX_fS_HTML.html#174,174,1920,1080,1920,1080,1-12-2024,15-46-50,2,VR_target_stimuli/s45_1.3x_3.5_377_BC.png,125,1.3x,3.5,9,15635,128,meters,jsons/MX_seq35_2_VE125_flipped.json,280023,530490,22,Man
2,471396,final-intermixed-textured,v2,jsons/MX_seq35_2_VE125_flipped.json,http://54.235.29.9/FacialAge/BNav_EC2/DepthDuration/MX_fS_VE_MTurk/MX_fS_HTML.html#174,174,1920,1080,1920,1080,1-12-2024,15-46-50,3,VR_target_stimuli/s23_0.75x_3.65_351.png,125,0.75x,3.65,5,9028,118,meters,jsons/MX_seq35_2_VE125_flipped.json,280023,530490,22,Man
3,471396,final-intermixed-textured,v2,jsons/MX_seq35_2_VE125_flipped.json,http://54.235.29.9/FacialAge/BNav_EC2/DepthDuration/MX_fS_VE_MTurk/MX_fS_HTML.html#174,174,1920,1080,1920,1080,1-12-2024,15-46-50,4,VR_target_stimuli/s26_1.3x_4_441.png,125,1.3x,4.0,6,5008,124,meters,jsons/MX_seq35_2_VE125_flipped.json,280023,530490,22,Man
4,471396,final-intermixed-textured,v2,jsons/MX_seq35_2_VE125_flipped.json,http://54.235.29.9/FacialAge/BNav_EC2/DepthDuration/MX_fS_VE_MTurk/MX_fS_HTML.html#174,174,1920,1080,1920,1080,1-12-2024,15-46-50,5,VR_target_stimuli/s12_1x_3.1_372_BC.png,125,1x,3.1,10,7183,130,meters,jsons/MX_seq35_2_VE125_flipped.json,280023,530490,22,Man
5,471396,final-intermixed-textured,v2,jsons/MX_seq35_2_VE125_flipped.json,http://54.235.29.9/FacialAge/BNav_EC2/DepthDuration/MX_fS_VE_MTurk/MX_fS_HTML.html#174,174,1920,1080,1920,1080,1-12-2024,15-46-50,6,VR_target_stimuli/s30_0.75x_2.3_332_BC.png,125,0.75x,2.3,4,4830,123,meters,jsons/MX_seq35_2_VE125_flipped.json,280023,530490,22,Man
6,471396,final-intermixed-textured,v2,jsons/MX_seq35_2_VE125_flipped.json,http://54.235.29.9/FacialAge/BNav_EC2/DepthDuration/MX_fS_VE_MTurk/MX_fS_HTML.html#174,174,1920,1080,1920,1080,1-12-2024,15-46-50,7,catch_stimuli/c0_BC.png,125,,,0,3769,99,meters,jsons/MX_seq35_2_VE125_flipped.json,280023,530490,22,Man
7,471396,final-intermixed-textured,v2,jsons/MX_seq35_2_VE125_flipped.json,http://54.235.29.9/FacialAge/BNav_EC2/DepthDuration/MX_fS_VE_MTurk/MX_fS_HTML.html#174,174,1920,1080,1920,1080,1-12-2024,15-46-50,8,VR_target_stimuli/s16_0.75x_1_217.png,125,0.75x,1.0,3,4313,127,meters,jsons/MX_seq35_2_VE125_flipped.json,280023,530490,22,Man
8,471396,final-intermixed-textured,v2,jsons/MX_seq35_2_VE125_flipped.json,http://54.235.29.9/FacialAge/BNav_EC2/DepthDuration/MX_fS_VE_MTurk/MX_fS_HTML.html#174,174,1920,1080,1920,1080,1-12-2024,15-46-50,9,VR_target_stimuli/s17_1.3x_1.8_300_BC.png,125,1.3x,1.8,5,4777,121,meters,jsons/MX_seq35_2_VE125_flipped.json,280023,530490,22,Man
9,471396,final-intermixed-textured,v2,jsons/MX_seq35_2_VE125_flipped.json,http://54.235.29.9/FacialAge/BNav_EC2/DepthDuration/MX_fS_VE_MTurk/MX_fS_HTML.html#174,174,1920,1080,1920,1080,1-12-2024,15-46-50,10,VR_target_stimuli/s5_1x_4_378_BC.png,125,1x,4.0,6,4091,133,meters,jsons/MX_seq35_2_VE125_flipped.json,280023,530490,22,Man
10,471396,final-intermixed-textured,v2,jsons/MX_seq35_2_VE125_flipped.json,http://54.235.29.9/FacialAge/BNav_EC2/DepthDuration/MX_fS_VE_MTurk/MX_fS_HTML.html#174,174,1920,1080,1920,1080,1-12-2024,15-46-50,11,VR_target_stimuli/s37_1.3x_3.3_555.png,125,1.3x,3.3,2,3898,130,meters,jsons/MX_seq35_2_VE125_flipped.json,280023,530490,22,Man
11,471396,final-intermixed-textured,v2,jsons/MX_seq35_2_VE125_flipped.json,http://54.235.29.9/FacialAge/BNav_EC2/DepthDuration/MX_fS_VE_MTurk/MX_fS_HTML.html#174,174,1920,1080,1920,1080,1-12-2024,15-46-50,12,VR_target_stimuli/s46_0.75x_2.42_343_BC.png,125,0.75x,2.42,4,3656,122,meters,jsons/MX_seq35_2_VE125_flipped.json,280023,530490,22,Man
12,471396,final-intermixed-textured,v2,jsons/MX_seq35_2_VE125_flipped.json,http://54.235.29.9/FacialAge/BNav_EC2/DepthDuration/MX_fS_VE_MTurk/MX_fS_HTML.html#174,174,1920,1080,1920,1080,1-12-2024,15-46-50,13,VR_target_stimuli/s22_1x_4.29_354.png,125,1x,4.29,12,4038,123,meters,jsons/MX_seq35_2_VE125_flipped.json,280023,530490,22,Man
13,471396,final-intermixed-textured,v2,jsons/MX_seq35_2_VE125_flipped.json,http://54.235.29.9/FacialAge/BNav_EC2/DepthDuration/MX_fS_VE_MTurk/MX_fS_HTML.html#174,174,1920,1080,1920,1080,1-12-2024,15-46-50,14,VR_target_stimuli/s42_0.75x_3.2_301_BC.png,125,0.75x,3.2,6,3987,120,meters,jsons/MX_seq35_2_VE125_flipped.json,280023,530490,22,Man
14,471396,final-intermixed-textured,v2,jsons/MX_seq35_2_VE125_flipped.json,http://54.235.29.9/FacialAge/BNav_EC2/DepthDuration/MX_fS_VE_MTurk/MX_fS_HTML.html#174,174,1920,1080,1920,1080,1-12-2024,15-46-50,15,VR_target_stimuli/s25_1.3x_1.4_299.png,125,1.3x,1.4,4,4648,122,meters,jsons/MX_seq35_2_VE125_flipped.json,280023,530490,22,Man
15,471396,final-intermixed-textured,v2,jsons/MX_seq35_2_VE125_flipped.json,http://54.235.29.9/FacialAge/BNav_EC2/DepthDuration/MX_fS_VE_MTurk/MX_fS_HTML.html#174,174,1920,1080,1920,1080,1-12-2024,15-46-50,16,VR_target_stimuli/s50_1x_4.53_518_BC.png,125,1x,4.53,5,4204,125,meters,jsons/MX_seq35_2_VE125_flipped.json,280023,530490,22,Man
16,471396,final-intermixed-textured,v2,jsons/MX_seq35_2_VE125_flipped.json,http://54.235.29.9/FacialAge/BNav_EC2/DepthDuration/MX_fS_VE_MTurk/MX_fS_HTML.html#174,174,1920,1080,1920,1080,1-12-2024,15-46-50,17,catch_stimuli/c1_BC.png,125,,,0,7172,120,meters,jsons/MX_seq35_2_VE125_flipped.json,280023,530490,22,Man
17,471396,final-intermixed-textured,v2,jsons/MX_seq35_2_VE125_flipped.json,http://54.235.29.9/FacialAge/BNav_EC2/DepthDuration/MX_fS_VE_MTurk/MX_fS_HTML.html#174,174,1920,1080,1920,1080,1-12-2024,15-46-50,18,VR_target_stimuli/s53_1x_1.6_387.png,125,1x,1.6,2,3280,125,meters,jsons/MX_seq35_2_VE125_flipped.json,280023,530490,22,Man
18,471396,final-intermixed-textured,v2,jsons/MX_seq35_2_VE125_flipped.json,http://54.235.29.9/FacialAge/BNav_EC2/DepthDuration/MX_fS_VE_MTurk/MX_fS_HTML.html#174,174,1920,1080,1920,1080,1-12-2024,15-46-50,19,VR_target_stimuli/s38_0.75x_3.55_346.png,125,0.75x,3.55,4,4389,112,meters,jsons/MX_seq35_2_VE125_flipped.json,280023,530490,22,Man
19,471396,final-intermixed-textured,v2,jsons/MX_seq35_2_VE125_flipped.json,http://54.235.29.9/FacialAge/BNav_EC2/DepthDuration/MX_fS_VE_MTurk/MX_fS_HTML.html#174,174,1920,1080,1920,1080,1-12-2024,15-46-50,20,VR_target_stimuli/s9_1.3x_1.2_276_BC.png,125,1.3x,1.2,2,4196,110,meters,jsons/MX_seq35_2_VE125_flipped.json,280023,530490,22,Man
20,471396,final-intermixed-textured,v2,jsons/MX_seq35_2_VE125_flipped.json,http://54.235.29.9/FacialAge/BNav_EC2/DepthDuration/MX_fS_VE_MTurk/MX_fS_HTML.html#174,174,1920,1080,1920,1080,1-12-2024,15-46-50,21,VR_target_stimuli/s44_0.75x_4.4_314.png,125,0.75x,4.4,5,5861,124,meters,jsons/MX_seq35_2_VE125_flipped.json,280023,530490,22,Man
21,471396,final-intermixed-textured,v2,jsons/MX_seq35_2_VE125_flipped.json,http://54.235.29.9/FacialAge/BNav_EC2/DepthDuration/MX_fS_VE_MTurk/MX_fS_HTML.html#174,174,1920,1080,1920,1080,1-12-2024,15-46-50,22,VR_target_stimuli/s3_1x_5_385_BC.png,125,1x,5.0,6,2532,114,meters,jsons/MX_seq35_2_VE125_flipped.json,280023,530490,22,Man
22,471396,final-intermixed-textured,v2,jsons/MX_seq35_2_VE125_flipped.json,http://54.235.29.9/FacialAge/BNav_EC2/DepthDuration/MX_fS_VE_MTurk/MX_fS_HTML.html#174,174,1920,1080,1920,1080,1-12-2024,15-46-50,23,VR_target_stimuli/s1_1.3x_1.7_261_BC.png,125,1.3x,1.7,4,4316,114,meters,jsons/MX_seq35_2_VE125_flipped.json,280023,530490,22,Man
23,471396,final-intermixed-textured,v2,jsons/MX_seq35_2_VE125_flipped.json,http://54.235.29.9/FacialAge/BNav_EC2/DepthDuration/MX_fS_VE_MTurk/MX_fS_HTML.html#174,174,1920,1080,1920,1080,1-12-2024,15-46-50,24,VR_target_stimuli/s11_1x_5_361.png,125,1x,5.0,7,4766,116,meters,jsons/MX_seq35_2_VE125_flipped.json,280023,530490,22,Man
24,471396,final-intermixed-textured,v2,jsons/MX_seq35_2_VE125_flipped.json,http://54.235.29.9/FacialAge/BNav_EC2/DepthDuration/MX_fS_VE_MTurk/MX_fS_HTML.html#174,174,1920,1080,1920,1080,1-12-2024,15-46-50,25,VR_target_stimuli/s2_0.75x_2.7_384_BC.png,125,0.75x,2.7,5,4853,119,meters,jsons/MX_seq35_2_VE125_flipped.json,280023,530490,22,Man
25,471396,final-intermixed-textured,v2,jsons/MX_seq35_2_VE125_flipped.json,http://54.235.29.9/FacialAge/BNav_EC2/DepthDuration/MX_fS_VE_MTurk/MX_fS_HTML.html#174,174,1920,1080,1920,1080,1-12-2024,15-46-50,26,catch_stimuli/c2_BC.png,125,,,0,2670,127,meters,jsons/MX_seq35_2_VE125_flipped.json,280023,530490,22,Man
26,471396,final-intermixed-textured,v2,jsons/MX_seq35_2_VE125_flipped.json,http://54.235.29.9/FacialAge/BNav_EC2/DepthDuration/MX_fS_VE_MTurk/MX_fS_HTML.html#174,174,1920,1080,1920,1080,1-12-2024,15-46-50,27,VR_target_stimuli/s6_1.3x_2.1_298.png,125,1.3x,2.1,3,3479,127,meters,jsons/MX_seq35_2_VE125_flipped.json,280023,530490,22,Man
27,471396,final-intermixed-textured,v2,jsons/MX_seq35_2_VE125_flipped.json,http://54.235.29.9/FacialAge/BNav_EC2/DepthDuration/MX_fS_VE_MTurk/MX_fS_HTML.html#174,174,1920,1080,1920,1080,1-12-2024,15-46-50,28,VR_target_stimuli/s0_1.3x_2.6_356_BC.png,125,1.3x,2.6,4,2525,130,meters,jsons/MX_seq35_2_VE125_flipped.json,280023,530490,22,Man
28,471396,final-intermixed-textured,v2,jsons/MX_seq35_2_VE125_flipped.json,http://54.235.29.9/FacialAge/BNav_EC2/DepthDuration/MX_fS_VE_MTurk/MX_fS_HTML.html#174,174,1920,1080,1920,1080,1-12-2024,15-46-50,29,VR_target_stimuli/s34_1x_2.8_283_BC.png,125,1x,2.8,4,2237,126,meters,jsons/MX_seq35_2_VE125_flipped.json,280023,530490,22,Man
29,471396,final-intermixed-textured,v2,jsons/MX_seq35_2_VE125_flipped.json,http://54.235.29.9/FacialAge/BNav_EC2/DepthDuration/MX_fS_VE_MTurk/MX_fS_HTML.html#174,174,1920,1080,1920,1080,1-12-2024,15-46-50,30,VR_target_stimuli/s13_0.75x_2.4_308_BC.png,125,0.75x,2.4,4,2312,126,meters,jsons/MX_seq35_2_VE125_flipped.json,280023,530490,22,Man
30,471396,final-intermixed-textured,v2,jsons/MX_seq35_2_VE125_flipped.json,http://54.235.29.9/FacialAge/BNav_EC2/DepthDuration/MX_fS_VE_MTurk/MX_fS_HTML.html#174,174,1920,1080,1920,1080,1-12-2024,15-46-50,31,VR_target_stimuli/s14_1.3x_3.83_359.png,125,1.3x,3.83,5,1902,116,meters,jsons/MX_seq35_2_VE125_flipped.json,280023,530490,22,Man
31,471396,final-intermixed-textured,v2,jsons/MX_seq35_2_VE125_flipped.json,http://54.235.29.9/FacialAge/BNav_EC2/DepthDuration/MX_fS_VE_MTurk/MX_fS_HTML.html#174,174,1920,1080,1920,1080,1-12-2024,15-46-50,32,VR_target_stimuli/s47_0.75x_3.45_366.png,125,0.75x,3.45,4,3581,115,meters,jsons/MX_seq35_2_VE125_flipped.json,280023,530490,22,Man
32,471396,final-intermixed-textured,v2,jsons/MX_seq35_2_VE125_flipped.json,http://54.235.29.9/FacialAge/BNav_EC2/DepthDuration/MX_fS_VE_MTurk/MX_fS_HTML.html#174,174,1920,1080,1920,1080,1-12-2024,15-46-50,33,VR_target_stimuli/s29_1x_1.3_250.png,125,1x,1.3,3,2345,129,meters,jsons/MX_seq35_2_VE125_flipped.json,280023,530490,22,Man
33,471396,final-intermixed-textured,v2,jsons/MX_seq35_2_VE125_flipped.json,http://54.235.29.9/FacialAge/BNav_EC2/DepthDuration/MX_fS_VE_MTurk/MX_fS_HTML.html#174,174,1920,1080,1920,1080,1-12-2024,15-46-50,34,catch_stimuli/c3_BC.png,125,,,0,4685,125,meters,jsons/MX_seq35_2_VE125_flipped.json,280023,530490,22,Man
34,471396,final-intermixed-textured,v2,jsons/MX_seq35_2_VE125_flipped.json,http://54.235.29.9/FacialAge/BNav_EC2/DepthDuration/MX_fS_VE_MTurk/MX_fS_HTML.html#174,174,1920,1080,1920,1080,1-12-2024,15-46-50,35,VR_target_stimuli/s28_0.75x_3.2_357.png,125,0.75x,3.2,5,6232,130,meters,jsons/MX_seq35_2_VE125_flipped.json,280023,530490,22,Man
35,471396,final-intermixed-textured,v2,jsons/MX_seq35_2_VE125_flipped.json,http://54.235.29.9/FacialAge/BNav_EC2/DepthDuration/MX_fS_VE_MTurk/MX_fS_HTML.html#174,174,1920,1080,1920,1080,1-12-2024,15-46-50,36,VR_target_stimuli/s48_1.3x_2.55_255_BC.png,125,1.3x,2.55,3,3610,115,meters,jsons/MX_seq35_2_VE125_flipped.json,280023,530490,22,Man
36,471396,final-intermixed-textured,v2,jsons/MX_seq35_2_VE125_flipped.json,http://54.235.29.9/FacialAge/BNav_EC2/DepthDuration/MX_fS_VE_MTurk/MX_fS_HTML.html#174,174,1920,1080,1920,1080,1-12-2024,15-46-50,37,VR_target_stimuli/s19_1x_1.21_263_BC.png,125,1x,1.21,2,5654,130,meters,jsons/MX_seq35_2_VE125_flipped.json,280023,530490,22,Man
37,471396,final-intermixed-textured,v2,jsons/MX_seq35_2_VE125_flipped.json,http://54.235.29.9/FacialAge/BNav_EC2/DepthDuration/MX_fS_VE_MTurk/MX_fS_HTML.html#174,174,1920,1080,1920,1080,1-12-2024,15-46-50,38,VR_target_stimuli/s21_1x_4.22_379.png,125,1x,4.22,8,7310,119,meters,jsons/MX_seq35_2_VE125_flipped.json,280023,530490,22,Man
38,471396,final-intermixed-textured,v2,jsons/MX_seq35_2_VE125_flipped.json,http://54.235.29.9/FacialAge/BNav_EC2/DepthDuration/MX_fS_VE_MTurk/MX_fS_HTML.html#174,174,1920,1080,1920,1080,1-12-2024,15-46-50,39,VR_target_stimuli/s8_0.75x_3.1_325_BC.png,125,0.75x,3.1,5,2949,112,meters,jsons/MX_seq35_2_VE125_flipped.json,280023,530490,22,Man
39,471396,final-intermixed-textured,v2,jsons/MX_seq35_2_VE125_flipped.json,http://54.235.29.9/FacialAge/BNav_EC2/DepthDuration/MX_fS_VE_MTurk/MX_fS_HTML.html#174,174,1920,1080,1920,1080,1-12-2024,15-46-50,40,VR_target_stimuli/s27_1.3x_1.76_250.png,125,1.3x,1.76,3,2797,115,meters,jsons/MX_seq35_2_VE125_flipped.json,280023,530490,22,Man
40,471396,final-intermixed-textured,v2,jsons/MX_seq35_2_VE125_flipped.json,http://54.235.29.9/FacialAge/BNav_EC2/DepthDuration/MX_fS_VE_MTurk/MX_fS_HTML.html#174,174,1920,1080,1920,1080,1-12-2024,15-46-50,41,VR_target_stimuli/s15_0.75x_4.2_388.png,125,0.75x,4.2,5,2585,130,meters,jsons/MX_seq35_2_VE125_flipped.json,280023,530490,22,Man
41,471396,final-intermixed-textured,v2,jsons/MX_seq35_2_VE125_flipped.json,http://54.235.29.9/FacialAge/BNav_EC2/DepthDuration/MX_fS_VE_MTurk/MX_fS_HTML.html#174,174,1920,1080,1920,1080,1-12-2024,15-46-50,42,VR_target_stimuli/s4_1x_1.4_313_BC.png,125,1x,1.4,3,5473,118,meters,jsons/MX_seq35_2_VE125_flipped.json,280023,530490,22,Man
42,471396,final-intermixed-textured,v2,jsons/MX_seq35_2_VE125_flipped.json,http://54.235.29.9/FacialAge/BNav_EC2/DepthDuration/MX_fS_VE_MTurk/MX_fS_HTML.html#174,174,1920,1080,1920,1080,1-12-2024,15-46-50,43,VR_target_stimuli/s35_1.3x_2_338.png,125,1.3x,2.0,3,2284,139,meters,jsons/MX_seq35_2_VE125_flipped.json,280023,530490,22,Man
43,471396,final-intermixed-textured,v2,jsons/MX_seq35_2_VE125_flipped.json,http://54.235.29.9/FacialAge/BNav_EC2/DepthDuration/MX_fS_VE_MTurk/MX_fS_HTML.html#174,174,1920,1080,1920,1080,1-12-2024,15-46-50,44,VR_target_stimuli/s49_1x_4.67_341.png,125,1x,4.67,6,3029,127,meters,jsons/MX_seq35_2_VE125_flipped.json,280023,530490,22,Man
44,471396,final-intermixed-textured,v2,jsons/MX_seq35_2_VE125_flipped.json,http://54.235.29.9/FacialAge/BNav_EC2/DepthDuration/MX_fS_VE_MTurk/MX_fS_HTML.html#174,174,1920,1080,1920,1080,1-12-2024,15-46-50,45,catch_stimuli/c4_BC.png,125,,,0,2824,119,meters,jsons/MX_seq35_2_VE125_flipped.json,280023,530490,22,Man
45,471396,final-intermixed-textured,v2,jsons/MX_seq35_2_VE125_flipped.json,http://54.235.29.9/FacialAge/BNav_EC2/DepthDuration/MX_fS_VE_MTurk/MX_fS_HTML.html#174,174,1920,1080,1920,1080,1-12-2024,15-46-50,46,VR_target_stimuli/s7_0.75x_1.5_253_BC.png,125,0.75x,1.5,5,6398,124,meters,jsons/MX_seq35_2_VE125_flipped.json,280023,530490,22,Man
46,471396,final-intermixed-textured,v2,jsons/MX_seq35_2_VE125_flipped.json,http://54.235.29.9/FacialAge/BNav_EC2/DepthDuration/MX_fS_VE_MTurk/MX_fS_HTML.html#174,174,1920,1080,1920,1080,1-12-2024,15-46-50,47,VR_target_stimuli/s20_1.3x_4.99_412_BC.png,125,1.3x,4.99,6,2465,131,meters,jsons/MX_seq35_2_VE125_flipped.json,280023,530490,22,Man
47,471396,final-intermixed-textured,v2,jsons/MX_seq35_2_VE125_flipped.json,http://54.235.29.9/FacialAge/BNav_EC2/DepthDuration/MX_fS_VE_MTurk/MX_fS_HTML.html#174,174,1920,1080,1920,1080,1-12-2024,15-46-50,48,VR_target_stimuli/s31_1.3x_4.96_342_BC.png,125,1.3x,4.96,2,3139,132,meters,jsons/MX_seq35_2_VE125_flipped.json,280023,530490,22,Man
48,471396,final-intermixed-textured,v2,jsons/MX_seq35_2_VE125_flipped.json,http://54.235.29.9/FacialAge/BNav_EC2/DepthDuration/MX_fS_VE_MTurk/MX_fS_HTML.html#174,174,1920,1080,1920,1080,1-12-2024,15-46-50,49,VR_target_stimuli/s33_1x_3.1_366.png,125,1x,3.1,5,2462,113,meters,jsons/MX_seq35_2_VE125_flipped.json,280023,530490,22,Man
49,471396,final-intermixed-textured,v2,jsons/MX_seq35_2_VE125_flipped.json,http://54.235.29.9/FacialAge/BNav_EC2/DepthDuration/MX_fS_VE_MTurk/MX_fS_HTML.html#174,174,1920,1080,1920,1080,1-12-2024,15-46-50,50,VR_target_stimuli/s52_0.75x_3.2_270_BC.png,125,0.75x,3.2,6,2900,119,meters,jsons/MX_seq35_2_VE125_flipped.json,280023,530490,22,Man
50,471396,final-intermixed-textured,v2,jsons/MX_seq35_2_VE125_flipped.json,http://54.235.29.9/FacialAge/BNav_EC2/DepthDuration/MX_fS_VE_MTurk/MX_fS_HTML.html#174,174,1920,1080,1920,1080,1-12-2024,15-46-50,51,VR_target_stimuli/s32_1x_1.5_218_BC.png,125,1x,1.5,2,2451,118,meters,jsons/MX_seq35_2_VE125_flipped.json,280023,530490,22,Man
51,471396,final-intermixed-textured,v2,jsons/MX_seq35_2_VE125_flipped.json,http://54.235.29.9/FacialAge/BNav_EC2/DepthDuration/MX_fS_VE_MTurk/MX_fS_HTML.html#174,174,1920,1080,1920,1080,1-12-2024,15-46-50,52,VR_target_stimuli/s18_1.3x_2.25_368.png,125,1.3x,2.25,2,1988,117,meters,jsons/MX_seq35_2_VE125_flipped.json,280023,530490,22,Man
52,471396,final-intermixed-textured,v2,jsons/MX_seq35_2_VE125_flipped.json,http://54.235.29.9/FacialAge/BNav_EC2/DepthDuration/MX_fS_VE_MTurk/MX_fS_HTML.html#174,174,1920,1080,1920,1080,1-12-2024,15-46-50,53,catch_stimuli/c5_BC.png,125,,,0,4857,117,meters,jsons/MX_seq35_2_VE125_flipped.json,280023,530490,22,Man
53,471396,final-intermixed-textured,v2,jsons/MX_seq35_2_VE125_flipped.json,http://54.235.29.9/FacialAge/BNav_EC2/DepthDuration/MX_fS_VE_MTurk/MX_fS_HTML.html#174,174,1920,1080,1920,1080,1-12-2024,15-46-50,54,VR_target_stimuli/s39_0.75x_1_205.png,125,0.75x,1.0,1,3319,131,meters,jsons/MX_seq35_2_VE125_flipped.json,280023,530490,22,Man
54,471396,final-intermixed-textured,v2,jsons/MX_seq35_2_VE125_flipped.json,http://54.235.29.9/FacialAge/BNav_EC2/DepthDuration/MX_fS_VE_MTurk/MX_fS_HTML.html#174,174,1920,1080,1920,1080,1-12-2024,15-46-50,55,VR_target_stimuli/s51_1.3x_3.64_479_BC.png,125,1.3x,3.64,2,2551,115,meters,jsons/MX_seq35_2_VE125_flipped.json,280023,530490,22,Man
55,471396,final-intermixed-textured,v2,jsons/MX_seq35_2_VE125_flipped.json,http://54.235.29.9/FacialAge/BNav_EC2/DepthDuration/MX_fS_VE_MTurk/MX_fS_HTML.html#174,174,1920,1080,1920,1080,1-12-2024,15-46-50,56,VR_target_stimuli/s43_1x_2.2_354.png,125,1x,2.2,3,2237,116,meters,jsons/MX_seq35_2_VE125_flipped.json,280023,530490,22,Man
56,471396,final-intermixed-textured,v2,jsons/MX_seq35_2_VE125_flipped.json,http://54.235.29.9/FacialAge/BNav_EC2/DepthDuration/MX_fS_VE_MTurk/MX_fS_HTML.html#174,174,1920,1080,1920,1080,1-12-2024,15-46-50,57,VR_target_stimuli/s24_0.75x_3.3_344.png,125,0.75x,3.3,4,2051,125,meters,jsons/MX_seq35_2_VE125_flipped.json,280023,530490,22,Man
57,471396,final-intermixed-textured,v2,jsons/MX_seq35_2_VE125_flipped.json,http://54.235.29.9/FacialAge/BNav_EC2/DepthDuration/MX_fS_VE_MTurk/MX_fS_HTML.html#174,174,1920,1080,1920,1080,1-12-2024,15-46-50,58,VR_target_stimuli/s10_0.75x_2.7_321_BC.png,125,0.75x,2.7,4,5102,136,meters,jsons/MX_seq35_2_VE125_flipped.json,280023,530490,22,Man
58,471396,final-intermixed-textured,v2,jsons/MX_seq35_2_VE125_flipped.json,http://54.235.29.9/FacialAge/BNav_EC2/DepthDuration/MX_fS_VE_MTurk/MX_fS_HTML.html#174,174,1920,1080,1920,1080,1-12-2024,15-46-50,59,VR_target_stimuli/s36_1.3x_4.1_442.png,125,1.3x,4.1,5,2325,128,meters,jsons/MX_seq35_2_VE125_flipped.json,280023,530490,22,Man
59,471396,final-intermixed-textured,v2,jsons/MX_seq35_2_VE125_flipped.json,http://54.235.29.9/FacialAge/BNav_EC2/DepthDuration/MX_fS_VE_MTurk/MX_fS_HTML.html#174,174,1920,1080,1920,1080,1-12-2024,15-46-50,60,VR_target_stimuli/s40_1x_1.2_319_BC.png,125,1x,1.2,3,4442,133,meters,jsons/MX_seq35_2_VE125_flipped.json,280023,530490,22,Man
