,subjID,experimentName,versionName,sequenceName,url,selected_row,windowWidth,windowHeight,screenWidth,screenHeight,startDate,startTime,trial,stimulus,duration,scale,actual_depth,depth_estimate,trial_RT,log_sceneDuration,unitSelection,seq_filepath,experimentTime,totalTime,age,gender
0,472418,final-intermixed-textured,v2,jsons/MX_seq22_2_VE125_flipped.json,http://54.235.29.9/FacialAge/BNav_EC2/DepthDuration/MX_fS_VE_MTurk/MX_fS_HTML.html#240,240,1920,953,1920,1080,1-12-2024,22-39-45,1,VR_target_stimuli/s20_1x_4.99_398.png,125,1x,4.99,12,2726,125,meters,jsons/MX_seq22_2_VE125_flipped.json,151649,473998,25,Man
1,472418,final-intermixed-textured,v2,jsons/MX_seq22_2_VE125_flipped.json,http://54.235.29.9/FacialAge/BNav_EC2/DepthDuration/MX_fS_VE_MTurk/MX_fS_HTML.html#240,240,1920,953,1920,1080,1-12-2024,22-39-45,2,VR_target_stimuli/s31_1.3x_4.96_342_BC.png,125,1.3x,4.96,4,1899,127,meters,jsons/MX_seq22_2_VE125_flipped.json,151649,473998,25,Man
2,472418,final-intermixed-textured,v2,jsons/MX_seq22_2_VE125_flipped.json,http://54.235.29.9/FacialAge/BNav_EC2/DepthDuration/MX_fS_VE_MTurk/MX_fS_HTML.html#240,240,1920,953,1920,1080,1-12-2024,22-39-45,3,VR_target_stimuli/s33_0.75x_3.1_361_BC.png,125,0.75x,3.1,6,2033,133,meters,jsons/MX_seq22_2_VE125_flipped.json,151649,473998,25,Man
3,472418,final-intermixed-textured,v2,jsons/MX_seq22_2_VE125_flipped.json,http://54.235.29.9/FacialAge/BNav_EC2/DepthDuration/MX_fS_VE_MTurk/MX_fS_HTML.html#240,240,1920,953,1920,1080,1-12-2024,22-39-45,4,VR_target_stimuli/s52_1.3x_3.2_280.png,125,1.3x,3.2,8,2638,130,meters,jsons/MX_seq22_2_VE125_flipped.json,151649,473998,25,Man
4,472418,final-intermixed-textured,v2,jsons/MX_seq22_2_VE125_flipped.json,http://54.235.29.9/FacialAge/BNav_EC2/DepthDuration/MX_fS_VE_MTurk/MX_fS_HTML.html#240,240,1920,953,1920,1080,1-12-2024,22-39-45,5,VR_target_stimuli/s32_1x_1.5_218_BC.png,125,1x,1.5,3,2062,126,meters,jsons/MX_seq22_2_VE125_flipped.json,151649,473998,25,Man
5,472418,final-intermixed-textured,v2,jsons/MX_seq22_2_VE125_flipped.json,http://54.235.29.9/FacialAge/BNav_EC2/DepthDuration/MX_fS_VE_MTurk/MX_fS_HTML.html#240,240,1920,953,1920,1080,1-12-2024,22-39-45,6,VR_target_stimuli/s18_0.75x_2.25_341.png,125,0.75x,2.25,5,1782,126,meters,jsons/MX_seq22_2_VE125_flipped.json,151649,473998,25,Man
6,472418,final-intermixed-textured,v2,jsons/MX_seq22_2_VE125_flipped.json,http://54.235.29.9/FacialAge/BNav_EC2/DepthDuration/MX_fS_VE_MTurk/MX_fS_HTML.html#240,240,1920,953,1920,1080,1-12-2024,22-39-45,7,catch_stimuli/c0_BC.png,125,,,0,1686,136,meters,jsons/MX_seq22_2_VE125_flipped.json,151649,473998,25,Man
7,472418,final-intermixed-textured,v2,jsons/MX_seq22_2_VE125_flipped.json,http://54.235.29.9/FacialAge/BNav_EC2/DepthDuration/MX_fS_VE_MTurk/MX_fS_HTML.html#240,240,1920,953,1920,1080,1-12-2024,22-39-45,8,VR_target_stimuli/s39_0.75x_1_205.png,125,0.75x,1.0,2,1700,127,meters,jsons/MX_seq22_2_VE125_flipped.json,151649,473998,25,Man
8,472418,final-intermixed-textured,v2,jsons/MX_seq22_2_VE125_flipped.json,http://54.235.29.9/FacialAge/BNav_EC2/DepthDuration/MX_fS_VE_MTurk/MX_fS_HTML.html#240,240,1920,953,1920,1080,1-12-2024,22-39-45,9,VR_target_stimuli/s51_1.3x_3.64_479.png,125,1.3x,3.64,2,1917,112,meters,jsons/MX_seq22_2_VE125_flipped.json,151649,473998,25,Man
9,472418,final-intermixed-textured,v2,jsons/MX_seq22_2_VE125_flipped.json,http://54.235.29.9/FacialAge/BNav_EC2/DepthDuration/MX_fS_VE_MTurk/MX_fS_HTML.html#240,240,1920,953,1920,1080,1-12-2024,22-39-45,10,VR_target_stimuli/s43_1x_2.2_354_BC.png,125,1x,2.2,5,1684,110,meters,jsons/MX_seq22_2_VE125_flipped.json,151649,473998,25,Man
10,472418,final-intermixed-textured,v2,jsons/MX_seq22_2_VE125_flipped.json,http://54.235.29.9/FacialAge/BNav_EC2/DepthDuration/MX_fS_VE_MTurk/MX_fS_HTML.html#240,240,1920,953,1920,1080,1-12-2024,22-39-45,11,VR_target_stimuli/s24_1.3x_3.3_352_BC.png,125,1.3x,3.3,6,1512,122,meters,jsons/MX_seq22_2_VE125_flipped.json,151649,473998,25,Man
11,472418,final-intermixed-textured,v2,jsons/MX_seq22_2_VE125_flipped.json,http://54.235.29.9/FacialAge/BNav_EC2/DepthDuration/MX_fS_VE_MTurk/MX_fS_HTML.html#240,240,1920,953,1920,1080,1-12-2024,22-39-45,12,VR_target_stimuli/s10_0.75x_2.7_321_BC.png,125,0.75x,2.7,3,4237,129,meters,jsons/MX_seq22_2_VE125_flipped.json,151649,473998,25,Man
12,472418,final-intermixed-textured,v2,jsons/MX_seq22_2_VE125_flipped.json,http://54.235.29.9/FacialAge/BNav_EC2/DepthDuration/MX_fS_VE_MTurk/MX_fS_HTML.html#240,240,1920,953,1920,1080,1-12-2024,22-39-45,13,VR_target_stimuli/s36_1x_4.1_423.png,125,1x,4.1,6,2506,113,meters,jsons/MX_seq22_2_VE125_flipped.json,151649,473998,25,Man
13,472418,final-intermixed-textured,v2,jsons/MX_seq22_2_VE125_flipped.json,http://54.235.29.9/FacialAge/BNav_EC2/DepthDuration/MX_fS_VE_MTurk/MX_fS_HTML.html#240,240,1920,953,1920,1080,1-12-2024,22-39-45,14,VR_target_stimuli/s40_0.75x_1.2_308.png,125,0.75x,1.2,3,1681,120,meters,jsons/MX_seq22_2_VE125_flipped.json,151649,473998,25,Man
14,472418,final-intermixed-textured,v2,jsons/MX_seq22_2_VE125_flipped.json,http://54.235.29.9/FacialAge/BNav_EC2/DepthDuration/MX_fS_VE_MTurk/MX_fS_HTML.html#240,240,1920,953,1920,1080,1-12-2024,22-39-45,15,VR_target_stimuli/s41_1.3x_2.1_294_BC.png,125,1.3x,2.1,0,1810,127,meters,jsons/MX_seq22_2_VE125_flipped.json,151649,473998,25,Man
15,472418,final-intermixed-textured,v2,jsons/MX_seq22_2_VE125_flipped.json,http://54.235.29.9/FacialAge/BNav_EC2/DepthDuration/MX_fS_VE_MTurk/MX_fS_HTML.html#240,240,1920,953,1920,1080,1-12-2024,22-39-45,16,VR_target_stimuli/s45_1x_3.5_368_BC.png,125,1x,3.5,4,1777,127,meters,jsons/MX_seq22_2_VE125_flipped.json,151649,473998,25,Man
16,472418,final-intermixed-textured,v2,jsons/MX_seq22_2_VE125_flipped.json,http://54.235.29.9/FacialAge/BNav_EC2/DepthDuration/MX_fS_VE_MTurk/MX_fS_HTML.html#240,240,1920,953,1920,1080,1-12-2024,22-39-45,17,catch_stimuli/c1_BC.png,125,,,0,1575,128,meters,jsons/MX_seq22_2_VE125_flipped.json,151649,473998,25,Man
17,472418,final-intermixed-textured,v2,jsons/MX_seq22_2_VE125_flipped.json,http://54.235.29.9/FacialAge/BNav_EC2/DepthDuration/MX_fS_VE_MTurk/MX_fS_HTML.html#240,240,1920,953,1920,1080,1-12-2024,22-39-45,18,VR_target_stimuli/s23_1x_3.65_353.png,125,1x,3.65,3,1354,132,meters,jsons/MX_seq22_2_VE125_flipped.json,151649,473998,25,Man
18,472418,final-intermixed-textured,v2,jsons/MX_seq22_2_VE125_flipped.json,http://54.235.29.9/FacialAge/BNav_EC2/DepthDuration/MX_fS_VE_MTurk/MX_fS_HTML.html#240,240,1920,953,1920,1080,1-12-2024,22-39-45,19,VR_target_stimuli/s26_0.75x_4_430_BC.png,125,0.75x,4.0,6,1738,125,meters,jsons/MX_seq22_2_VE125_flipped.json,151649,473998,25,Man
19,472418,final-intermixed-textured,v2,jsons/MX_seq22_2_VE125_flipped.json,http://54.235.29.9/FacialAge/BNav_EC2/DepthDuration/MX_fS_VE_MTurk/MX_fS_HTML.html#240,240,1920,953,1920,1080,1-12-2024,22-39-45,20,VR_target_stimuli/s12_1.3x_3.1_375.png,125,1.3x,3.1,3,1395,126,meters,jsons/MX_seq22_2_VE125_flipped.json,151649,473998,25,Man
20,472418,final-intermixed-textured,v2,jsons/MX_seq22_2_VE125_flipped.json,http://54.235.29.9/FacialAge/BNav_EC2/DepthDuration/MX_fS_VE_MTurk/MX_fS_HTML.html#240,240,1920,953,1920,1080,1-12-2024,22-39-45,21,VR_target_stimuli/s30_0.75x_2.3_332.png,125,0.75x,2.3,4,1633,112,meters,jsons/MX_seq22_2_VE125_flipped.json,151649,473998,25,Man
21,472418,final-intermixed-textured,v2,jsons/MX_seq22_2_VE125_flipped.json,http://54.235.29.9/FacialAge/BNav_EC2/DepthDuration/MX_fS_VE_MTurk/MX_fS_HTML.html#240,240,1920,953,1920,1080,1-12-2024,22-39-45,22,VR_target_stimuli/s16_1x_1_219_BC.png,125,1x,1.0,2,1335,127,meters,jsons/MX_seq22_2_VE125_flipped.json,151649,473998,25,Man
22,472418,final-intermixed-textured,v2,jsons/MX_seq22_2_VE125_flipped.json,http://54.235.29.9/FacialAge/BNav_EC2/DepthDuration/MX_fS_VE_MTurk/MX_fS_HTML.html#240,240,1920,953,1920,1080,1-12-2024,22-39-45,23,VR_target_stimuli/s17_1.3x_1.8_300.png,125,1.3x,1.8,3,1334,126,meters,jsons/MX_seq22_2_VE125_flipped.json,151649,473998,25,Man
23,472418,final-intermixed-textured,v2,jsons/MX_seq22_2_VE125_flipped.json,http://54.235.29.9/FacialAge/BNav_EC2/DepthDuration/MX_fS_VE_MTurk/MX_fS_HTML.html#240,240,1920,953,1920,1080,1-12-2024,22-39-45,24,VR_target_stimuli/s5_1x_4_378.png,125,1x,4.0,5,1447,128,meters,jsons/MX_seq22_2_VE125_flipped.json,151649,473998,25,Man
24,472418,final-intermixed-textured,v2,jsons/MX_seq22_2_VE125_flipped.json,http://54.235.29.9/FacialAge/BNav_EC2/DepthDuration/MX_fS_VE_MTurk/MX_fS_HTML.html#240,240,1920,953,1920,1080,1-12-2024,22-39-45,25,VR_target_stimuli/s37_0.75x_3.3_567_BC.png,125,0.75x,3.3,3,1389,130,meters,jsons/MX_seq22_2_VE125_flipped.json,151649,473998,25,Man
25,472418,final-intermixed-textured,v2,jsons/MX_seq22_2_VE125_flipped.json,http://54.235.29.9/FacialAge/BNav_EC2/DepthDuration/MX_fS_VE_MTurk/MX_fS_HTML.html#240,240,1920,953,1920,1080,1-12-2024,22-39-45,26,catch_stimuli/c2_BC.png,125,,,0,1383,126,meters,jsons/MX_seq22_2_VE125_flipped.json,151649,473998,25,Man
26,472418,final-intermixed-textured,v2,jsons/MX_seq22_2_VE125_flipped.json,http://54.235.29.9/FacialAge/BNav_EC2/DepthDuration/MX_fS_VE_MTurk/MX_fS_HTML.html#240,240,1920,953,1920,1080,1-12-2024,22-39-45,27,VR_target_stimuli/s46_1.3x_2.42_354_BC.png,125,1.3x,2.42,5,1464,132,meters,jsons/MX_seq22_2_VE125_flipped.json,151649,473998,25,Man
27,472418,final-intermixed-textured,v2,jsons/MX_seq22_2_VE125_flipped.json,http://54.235.29.9/FacialAge/BNav_EC2/DepthDuration/MX_fS_VE_MTurk/MX_fS_HTML.html#240,240,1920,953,1920,1080,1-12-2024,22-39-45,28,VR_target_stimuli/s22_1.3x_4.29_364.png,125,1.3x,4.29,7,1660,123,meters,jsons/MX_seq22_2_VE125_flipped.json,151649,473998,25,Man
28,472418,final-intermixed-textured,v2,jsons/MX_seq22_2_VE125_flipped.json,http://54.235.29.9/FacialAge/BNav_EC2/DepthDuration/MX_fS_VE_MTurk/MX_fS_HTML.html#240,240,1920,953,1920,1080,1-12-2024,22-39-45,29,VR_target_stimuli/s42_1x_3.2_303_BC.png,125,1x,3.2,7,1748,127,meters,jsons/MX_seq22_2_VE125_flipped.json,151649,473998,25,Man
29,472418,final-intermixed-textured,v2,jsons/MX_seq22_2_VE125_flipped.json,http://54.235.29.9/FacialAge/BNav_EC2/DepthDuration/MX_fS_VE_MTurk/MX_fS_HTML.html#240,240,1920,953,1920,1080,1-12-2024,22-39-45,30,VR_target_stimuli/s25_0.75x_1.4_281.png,125,0.75x,1.4,5,1652,127,meters,jsons/MX_seq22_2_VE125_flipped.json,151649,473998,25,Man
30,472418,final-intermixed-textured,v2,jsons/MX_seq22_2_VE125_flipped.json,http://54.235.29.9/FacialAge/BNav_EC2/DepthDuration/MX_fS_VE_MTurk/MX_fS_HTML.html#240,240,1920,953,1920,1080,1-12-2024,22-39-45,31,VR_target_stimuli/s50_1.3x_4.53_518_BC.png,125,1.3x,4.53,3,2397,132,meters,jsons/MX_seq22_2_VE125_flipped.json,151649,473998,25,Man
31,472418,final-intermixed-textured,v2,jsons/MX_seq22_2_VE125_flipped.json,http://54.235.29.9/FacialAge/BNav_EC2/DepthDuration/MX_fS_VE_MTurk/MX_fS_HTML.html#240,240,1920,953,1920,1080,1-12-2024,22-39-45,32,VR_target_stimuli/s53_0.75x_1.6_403_BC.png,125,0.75x,1.6,2,2307,119,meters,jsons/MX_seq22_2_VE125_flipped.json,151649,473998,25,Man
32,472418,final-intermixed-textured,v2,jsons/MX_seq22_2_VE125_flipped.json,http://54.235.29.9/FacialAge/BNav_EC2/DepthDuration/MX_fS_VE_MTurk/MX_fS_HTML.html#240,240,1920,953,1920,1080,1-12-2024,22-39-45,33,VR_target_stimuli/s38_1x_3.55_353.png,125,1x,3.55,0,4341,112,meters,jsons/MX_seq22_2_VE125_flipped.json,151649,473998,25,Man
33,472418,final-intermixed-textured,v2,jsons/MX_seq22_2_VE125_flipped.json,http://54.235.29.9/FacialAge/BNav_EC2/DepthDuration/MX_fS_VE_MTurk/MX_fS_HTML.html#240,240,1920,953,1920,1080,1-12-2024,22-39-45,34,catch_stimuli/c3_BC.png,125,,,0,1437,125,meters,jsons/MX_seq22_2_VE125_flipped.json,151649,473998,25,Man
34,472418,final-intermixed-textured,v2,jsons/MX_seq22_2_VE125_flipped.json,http://54.235.29.9/FacialAge/BNav_EC2/DepthDuration/MX_fS_VE_MTurk/MX_fS_HTML.html#240,240,1920,953,1920,1080,1-12-2024,22-39-45,35,VR_target_stimuli/s9_0.75x_1.2_260_BC.png,125,0.75x,1.2,5,1463,124,meters,jsons/MX_seq22_2_VE125_flipped.json,151649,473998,25,Man
35,472418,final-intermixed-textured,v2,jsons/MX_seq22_2_VE125_flipped.json,http://54.235.29.9/FacialAge/BNav_EC2/DepthDuration/MX_fS_VE_MTurk/MX_fS_HTML.html#240,240,1920,953,1920,1080,1-12-2024,22-39-45,36,VR_target_stimuli/s44_1.3x_4.4_325_BC.png,125,1.3x,4.4,4,5761,131,meters,jsons/MX_seq22_2_VE125_flipped.json,151649,473998,25,Man
36,472418,final-intermixed-textured,v2,jsons/MX_seq22_2_VE125_flipped.json,http://54.235.29.9/FacialAge/BNav_EC2/DepthDuration/MX_fS_VE_MTurk/MX_fS_HTML.html#240,240,1920,953,1920,1080,1-12-2024,22-39-45,37,VR_target_stimuli/s3_1x_5_385_BC.png,125,1x,5.0,7,3437,127,meters,jsons/MX_seq22_2_VE125_flipped.json,151649,473998,25,Man
37,472418,final-intermixed-textured,v2,jsons/MX_seq22_2_VE125_flipped.json,http://54.235.29.9/FacialAge/BNav_EC2/DepthDuration/MX_fS_VE_MTurk/MX_fS_HTML.html#240,240,1920,953,1920,1080,1-12-2024,22-39-45,38,VR_target_stimuli/s1_1x_1.7_262.png,125,1x,1.7,3,1724,125,meters,jsons/MX_seq22_2_VE125_flipped.json,151649,473998,25,Man
38,472418,final-intermixed-textured,v2,jsons/MX_seq22_2_VE125_flipped.json,http://54.235.29.9/FacialAge/BNav_EC2/DepthDuration/MX_fS_VE_MTurk/MX_fS_HTML.html#240,240,1920,953,1920,1080,1-12-2024,22-39-45,39,VR_target_stimuli/s11_0.75x_5_359.png,125,0.75x,5.0,5,2027,128,meters,jsons/MX_seq22_2_VE125_flipped.json,151649,473998,25,Man
39,472418,final-intermixed-textured,v2,jsons/MX_seq22_2_VE125_flipped.json,http://54.235.29.9/FacialAge/BNav_EC2/DepthDuration/MX_fS_VE_MTurk/MX_fS_HTML.html#240,240,1920,953,1920,1080,1-12-2024,22-39-45,40,VR_target_stimuli/s2_1.3x_2.7_397.png,125,1.3x,2.7,4,1862,125,meters,jsons/MX_seq22_2_VE125_flipped.json,151649,473998,25,Man
40,472418,final-intermixed-textured,v2,jsons/MX_seq22_2_VE125_flipped.json,http://54.235.29.9/FacialAge/BNav_EC2/DepthDuration/MX_fS_VE_MTurk/MX_fS_HTML.html#240,240,1920,953,1920,1080,1-12-2024,22-39-45,41,VR_target_stimuli/s6_0.75x_2.1_290_BC.png,125,0.75x,2.1,4,1642,123,meters,jsons/MX_seq22_2_VE125_flipped.json,151649,473998,25,Man
41,472418,final-intermixed-textured,v2,jsons/MX_seq22_2_VE125_flipped.json,http://54.235.29.9/FacialAge/BNav_EC2/DepthDuration/MX_fS_VE_MTurk/MX_fS_HTML.html#240,240,1920,953,1920,1080,1-12-2024,22-39-45,42,VR_target_stimuli/s0_1x_2.6_351.png,125,1x,2.6,6,1716,114,meters,jsons/MX_seq22_2_VE125_flipped.json,151649,473998,25,Man
42,472418,final-intermixed-textured,v2,jsons/MX_seq22_2_VE125_flipped.json,http://54.235.29.9/FacialAge/BNav_EC2/DepthDuration/MX_fS_VE_MTurk/MX_fS_HTML.html#240,240,1920,953,1920,1080,1-12-2024,22-39-45,43,VR_target_stimuli/s34_1.3x_2.8_294_BC.png,125,1.3x,2.8,7,2065,125,meters,jsons/MX_seq22_2_VE125_flipped.json,151649,473998,25,Man
43,472418,final-intermixed-textured,v2,jsons/MX_seq22_2_VE125_flipped.json,http://54.235.29.9/FacialAge/BNav_EC2/DepthDuration/MX_fS_VE_MTurk/MX_fS_HTML.html#240,240,1920,953,1920,1080,1-12-2024,22-39-45,44,VR_target_stimuli/s13_1x_2.4_310_BC.png,125,1x,2.4,3,1807,125,meters,jsons/MX_seq22_2_VE125_flipped.json,151649,473998,25,Man
44,472418,final-intermixed-textured,v2,jsons/MX_seq22_2_VE125_flipped.json,http://54.235.29.9/FacialAge/BNav_EC2/DepthDuration/MX_fS_VE_MTurk/MX_fS_HTML.html#240,240,1920,953,1920,1080,1-12-2024,22-39-45,45,catch_stimuli/c4_BC.png,125,,,0,1338,127,meters,jsons/MX_seq22_2_VE125_flipped.json,151649,473998,25,Man
45,472418,final-intermixed-textured,v2,jsons/MX_seq22_2_VE125_flipped.json,http://54.235.29.9/FacialAge/BNav_EC2/DepthDuration/MX_fS_VE_MTurk/MX_fS_HTML.html#240,240,1920,953,1920,1080,1-12-2024,22-39-45,46,VR_target_stimuli/s14_0.75x_3.83_355.png,125,0.75x,3.83,6,1973,127,meters,jsons/MX_seq22_2_VE125_flipped.json,151649,473998,25,Man
46,472418,final-intermixed-textured,v2,jsons/MX_seq22_2_VE125_flipped.json,http://54.235.29.9/FacialAge/BNav_EC2/DepthDuration/MX_fS_VE_MTurk/MX_fS_HTML.html#240,240,1920,953,1920,1080,1-12-2024,22-39-45,47,VR_target_stimuli/s47_1.3x_3.45_373.png,125,1.3x,3.45,3,2017,125,meters,jsons/MX_seq22_2_VE125_flipped.json,151649,473998,25,Man
47,472418,final-intermixed-textured,v2,jsons/MX_seq22_2_VE125_flipped.json,http://54.235.29.9/FacialAge/BNav_EC2/DepthDuration/MX_fS_VE_MTurk/MX_fS_HTML.html#240,240,1920,953,1920,1080,1-12-2024,22-39-45,48,VR_target_stimuli/s29_1.3x_1.3_253_BC.png,125,1.3x,1.3,2,1508,120,meters,jsons/MX_seq22_2_VE125_flipped.json,151649,473998,25,Man
48,472418,final-intermixed-textured,v2,jsons/MX_seq22_2_VE125_flipped.json,http://54.235.29.9/FacialAge/BNav_EC2/DepthDuration/MX_fS_VE_MTurk/MX_fS_HTML.html#240,240,1920,953,1920,1080,1-12-2024,22-39-45,49,VR_target_stimuli/s28_1x_3.2_362.png,125,1x,3.2,3,3095,130,meters,jsons/MX_seq22_2_VE125_flipped.json,151649,473998,25,Man
49,472418,final-intermixed-textured,v2,jsons/MX_seq22_2_VE125_flipped.json,http://54.235.29.9/FacialAge/BNav_EC2/DepthDuration/MX_fS_VE_MTurk/MX_fS_HTML.html#240,240,1920,953,1920,1080,1-12-2024,22-39-45,50,VR_target_stimuli/s48_0.75x_2.55_243_BC.png,125,0.75x,2.55,4,1530,128,meters,jsons/MX_seq22_2_VE125_flipped.json,151649,473998,25,Man
50,472418,final-intermixed-textured,v2,jsons/MX_seq22_2_VE125_flipped.json,http://54.235.29.9/FacialAge/BNav_EC2/DepthDuration/MX_fS_VE_MTurk/MX_fS_HTML.html#240,240,1920,953,1920,1080,1-12-2024,22-39-45,51,VR_target_stimuli/s19_1x_1.21_263_BC.png,125,1x,1.21,3,1647,131,meters,jsons/MX_seq22_2_VE125_flipped.json,151649,473998,25,Man
51,472418,final-intermixed-textured,v2,jsons/MX_seq22_2_VE125_flipped.json,http://54.235.29.9/FacialAge/BNav_EC2/DepthDuration/MX_fS_VE_MTurk/MX_fS_HTML.html#240,240,1920,953,1920,1080,1-12-2024,22-39-45,52,VR_target_stimuli/s21_1.3x_4.22_384.png,125,1.3x,4.22,4,4626,131,meters,jsons/MX_seq22_2_VE125_flipped.json,151649,473998,25,Man
52,472418,final-intermixed-textured,v2,jsons/MX_seq22_2_VE125_flipped.json,http://54.235.29.9/FacialAge/BNav_EC2/DepthDuration/MX_fS_VE_MTurk/MX_fS_HTML.html#240,240,1920,953,1920,1080,1-12-2024,22-39-45,53,catch_stimuli/c5_BC.png,125,,,0,2503,127,meters,jsons/MX_seq22_2_VE125_flipped.json,151649,473998,25,Man
53,472418,final-intermixed-textured,v2,jsons/MX_seq22_2_VE125_flipped.json,http://54.235.29.9/FacialAge/BNav_EC2/DepthDuration/MX_fS_VE_MTurk/MX_fS_HTML.html#240,240,1920,953,1920,1080,1-12-2024,22-39-45,54,VR_target_stimuli/s8_0.75x_3.1_325.png,125,0.75x,3.1,7,1937,126,meters,jsons/MX_seq22_2_VE125_flipped.json,151649,473998,25,Man
54,472418,final-intermixed-textured,v2,jsons/MX_seq22_2_VE125_flipped.json,http://54.235.29.9/FacialAge/BNav_EC2/DepthDuration/MX_fS_VE_MTurk/MX_fS_HTML.html#240,240,1920,953,1920,1080,1-12-2024,22-39-45,55,VR_target_stimuli/s27_1.3x_1.76_250_BC.png,125,1.3x,1.76,0,1317,124,meters,jsons/MX_seq22_2_VE125_flipped.json,151649,473998,25,Man
55,472418,final-intermixed-textured,v2,jsons/MX_seq22_2_VE125_flipped.json,http://54.235.29.9/FacialAge/BNav_EC2/DepthDuration/MX_fS_VE_MTurk/MX_fS_HTML.html#240,240,1920,953,1920,1080,1-12-2024,22-39-45,56,VR_target_stimuli/s15_1x_4.2_390.png,125,1x,4.2,5,1411,121,meters,jsons/MX_seq22_2_VE125_flipped.json,151649,473998,25,Man
56,472418,final-intermixed-textured,v2,jsons/MX_seq22_2_VE125_flipped.json,http://54.235.29.9/FacialAge/BNav_EC2/DepthDuration/MX_fS_VE_MTurk/MX_fS_HTML.html#240,240,1920,953,1920,1080,1-12-2024,22-39-45,57,VR_target_stimuli/s4_0.75x_1.4_301.png,125,0.75x,1.4,3,1303,128,meters,jsons/MX_seq22_2_VE125_flipped.json,151649,473998,25,Man
57,472418,final-intermixed-textured,v2,jsons/MX_seq22_2_VE125_flipped.json,http://54.235.29.9/FacialAge/BNav_EC2/DepthDuration/MX_fS_VE_MTurk/MX_fS_HTML.html#240,240,1920,953,1920,1080,1-12-2024,22-39-45,58,VR_target_stimuli/s35_0.75x_2_323_BC.png,125,0.75x,2.0,3,1519,126,meters,jsons/MX_seq22_2_VE125_flipped.json,151649,473998,25,Man
58,472418,final-intermixed-textured,v2,jsons/MX_seq22_2_VE125_flipped.json,http://54.235.29.9/FacialAge/BNav_EC2/DepthDuration/MX_fS_VE_MTurk/MX_fS_HTML.html#240,240,1920,953,1920,1080,1-12-2024,22-39-45,59,VR_target_stimuli/s49_1.3x_4.67_354.png,125,1.3x,4.67,5,2995,129,meters,jsons/MX_seq22_2_VE125_flipped.json,151649,473998,25,Man
59,472418,final-intermixed-textured,v2,jsons/MX_seq22_2_VE125_flipped.json,http://54.235.29.9/FacialAge/BNav_EC2/DepthDuration/MX_fS_VE_MTurk/MX_fS_HTML.html#240,240,1920,953,1920,1080,1-12-2024,22-39-45,60,VR_target_stimuli/s7_1x_1.5_255_BC.png,125,1x,1.5,6,1890,123,meters,jsons/MX_seq22_2_VE125_flipped.json,151649,473998,25,Man
