,subjID,experimentName,versionName,sequenceName,url,selected_row,windowWidth,windowHeight,screenWidth,screenHeight,startDate,startTime,trial,stimulus,duration,scale,actual_depth,depth_estimate,trial_RT,log_sceneDuration,unitSelection,seq_filepath,experimentTime,totalTime,age,gender
0,479303,final-intermixed-textured,v2,jsons/MX_seq49_1_VE125_flipped.json,http://54.235.29.9/FacialAge/BNav_EC2/DepthDuration/MX_fS_VE_MTurk/MX_fS_HTML.html#241,241,1920,945,1920,1080,1-12-2024,16-27-18,1,VR_target_stimuli/s50_1.3x_4.53_518.png,125,1.3x,4.53,2.5,3578,123,meters,jsons/MX_seq49_1_VE125_flipped.json,230246,448848,32,Man
1,479303,final-intermixed-textured,v2,jsons/MX_seq49_1_VE125_flipped.json,http://54.235.29.9/FacialAge/BNav_EC2/DepthDuration/MX_fS_VE_MTurk/MX_fS_HTML.html#241,241,1920,945,1920,1080,1-12-2024,16-27-18,2,VR_target_stimuli/s53_0.75x_1.6_403.png,125,0.75x,1.6,1.2,4022,123,meters,jsons/MX_seq49_1_VE125_flipped.json,230246,448848,32,Man
2,479303,final-intermixed-textured,v2,jsons/MX_seq49_1_VE125_flipped.json,http://54.235.29.9/FacialAge/BNav_EC2/DepthDuration/MX_fS_VE_MTurk/MX_fS_HTML.html#241,241,1920,945,1920,1080,1-12-2024,16-27-18,3,VR_target_stimuli/s38_1x_3.55_353_BC.png,125,1x,3.55,3.0,4932,125,meters,jsons/MX_seq49_1_VE125_flipped.json,230246,448848,32,Man
3,479303,final-intermixed-textured,v2,jsons/MX_seq49_1_VE125_flipped.json,http://54.235.29.9/FacialAge/BNav_EC2/DepthDuration/MX_fS_VE_MTurk/MX_fS_HTML.html#241,241,1920,945,1920,1080,1-12-2024,16-27-18,4,VR_target_stimuli/s9_0.75x_1.2_260_BC.png,125,0.75x,1.2,1.0,3676,124,meters,jsons/MX_seq49_1_VE125_flipped.json,230246,448848,32,Man
4,479303,final-intermixed-textured,v2,jsons/MX_seq49_1_VE125_flipped.json,http://54.235.29.9/FacialAge/BNav_EC2/DepthDuration/MX_fS_VE_MTurk/MX_fS_HTML.html#241,241,1920,945,1920,1080,1-12-2024,16-27-18,5,VR_target_stimuli/s44_1.3x_4.4_325_BC.png,125,1.3x,4.4,2.5,3392,126,meters,jsons/MX_seq49_1_VE125_flipped.json,230246,448848,32,Man
5,479303,final-intermixed-textured,v2,jsons/MX_seq49_1_VE125_flipped.json,http://54.235.29.9/FacialAge/BNav_EC2/DepthDuration/MX_fS_VE_MTurk/MX_fS_HTML.html#241,241,1920,945,1920,1080,1-12-2024,16-27-18,6,VR_target_stimuli/s3_1x_5_385.png,125,1x,5.0,4.0,3782,123,meters,jsons/MX_seq49_1_VE125_flipped.json,230246,448848,32,Man
6,479303,final-intermixed-textured,v2,jsons/MX_seq49_1_VE125_flipped.json,http://54.235.29.9/FacialAge/BNav_EC2/DepthDuration/MX_fS_VE_MTurk/MX_fS_HTML.html#241,241,1920,945,1920,1080,1-12-2024,16-27-18,7,catch_stimuli/c0_BC.png,125,,,0.0,3004,124,meters,jsons/MX_seq49_1_VE125_flipped.json,230246,448848,32,Man
7,479303,final-intermixed-textured,v2,jsons/MX_seq49_1_VE125_flipped.json,http://54.235.29.9/FacialAge/BNav_EC2/DepthDuration/MX_fS_VE_MTurk/MX_fS_HTML.html#241,241,1920,945,1920,1080,1-12-2024,16-27-18,8,VR_target_stimuli/s1_1x_1.7_262_BC.png,125,1x,1.7,0.8,4437,123,meters,jsons/MX_seq49_1_VE125_flipped.json,230246,448848,32,Man
8,479303,final-intermixed-textured,v2,jsons/MX_seq49_1_VE125_flipped.json,http://54.235.29.9/FacialAge/BNav_EC2/DepthDuration/MX_fS_VE_MTurk/MX_fS_HTML.html#241,241,1920,945,1920,1080,1-12-2024,16-27-18,9,VR_target_stimuli/s11_0.75x_5_359.png,125,0.75x,5.0,3.2,4168,132,meters,jsons/MX_seq49_1_VE125_flipped.json,230246,448848,32,Man
9,479303,final-intermixed-textured,v2,jsons/MX_seq49_1_VE125_flipped.json,http://54.235.29.9/FacialAge/BNav_EC2/DepthDuration/MX_fS_VE_MTurk/MX_fS_HTML.html#241,241,1920,945,1920,1080,1-12-2024,16-27-18,10,VR_target_stimuli/s2_1.3x_2.7_397.png,125,1.3x,2.7,1.4,3517,125,meters,jsons/MX_seq49_1_VE125_flipped.json,230246,448848,32,Man
10,479303,final-intermixed-textured,v2,jsons/MX_seq49_1_VE125_flipped.json,http://54.235.29.9/FacialAge/BNav_EC2/DepthDuration/MX_fS_VE_MTurk/MX_fS_HTML.html#241,241,1920,945,1920,1080,1-12-2024,16-27-18,11,VR_target_stimuli/s6_0.75x_2.1_290_BC.png,125,0.75x,2.1,1.2,5458,124,meters,jsons/MX_seq49_1_VE125_flipped.json,230246,448848,32,Man
11,479303,final-intermixed-textured,v2,jsons/MX_seq49_1_VE125_flipped.json,http://54.235.29.9/FacialAge/BNav_EC2/DepthDuration/MX_fS_VE_MTurk/MX_fS_HTML.html#241,241,1920,945,1920,1080,1-12-2024,16-27-18,12,VR_target_stimuli/s0_1x_2.6_351.png,125,1x,2.6,1.8,5600,123,meters,jsons/MX_seq49_1_VE125_flipped.json,230246,448848,32,Man
12,479303,final-intermixed-textured,v2,jsons/MX_seq49_1_VE125_flipped.json,http://54.235.29.9/FacialAge/BNav_EC2/DepthDuration/MX_fS_VE_MTurk/MX_fS_HTML.html#241,241,1920,945,1920,1080,1-12-2024,16-27-18,13,VR_target_stimuli/s34_1.3x_2.8_294_BC.png,125,1.3x,2.8,1.5,5092,129,meters,jsons/MX_seq49_1_VE125_flipped.json,230246,448848,32,Man
13,479303,final-intermixed-textured,v2,jsons/MX_seq49_1_VE125_flipped.json,http://54.235.29.9/FacialAge/BNav_EC2/DepthDuration/MX_fS_VE_MTurk/MX_fS_HTML.html#241,241,1920,945,1920,1080,1-12-2024,16-27-18,14,VR_target_stimuli/s13_1x_2.4_310_BC.png,125,1x,2.4,1.5,5881,123,meters,jsons/MX_seq49_1_VE125_flipped.json,230246,448848,32,Man
14,479303,final-intermixed-textured,v2,jsons/MX_seq49_1_VE125_flipped.json,http://54.235.29.9/FacialAge/BNav_EC2/DepthDuration/MX_fS_VE_MTurk/MX_fS_HTML.html#241,241,1920,945,1920,1080,1-12-2024,16-27-18,15,VR_target_stimuli/s14_0.75x_3.83_355_BC.png,125,0.75x,3.83,2.0,4213,125,meters,jsons/MX_seq49_1_VE125_flipped.json,230246,448848,32,Man
15,479303,final-intermixed-textured,v2,jsons/MX_seq49_1_VE125_flipped.json,http://54.235.29.9/FacialAge/BNav_EC2/DepthDuration/MX_fS_VE_MTurk/MX_fS_HTML.html#241,241,1920,945,1920,1080,1-12-2024,16-27-18,16,VR_target_stimuli/s47_1.3x_3.45_373.png,125,1.3x,3.45,4.0,3318,125,meters,jsons/MX_seq49_1_VE125_flipped.json,230246,448848,32,Man
16,479303,final-intermixed-textured,v2,jsons/MX_seq49_1_VE125_flipped.json,http://54.235.29.9/FacialAge/BNav_EC2/DepthDuration/MX_fS_VE_MTurk/MX_fS_HTML.html#241,241,1920,945,1920,1080,1-12-2024,16-27-18,17,catch_stimuli/c1_BC.png,125,,,0.0,2317,124,meters,jsons/MX_seq49_1_VE125_flipped.json,230246,448848,32,Man
17,479303,final-intermixed-textured,v2,jsons/MX_seq49_1_VE125_flipped.json,http://54.235.29.9/FacialAge/BNav_EC2/DepthDuration/MX_fS_VE_MTurk/MX_fS_HTML.html#241,241,1920,945,1920,1080,1-12-2024,16-27-18,18,VR_target_stimuli/s29_1.3x_1.3_253_BC.png,125,1.3x,1.3,1.0,2889,124,meters,jsons/MX_seq49_1_VE125_flipped.json,230246,448848,32,Man
18,479303,final-intermixed-textured,v2,jsons/MX_seq49_1_VE125_flipped.json,http://54.235.29.9/FacialAge/BNav_EC2/DepthDuration/MX_fS_VE_MTurk/MX_fS_HTML.html#241,241,1920,945,1920,1080,1-12-2024,16-27-18,19,VR_target_stimuli/s28_1x_3.2_362.png,125,1x,3.2,1.5,2764,125,meters,jsons/MX_seq49_1_VE125_flipped.json,230246,448848,32,Man
19,479303,final-intermixed-textured,v2,jsons/MX_seq49_1_VE125_flipped.json,http://54.235.29.9/FacialAge/BNav_EC2/DepthDuration/MX_fS_VE_MTurk/MX_fS_HTML.html#241,241,1920,945,1920,1080,1-12-2024,16-27-18,20,VR_target_stimuli/s48_0.75x_2.55_243.png,125,0.75x,2.55,4.0,5183,125,meters,jsons/MX_seq49_1_VE125_flipped.json,230246,448848,32,Man
20,479303,final-intermixed-textured,v2,jsons/MX_seq49_1_VE125_flipped.json,http://54.235.29.9/FacialAge/BNav_EC2/DepthDuration/MX_fS_VE_MTurk/MX_fS_HTML.html#241,241,1920,945,1920,1080,1-12-2024,16-27-18,21,VR_target_stimuli/s19_1x_1.21_263.png,125,1x,1.21,1.0,2648,132,meters,jsons/MX_seq49_1_VE125_flipped.json,230246,448848,32,Man
21,479303,final-intermixed-textured,v2,jsons/MX_seq49_1_VE125_flipped.json,http://54.235.29.9/FacialAge/BNav_EC2/DepthDuration/MX_fS_VE_MTurk/MX_fS_HTML.html#241,241,1920,945,1920,1080,1-12-2024,16-27-18,22,VR_target_stimuli/s21_1.3x_4.22_384.png,125,1.3x,4.22,2.0,2439,122,meters,jsons/MX_seq49_1_VE125_flipped.json,230246,448848,32,Man
22,479303,final-intermixed-textured,v2,jsons/MX_seq49_1_VE125_flipped.json,http://54.235.29.9/FacialAge/BNav_EC2/DepthDuration/MX_fS_VE_MTurk/MX_fS_HTML.html#241,241,1920,945,1920,1080,1-12-2024,16-27-18,23,VR_target_stimuli/s8_0.75x_3.1_325_BC.png,125,0.75x,3.1,2.0,2676,128,meters,jsons/MX_seq49_1_VE125_flipped.json,230246,448848,32,Man
23,479303,final-intermixed-textured,v2,jsons/MX_seq49_1_VE125_flipped.json,http://54.235.29.9/FacialAge/BNav_EC2/DepthDuration/MX_fS_VE_MTurk/MX_fS_HTML.html#241,241,1920,945,1920,1080,1-12-2024,16-27-18,24,VR_target_stimuli/s27_1.3x_1.76_250_BC.png,125,1.3x,1.76,1.5,2706,125,meters,jsons/MX_seq49_1_VE125_flipped.json,230246,448848,32,Man
24,479303,final-intermixed-textured,v2,jsons/MX_seq49_1_VE125_flipped.json,http://54.235.29.9/FacialAge/BNav_EC2/DepthDuration/MX_fS_VE_MTurk/MX_fS_HTML.html#241,241,1920,945,1920,1080,1-12-2024,16-27-18,25,VR_target_stimuli/s15_1x_4.2_390_BC.png,125,1x,4.2,2.5,2728,123,meters,jsons/MX_seq49_1_VE125_flipped.json,230246,448848,32,Man
25,479303,final-intermixed-textured,v2,jsons/MX_seq49_1_VE125_flipped.json,http://54.235.29.9/FacialAge/BNav_EC2/DepthDuration/MX_fS_VE_MTurk/MX_fS_HTML.html#241,241,1920,945,1920,1080,1-12-2024,16-27-18,26,catch_stimuli/c2_BC.png,125,,,0.0,2244,134,meters,jsons/MX_seq49_1_VE125_flipped.json,230246,448848,32,Man
26,479303,final-intermixed-textured,v2,jsons/MX_seq49_1_VE125_flipped.json,http://54.235.29.9/FacialAge/BNav_EC2/DepthDuration/MX_fS_VE_MTurk/MX_fS_HTML.html#241,241,1920,945,1920,1080,1-12-2024,16-27-18,27,VR_target_stimuli/s4_0.75x_1.4_301.png,125,0.75x,1.4,1.0,2343,133,meters,jsons/MX_seq49_1_VE125_flipped.json,230246,448848,32,Man
27,479303,final-intermixed-textured,v2,jsons/MX_seq49_1_VE125_flipped.json,http://54.235.29.9/FacialAge/BNav_EC2/DepthDuration/MX_fS_VE_MTurk/MX_fS_HTML.html#241,241,1920,945,1920,1080,1-12-2024,16-27-18,28,VR_target_stimuli/s35_0.75x_2_323_BC.png,125,0.75x,2.0,1.5,2966,126,meters,jsons/MX_seq49_1_VE125_flipped.json,230246,448848,32,Man
28,479303,final-intermixed-textured,v2,jsons/MX_seq49_1_VE125_flipped.json,http://54.235.29.9/FacialAge/BNav_EC2/DepthDuration/MX_fS_VE_MTurk/MX_fS_HTML.html#241,241,1920,945,1920,1080,1-12-2024,16-27-18,29,VR_target_stimuli/s49_1.3x_4.67_354_BC.png,125,1.3x,4.67,3.0,2716,123,meters,jsons/MX_seq49_1_VE125_flipped.json,230246,448848,32,Man
29,479303,final-intermixed-textured,v2,jsons/MX_seq49_1_VE125_flipped.json,http://54.235.29.9/FacialAge/BNav_EC2/DepthDuration/MX_fS_VE_MTurk/MX_fS_HTML.html#241,241,1920,945,1920,1080,1-12-2024,16-27-18,30,VR_target_stimuli/s7_1x_1.5_255.png,125,1x,1.5,1.0,2391,126,meters,jsons/MX_seq49_1_VE125_flipped.json,230246,448848,32,Man
30,479303,final-intermixed-textured,v2,jsons/MX_seq49_1_VE125_flipped.json,http://54.235.29.9/FacialAge/BNav_EC2/DepthDuration/MX_fS_VE_MTurk/MX_fS_HTML.html#241,241,1920,945,1920,1080,1-12-2024,16-27-18,31,VR_target_stimuli/s20_0.75x_4.99_390.png,125,0.75x,4.99,3.0,2393,126,meters,jsons/MX_seq49_1_VE125_flipped.json,230246,448848,32,Man
31,479303,final-intermixed-textured,v2,jsons/MX_seq49_1_VE125_flipped.json,http://54.235.29.9/FacialAge/BNav_EC2/DepthDuration/MX_fS_VE_MTurk/MX_fS_HTML.html#241,241,1920,945,1920,1080,1-12-2024,16-27-18,32,VR_target_stimuli/s31_1x_4.96_333_BC.png,125,1x,4.96,2.5,4585,128,meters,jsons/MX_seq49_1_VE125_flipped.json,230246,448848,32,Man
32,479303,final-intermixed-textured,v2,jsons/MX_seq49_1_VE125_flipped.json,http://54.235.29.9/FacialAge/BNav_EC2/DepthDuration/MX_fS_VE_MTurk/MX_fS_HTML.html#241,241,1920,945,1920,1080,1-12-2024,16-27-18,33,VR_target_stimuli/s33_1.3x_3.1_378.png,125,1.3x,3.1,2.0,3098,137,meters,jsons/MX_seq49_1_VE125_flipped.json,230246,448848,32,Man
33,479303,final-intermixed-textured,v2,jsons/MX_seq49_1_VE125_flipped.json,http://54.235.29.9/FacialAge/BNav_EC2/DepthDuration/MX_fS_VE_MTurk/MX_fS_HTML.html#241,241,1920,945,1920,1080,1-12-2024,16-27-18,34,catch_stimuli/c3_BC.png,125,,,0.0,2169,124,meters,jsons/MX_seq49_1_VE125_flipped.json,230246,448848,32,Man
34,479303,final-intermixed-textured,v2,jsons/MX_seq49_1_VE125_flipped.json,http://54.235.29.9/FacialAge/BNav_EC2/DepthDuration/MX_fS_VE_MTurk/MX_fS_HTML.html#241,241,1920,945,1920,1080,1-12-2024,16-27-18,35,VR_target_stimuli/s52_1x_3.2_275_BC.png,125,1x,3.2,1.5,3160,123,meters,jsons/MX_seq49_1_VE125_flipped.json,230246,448848,32,Man
35,479303,final-intermixed-textured,v2,jsons/MX_seq49_1_VE125_flipped.json,http://54.235.29.9/FacialAge/BNav_EC2/DepthDuration/MX_fS_VE_MTurk/MX_fS_HTML.html#241,241,1920,945,1920,1080,1-12-2024,16-27-18,36,VR_target_stimuli/s32_0.75x_1.5_213_BC.png,125,0.75x,1.5,1.0,3639,125,meters,jsons/MX_seq49_1_VE125_flipped.json,230246,448848,32,Man
36,479303,final-intermixed-textured,v2,jsons/MX_seq49_1_VE125_flipped.json,http://54.235.29.9/FacialAge/BNav_EC2/DepthDuration/MX_fS_VE_MTurk/MX_fS_HTML.html#241,241,1920,945,1920,1080,1-12-2024,16-27-18,37,VR_target_stimuli/s18_1.3x_2.25_368.png,125,1.3x,2.25,1.0,2377,131,meters,jsons/MX_seq49_1_VE125_flipped.json,230246,448848,32,Man
37,479303,final-intermixed-textured,v2,jsons/MX_seq49_1_VE125_flipped.json,http://54.235.29.9/FacialAge/BNav_EC2/DepthDuration/MX_fS_VE_MTurk/MX_fS_HTML.html#241,241,1920,945,1920,1080,1-12-2024,16-27-18,38,VR_target_stimuli/s39_1.3x_1_208_BC.png,125,1.3x,1.0,0.5,3201,124,meters,jsons/MX_seq49_1_VE125_flipped.json,230246,448848,32,Man
38,479303,final-intermixed-textured,v2,jsons/MX_seq49_1_VE125_flipped.json,http://54.235.29.9/FacialAge/BNav_EC2/DepthDuration/MX_fS_VE_MTurk/MX_fS_HTML.html#241,241,1920,945,1920,1080,1-12-2024,16-27-18,39,VR_target_stimuli/s51_1x_3.64_461.png,125,1x,3.64,1.5,3172,123,meters,jsons/MX_seq49_1_VE125_flipped.json,230246,448848,32,Man
39,479303,final-intermixed-textured,v2,jsons/MX_seq49_1_VE125_flipped.json,http://54.235.29.9/FacialAge/BNav_EC2/DepthDuration/MX_fS_VE_MTurk/MX_fS_HTML.html#241,241,1920,945,1920,1080,1-12-2024,16-27-18,40,VR_target_stimuli/s43_0.75x_2.2_348.png,125,0.75x,2.2,2.0,3391,125,meters,jsons/MX_seq49_1_VE125_flipped.json,230246,448848,32,Man
40,479303,final-intermixed-textured,v2,jsons/MX_seq49_1_VE125_flipped.json,http://54.235.29.9/FacialAge/BNav_EC2/DepthDuration/MX_fS_VE_MTurk/MX_fS_HTML.html#241,241,1920,945,1920,1080,1-12-2024,16-27-18,41,VR_target_stimuli/s24_1x_3.3_349_BC.png,125,1x,3.3,1.5,2753,122,meters,jsons/MX_seq49_1_VE125_flipped.json,230246,448848,32,Man
41,479303,final-intermixed-textured,v2,jsons/MX_seq49_1_VE125_flipped.json,http://54.235.29.9/FacialAge/BNav_EC2/DepthDuration/MX_fS_VE_MTurk/MX_fS_HTML.html#241,241,1920,945,1920,1080,1-12-2024,16-27-18,42,VR_target_stimuli/s10_1.3x_2.7_325_BC.png,125,1.3x,2.7,1.5,2637,130,meters,jsons/MX_seq49_1_VE125_flipped.json,230246,448848,32,Man
42,479303,final-intermixed-textured,v2,jsons/MX_seq49_1_VE125_flipped.json,http://54.235.29.9/FacialAge/BNav_EC2/DepthDuration/MX_fS_VE_MTurk/MX_fS_HTML.html#241,241,1920,945,1920,1080,1-12-2024,16-27-18,43,VR_target_stimuli/s36_0.75x_4.1_407.png,125,0.75x,4.1,2.5,2571,125,meters,jsons/MX_seq49_1_VE125_flipped.json,230246,448848,32,Man
43,479303,final-intermixed-textured,v2,jsons/MX_seq49_1_VE125_flipped.json,http://54.235.29.9/FacialAge/BNav_EC2/DepthDuration/MX_fS_VE_MTurk/MX_fS_HTML.html#241,241,1920,945,1920,1080,1-12-2024,16-27-18,44,VR_target_stimuli/s40_1.3x_1.2_332.png,125,1.3x,1.2,0.8,2943,125,meters,jsons/MX_seq49_1_VE125_flipped.json,230246,448848,32,Man
44,479303,final-intermixed-textured,v2,jsons/MX_seq49_1_VE125_flipped.json,http://54.235.29.9/FacialAge/BNav_EC2/DepthDuration/MX_fS_VE_MTurk/MX_fS_HTML.html#241,241,1920,945,1920,1080,1-12-2024,16-27-18,45,catch_stimuli/c4_BC.png,125,,,0.0,2224,124,meters,jsons/MX_seq49_1_VE125_flipped.json,230246,448848,32,Man
45,479303,final-intermixed-textured,v2,jsons/MX_seq49_1_VE125_flipped.json,http://54.235.29.9/FacialAge/BNav_EC2/DepthDuration/MX_fS_VE_MTurk/MX_fS_HTML.html#241,241,1920,945,1920,1080,1-12-2024,16-27-18,46,VR_target_stimuli/s41_1x_2.1_286.png,125,1x,2.1,2.0,2855,124,meters,jsons/MX_seq49_1_VE125_flipped.json,230246,448848,32,Man
46,479303,final-intermixed-textured,v2,jsons/MX_seq49_1_VE125_flipped.json,http://54.235.29.9/FacialAge/BNav_EC2/DepthDuration/MX_fS_VE_MTurk/MX_fS_HTML.html#241,241,1920,945,1920,1080,1-12-2024,16-27-18,47,VR_target_stimuli/s45_0.75x_3.5_362_BC.png,125,0.75x,3.5,2.0,2288,126,meters,jsons/MX_seq49_1_VE125_flipped.json,230246,448848,32,Man
47,479303,final-intermixed-textured,v2,jsons/MX_seq49_1_VE125_flipped.json,http://54.235.29.9/FacialAge/BNav_EC2/DepthDuration/MX_fS_VE_MTurk/MX_fS_HTML.html#241,241,1920,945,1920,1080,1-12-2024,16-27-18,48,VR_target_stimuli/s23_0.75x_3.65_351_BC.png,125,0.75x,3.65,2.5,4207,124,meters,jsons/MX_seq49_1_VE125_flipped.json,230246,448848,32,Man
48,479303,final-intermixed-textured,v2,jsons/MX_seq49_1_VE125_flipped.json,http://54.235.29.9/FacialAge/BNav_EC2/DepthDuration/MX_fS_VE_MTurk/MX_fS_HTML.html#241,241,1920,945,1920,1080,1-12-2024,16-27-18,49,VR_target_stimuli/s26_1.3x_4_441.png,125,1.3x,4.0,1.5,2762,124,meters,jsons/MX_seq49_1_VE125_flipped.json,230246,448848,32,Man
49,479303,final-intermixed-textured,v2,jsons/MX_seq49_1_VE125_flipped.json,http://54.235.29.9/FacialAge/BNav_EC2/DepthDuration/MX_fS_VE_MTurk/MX_fS_HTML.html#241,241,1920,945,1920,1080,1-12-2024,16-27-18,50,VR_target_stimuli/s12_1x_3.1_372.png,125,1x,3.1,2.0,2716,124,meters,jsons/MX_seq49_1_VE125_flipped.json,230246,448848,32,Man
50,479303,final-intermixed-textured,v2,jsons/MX_seq49_1_VE125_flipped.json,http://54.235.29.9/FacialAge/BNav_EC2/DepthDuration/MX_fS_VE_MTurk/MX_fS_HTML.html#241,241,1920,945,1920,1080,1-12-2024,16-27-18,51,VR_target_stimuli/s30_1.3x_2.3_337_BC.png,125,1.3x,2.3,1.5,3577,125,meters,jsons/MX_seq49_1_VE125_flipped.json,230246,448848,32,Man
51,479303,final-intermixed-textured,v2,jsons/MX_seq49_1_VE125_flipped.json,http://54.235.29.9/FacialAge/BNav_EC2/DepthDuration/MX_fS_VE_MTurk/MX_fS_HTML.html#241,241,1920,945,1920,1080,1-12-2024,16-27-18,52,VR_target_stimuli/s16_0.75x_1_217.png,125,0.75x,1.0,1.0,2780,123,meters,jsons/MX_seq49_1_VE125_flipped.json,230246,448848,32,Man
52,479303,final-intermixed-textured,v2,jsons/MX_seq49_1_VE125_flipped.json,http://54.235.29.9/FacialAge/BNav_EC2/DepthDuration/MX_fS_VE_MTurk/MX_fS_HTML.html#241,241,1920,945,1920,1080,1-12-2024,16-27-18,53,catch_stimuli/c5_BC.png,125,,,0.0,2389,124,meters,jsons/MX_seq49_1_VE125_flipped.json,230246,448848,32,Man
53,479303,final-intermixed-textured,v2,jsons/MX_seq49_1_VE125_flipped.json,http://54.235.29.9/FacialAge/BNav_EC2/DepthDuration/MX_fS_VE_MTurk/MX_fS_HTML.html#241,241,1920,945,1920,1080,1-12-2024,16-27-18,54,VR_target_stimuli/s17_1x_1.8_291_BC.png,125,1x,1.8,1.0,2609,125,meters,jsons/MX_seq49_1_VE125_flipped.json,230246,448848,32,Man
54,479303,final-intermixed-textured,v2,jsons/MX_seq49_1_VE125_flipped.json,http://54.235.29.9/FacialAge/BNav_EC2/DepthDuration/MX_fS_VE_MTurk/MX_fS_HTML.html#241,241,1920,945,1920,1080,1-12-2024,16-27-18,55,VR_target_stimuli/s5_0.75x_4_375_BC.png,125,0.75x,4.0,2.5,2655,125,meters,jsons/MX_seq49_1_VE125_flipped.json,230246,448848,32,Man
55,479303,final-intermixed-textured,v2,jsons/MX_seq49_1_VE125_flipped.json,http://54.235.29.9/FacialAge/BNav_EC2/DepthDuration/MX_fS_VE_MTurk/MX_fS_HTML.html#241,241,1920,945,1920,1080,1-12-2024,16-27-18,56,VR_target_stimuli/s37_1.3x_3.3_555.png,125,1.3x,3.3,0.5,5516,120,meters,jsons/MX_seq49_1_VE125_flipped.json,230246,448848,32,Man
56,479303,final-intermixed-textured,v2,jsons/MX_seq49_1_VE125_flipped.json,http://54.235.29.9/FacialAge/BNav_EC2/DepthDuration/MX_fS_VE_MTurk/MX_fS_HTML.html#241,241,1920,945,1920,1080,1-12-2024,16-27-18,57,VR_target_stimuli/s46_1x_2.42_348_BC.png,125,1x,2.42,1.5,4008,125,meters,jsons/MX_seq49_1_VE125_flipped.json,230246,448848,32,Man
57,479303,final-intermixed-textured,v2,jsons/MX_seq49_1_VE125_flipped.json,http://54.235.29.9/FacialAge/BNav_EC2/DepthDuration/MX_fS_VE_MTurk/MX_fS_HTML.html#241,241,1920,945,1920,1080,1-12-2024,16-27-18,58,VR_target_stimuli/s22_1x_4.29_354.png,125,1x,4.29,2.0,3524,130,meters,jsons/MX_seq49_1_VE125_flipped.json,230246,448848,32,Man
58,479303,final-intermixed-textured,v2,jsons/MX_seq49_1_VE125_flipped.json,http://54.235.29.9/FacialAge/BNav_EC2/DepthDuration/MX_fS_VE_MTurk/MX_fS_HTML.html#241,241,1920,945,1920,1080,1-12-2024,16-27-18,59,VR_target_stimuli/s42_0.75x_3.2_301.png,125,0.75x,3.2,2.5,2517,122,meters,jsons/MX_seq49_1_VE125_flipped.json,230246,448848,32,Man
59,479303,final-intermixed-textured,v2,jsons/MX_seq49_1_VE125_flipped.json,http://54.235.29.9/FacialAge/BNav_EC2/DepthDuration/MX_fS_VE_MTurk/MX_fS_HTML.html#241,241,1920,945,1920,1080,1-12-2024,16-27-18,60,VR_target_stimuli/s25_1.3x_1.4_299_BC.png,125,1.3x,1.4,1.2,4046,124,meters,jsons/MX_seq49_1_VE125_flipped.json,230246,448848,32,Man
