,subjID,experimentName,versionName,sequenceName,url,selected_row,windowWidth,windowHeight,screenWidth,screenHeight,startDate,startTime,trial,stimulus,duration,scale,actual_depth,depth_estimate,trial_RT,log_sceneDuration,unitSelection,seq_filepath,experimentTime,totalTime,age,gender
0,487591,final-intermixed-textured,v2,jsons/MX_seq44_0_VE125_flipped.json,http://54.235.29.9/FacialAge/BNav_EC2/DepthDuration/MX_fS_VE_MTurk/MX_fS_HTML.html#291,291,1536,782,1536,864,1-13-2024,19-42-45,1,VR_target_stimuli/s37_0.75x_3.3_567.png,125,0.75x,3.3,4.0,13480,123,meters,jsons/MX_seq44_0_VE125_flipped.json,287457,456535,25,Man
1,487591,final-intermixed-textured,v2,jsons/MX_seq44_0_VE125_flipped.json,http://54.235.29.9/FacialAge/BNav_EC2/DepthDuration/MX_fS_VE_MTurk/MX_fS_HTML.html#291,291,1536,782,1536,864,1-13-2024,19-42-45,2,VR_target_stimuli/s46_1x_2.42_348_BC.png,125,1x,2.42,2.0,4630,124,meters,jsons/MX_seq44_0_VE125_flipped.json,287457,456535,25,Man
2,487591,final-intermixed-textured,v2,jsons/MX_seq44_0_VE125_flipped.json,http://54.235.29.9/FacialAge/BNav_EC2/DepthDuration/MX_fS_VE_MTurk/MX_fS_HTML.html#291,291,1536,782,1536,864,1-13-2024,19-42-45,3,VR_target_stimuli/s22_1.3x_4.29_364_BC.png,125,1.3x,4.29,6.0,15101,122,meters,jsons/MX_seq44_0_VE125_flipped.json,287457,456535,25,Man
3,487591,final-intermixed-textured,v2,jsons/MX_seq44_0_VE125_flipped.json,http://54.235.29.9/FacialAge/BNav_EC2/DepthDuration/MX_fS_VE_MTurk/MX_fS_HTML.html#291,291,1536,782,1536,864,1-13-2024,19-42-45,4,VR_target_stimuli/s42_1x_3.2_303.png,125,1x,3.2,0.0,2099,124,meters,jsons/MX_seq44_0_VE125_flipped.json,287457,456535,25,Man
4,487591,final-intermixed-textured,v2,jsons/MX_seq44_0_VE125_flipped.json,http://54.235.29.9/FacialAge/BNav_EC2/DepthDuration/MX_fS_VE_MTurk/MX_fS_HTML.html#291,291,1536,782,1536,864,1-13-2024,19-42-45,5,VR_target_stimuli/s25_0.75x_1.4_281_BC.png,125,0.75x,1.4,1.0,5474,123,meters,jsons/MX_seq44_0_VE125_flipped.json,287457,456535,25,Man
5,487591,final-intermixed-textured,v2,jsons/MX_seq44_0_VE125_flipped.json,http://54.235.29.9/FacialAge/BNav_EC2/DepthDuration/MX_fS_VE_MTurk/MX_fS_HTML.html#291,291,1536,782,1536,864,1-13-2024,19-42-45,6,VR_target_stimuli/s50_1.3x_4.53_518.png,125,1.3x,4.53,3.0,3681,123,meters,jsons/MX_seq44_0_VE125_flipped.json,287457,456535,25,Man
6,487591,final-intermixed-textured,v2,jsons/MX_seq44_0_VE125_flipped.json,http://54.235.29.9/FacialAge/BNav_EC2/DepthDuration/MX_fS_VE_MTurk/MX_fS_HTML.html#291,291,1536,782,1536,864,1-13-2024,19-42-45,7,catch_stimuli/c0_BC.png,125,,,0.0,2696,121,meters,jsons/MX_seq44_0_VE125_flipped.json,287457,456535,25,Man
7,487591,final-intermixed-textured,v2,jsons/MX_seq44_0_VE125_flipped.json,http://54.235.29.9/FacialAge/BNav_EC2/DepthDuration/MX_fS_VE_MTurk/MX_fS_HTML.html#291,291,1536,782,1536,864,1-13-2024,19-42-45,8,VR_target_stimuli/s53_1.3x_1.6_355_BC.png,125,1.3x,1.6,0.5,5279,124,meters,jsons/MX_seq44_0_VE125_flipped.json,287457,456535,25,Man
8,487591,final-intermixed-textured,v2,jsons/MX_seq44_0_VE125_flipped.json,http://54.235.29.9/FacialAge/BNav_EC2/DepthDuration/MX_fS_VE_MTurk/MX_fS_HTML.html#291,291,1536,782,1536,864,1-13-2024,19-42-45,9,VR_target_stimuli/s38_1x_3.55_353_BC.png,125,1x,3.55,4.0,10177,122,meters,jsons/MX_seq44_0_VE125_flipped.json,287457,456535,25,Man
9,487591,final-intermixed-textured,v2,jsons/MX_seq44_0_VE125_flipped.json,http://54.235.29.9/FacialAge/BNav_EC2/DepthDuration/MX_fS_VE_MTurk/MX_fS_HTML.html#291,291,1536,782,1536,864,1-13-2024,19-42-45,10,VR_target_stimuli/s9_0.75x_1.2_260.png,125,0.75x,1.2,0.5,7506,125,meters,jsons/MX_seq44_0_VE125_flipped.json,287457,456535,25,Man
10,487591,final-intermixed-textured,v2,jsons/MX_seq44_0_VE125_flipped.json,http://54.235.29.9/FacialAge/BNav_EC2/DepthDuration/MX_fS_VE_MTurk/MX_fS_HTML.html#291,291,1536,782,1536,864,1-13-2024,19-42-45,11,VR_target_stimuli/s44_1x_4.4_317.png,125,1x,4.4,5.0,6578,125,meters,jsons/MX_seq44_0_VE125_flipped.json,287457,456535,25,Man
11,487591,final-intermixed-textured,v2,jsons/MX_seq44_0_VE125_flipped.json,http://54.235.29.9/FacialAge/BNav_EC2/DepthDuration/MX_fS_VE_MTurk/MX_fS_HTML.html#291,291,1536,782,1536,864,1-13-2024,19-42-45,12,VR_target_stimuli/s3_1.3x_5_390.png,125,1.3x,5.0,4.0,3404,125,meters,jsons/MX_seq44_0_VE125_flipped.json,287457,456535,25,Man
12,487591,final-intermixed-textured,v2,jsons/MX_seq44_0_VE125_flipped.json,http://54.235.29.9/FacialAge/BNav_EC2/DepthDuration/MX_fS_VE_MTurk/MX_fS_HTML.html#291,291,1536,782,1536,864,1-13-2024,19-42-45,13,VR_target_stimuli/s1_0.75x_1.7_265_BC.png,125,0.75x,1.7,1.0,3211,124,meters,jsons/MX_seq44_0_VE125_flipped.json,287457,456535,25,Man
13,487591,final-intermixed-textured,v2,jsons/MX_seq44_0_VE125_flipped.json,http://54.235.29.9/FacialAge/BNav_EC2/DepthDuration/MX_fS_VE_MTurk/MX_fS_HTML.html#291,291,1536,782,1536,864,1-13-2024,19-42-45,14,VR_target_stimuli/s11_1.3x_5_363_BC.png,125,1.3x,5.0,4.0,3334,124,meters,jsons/MX_seq44_0_VE125_flipped.json,287457,456535,25,Man
14,487591,final-intermixed-textured,v2,jsons/MX_seq44_0_VE125_flipped.json,http://54.235.29.9/FacialAge/BNav_EC2/DepthDuration/MX_fS_VE_MTurk/MX_fS_HTML.html#291,291,1536,782,1536,864,1-13-2024,19-42-45,15,VR_target_stimuli/s2_1x_2.7_390.png,125,1x,2.7,1.0,2761,123,meters,jsons/MX_seq44_0_VE125_flipped.json,287457,456535,25,Man
15,487591,final-intermixed-textured,v2,jsons/MX_seq44_0_VE125_flipped.json,http://54.235.29.9/FacialAge/BNav_EC2/DepthDuration/MX_fS_VE_MTurk/MX_fS_HTML.html#291,291,1536,782,1536,864,1-13-2024,19-42-45,16,VR_target_stimuli/s6_0.75x_2.1_290_BC.png,125,0.75x,2.1,1.5,4011,123,meters,jsons/MX_seq44_0_VE125_flipped.json,287457,456535,25,Man
16,487591,final-intermixed-textured,v2,jsons/MX_seq44_0_VE125_flipped.json,http://54.235.29.9/FacialAge/BNav_EC2/DepthDuration/MX_fS_VE_MTurk/MX_fS_HTML.html#291,291,1536,782,1536,864,1-13-2024,19-42-45,17,catch_stimuli/c1_BC.png,125,,,0.0,2027,122,meters,jsons/MX_seq44_0_VE125_flipped.json,287457,456535,25,Man
17,487591,final-intermixed-textured,v2,jsons/MX_seq44_0_VE125_flipped.json,http://54.235.29.9/FacialAge/BNav_EC2/DepthDuration/MX_fS_VE_MTurk/MX_fS_HTML.html#291,291,1536,782,1536,864,1-13-2024,19-42-45,18,VR_target_stimuli/s0_0.75x_2.6_345.png,125,0.75x,2.6,2.0,4064,126,meters,jsons/MX_seq44_0_VE125_flipped.json,287457,456535,25,Man
18,487591,final-intermixed-textured,v2,jsons/MX_seq44_0_VE125_flipped.json,http://54.235.29.9/FacialAge/BNav_EC2/DepthDuration/MX_fS_VE_MTurk/MX_fS_HTML.html#291,291,1536,782,1536,864,1-13-2024,19-42-45,19,VR_target_stimuli/s34_1.3x_2.8_294.png,125,1.3x,2.8,3.0,4016,123,meters,jsons/MX_seq44_0_VE125_flipped.json,287457,456535,25,Man
19,487591,final-intermixed-textured,v2,jsons/MX_seq44_0_VE125_flipped.json,http://54.235.29.9/FacialAge/BNav_EC2/DepthDuration/MX_fS_VE_MTurk/MX_fS_HTML.html#291,291,1536,782,1536,864,1-13-2024,19-42-45,20,VR_target_stimuli/s13_1x_2.4_310_BC.png,125,1x,2.4,2.0,3118,124,meters,jsons/MX_seq44_0_VE125_flipped.json,287457,456535,25,Man
20,487591,final-intermixed-textured,v2,jsons/MX_seq44_0_VE125_flipped.json,http://54.235.29.9/FacialAge/BNav_EC2/DepthDuration/MX_fS_VE_MTurk/MX_fS_HTML.html#291,291,1536,782,1536,864,1-13-2024,19-42-45,21,VR_target_stimuli/s14_1.3x_3.83_359.png,125,1.3x,3.83,5.0,4702,126,meters,jsons/MX_seq44_0_VE125_flipped.json,287457,456535,25,Man
21,487591,final-intermixed-textured,v2,jsons/MX_seq44_0_VE125_flipped.json,http://54.235.29.9/FacialAge/BNav_EC2/DepthDuration/MX_fS_VE_MTurk/MX_fS_HTML.html#291,291,1536,782,1536,864,1-13-2024,19-42-45,22,VR_target_stimuli/s47_0.75x_3.45_366_BC.png,125,0.75x,3.45,4.0,4059,123,meters,jsons/MX_seq44_0_VE125_flipped.json,287457,456535,25,Man
22,487591,final-intermixed-textured,v2,jsons/MX_seq44_0_VE125_flipped.json,http://54.235.29.9/FacialAge/BNav_EC2/DepthDuration/MX_fS_VE_MTurk/MX_fS_HTML.html#291,291,1536,782,1536,864,1-13-2024,19-42-45,23,VR_target_stimuli/s29_1x_1.3_250_BC.png,125,1x,1.3,1.0,2293,125,meters,jsons/MX_seq44_0_VE125_flipped.json,287457,456535,25,Man
23,487591,final-intermixed-textured,v2,jsons/MX_seq44_0_VE125_flipped.json,http://54.235.29.9/FacialAge/BNav_EC2/DepthDuration/MX_fS_VE_MTurk/MX_fS_HTML.html#291,291,1536,782,1536,864,1-13-2024,19-42-45,24,VR_target_stimuli/s28_0.75x_3.2_357.png,125,0.75x,3.2,2.0,2231,123,meters,jsons/MX_seq44_0_VE125_flipped.json,287457,456535,25,Man
24,487591,final-intermixed-textured,v2,jsons/MX_seq44_0_VE125_flipped.json,http://54.235.29.9/FacialAge/BNav_EC2/DepthDuration/MX_fS_VE_MTurk/MX_fS_HTML.html#291,291,1536,782,1536,864,1-13-2024,19-42-45,25,VR_target_stimuli/s48_1.3x_2.55_255_BC.png,125,1.3x,2.55,2.0,2682,122,meters,jsons/MX_seq44_0_VE125_flipped.json,287457,456535,25,Man
25,487591,final-intermixed-textured,v2,jsons/MX_seq44_0_VE125_flipped.json,http://54.235.29.9/FacialAge/BNav_EC2/DepthDuration/MX_fS_VE_MTurk/MX_fS_HTML.html#291,291,1536,782,1536,864,1-13-2024,19-42-45,26,catch_stimuli/c2_BC.png,125,,,0.0,1735,122,meters,jsons/MX_seq44_0_VE125_flipped.json,287457,456535,25,Man
26,487591,final-intermixed-textured,v2,jsons/MX_seq44_0_VE125_flipped.json,http://54.235.29.9/FacialAge/BNav_EC2/DepthDuration/MX_fS_VE_MTurk/MX_fS_HTML.html#291,291,1536,782,1536,864,1-13-2024,19-42-45,27,VR_target_stimuli/s19_1x_1.21_263.png,125,1x,1.21,0.5,3464,123,meters,jsons/MX_seq44_0_VE125_flipped.json,287457,456535,25,Man
27,487591,final-intermixed-textured,v2,jsons/MX_seq44_0_VE125_flipped.json,http://54.235.29.9/FacialAge/BNav_EC2/DepthDuration/MX_fS_VE_MTurk/MX_fS_HTML.html#291,291,1536,782,1536,864,1-13-2024,19-42-45,28,VR_target_stimuli/s21_1x_4.22_379.png,125,1x,4.22,6.0,3467,124,meters,jsons/MX_seq44_0_VE125_flipped.json,287457,456535,25,Man
28,487591,final-intermixed-textured,v2,jsons/MX_seq44_0_VE125_flipped.json,http://54.235.29.9/FacialAge/BNav_EC2/DepthDuration/MX_fS_VE_MTurk/MX_fS_HTML.html#291,291,1536,782,1536,864,1-13-2024,19-42-45,29,VR_target_stimuli/s8_0.75x_3.1_325.png,125,0.75x,3.1,4.0,4004,123,meters,jsons/MX_seq44_0_VE125_flipped.json,287457,456535,25,Man
29,487591,final-intermixed-textured,v2,jsons/MX_seq44_0_VE125_flipped.json,http://54.235.29.9/FacialAge/BNav_EC2/DepthDuration/MX_fS_VE_MTurk/MX_fS_HTML.html#291,291,1536,782,1536,864,1-13-2024,19-42-45,30,VR_target_stimuli/s27_1.3x_1.76_250.png,125,1.3x,1.76,2.0,2256,125,meters,jsons/MX_seq44_0_VE125_flipped.json,287457,456535,25,Man
30,487591,final-intermixed-textured,v2,jsons/MX_seq44_0_VE125_flipped.json,http://54.235.29.9/FacialAge/BNav_EC2/DepthDuration/MX_fS_VE_MTurk/MX_fS_HTML.html#291,291,1536,782,1536,864,1-13-2024,19-42-45,31,VR_target_stimuli/s15_1x_4.2_390_BC.png,125,1x,4.2,3.0,3482,124,meters,jsons/MX_seq44_0_VE125_flipped.json,287457,456535,25,Man
31,487591,final-intermixed-textured,v2,jsons/MX_seq44_0_VE125_flipped.json,http://54.235.29.9/FacialAge/BNav_EC2/DepthDuration/MX_fS_VE_MTurk/MX_fS_HTML.html#291,291,1536,782,1536,864,1-13-2024,19-42-45,32,VR_target_stimuli/s4_1.3x_1.4_328_BC.png,125,1.3x,1.4,0.5,3019,124,meters,jsons/MX_seq44_0_VE125_flipped.json,287457,456535,25,Man
32,487591,final-intermixed-textured,v2,jsons/MX_seq44_0_VE125_flipped.json,http://54.235.29.9/FacialAge/BNav_EC2/DepthDuration/MX_fS_VE_MTurk/MX_fS_HTML.html#291,291,1536,782,1536,864,1-13-2024,19-42-45,33,VR_target_stimuli/s35_0.75x_2_323_BC.png,125,0.75x,2.0,1.5,6121,123,meters,jsons/MX_seq44_0_VE125_flipped.json,287457,456535,25,Man
33,487591,final-intermixed-textured,v2,jsons/MX_seq44_0_VE125_flipped.json,http://54.235.29.9/FacialAge/BNav_EC2/DepthDuration/MX_fS_VE_MTurk/MX_fS_HTML.html#291,291,1536,782,1536,864,1-13-2024,19-42-45,34,catch_stimuli/c3_BC.png,125,,,0.0,3291,124,meters,jsons/MX_seq44_0_VE125_flipped.json,287457,456535,25,Man
34,487591,final-intermixed-textured,v2,jsons/MX_seq44_0_VE125_flipped.json,http://54.235.29.9/FacialAge/BNav_EC2/DepthDuration/MX_fS_VE_MTurk/MX_fS_HTML.html#291,291,1536,782,1536,864,1-13-2024,19-42-45,35,VR_target_stimuli/s49_1.3x_4.67_354_BC.png,125,1.3x,4.67,3.0,6343,126,meters,jsons/MX_seq44_0_VE125_flipped.json,287457,456535,25,Man
35,487591,final-intermixed-textured,v2,jsons/MX_seq44_0_VE125_flipped.json,http://54.235.29.9/FacialAge/BNav_EC2/DepthDuration/MX_fS_VE_MTurk/MX_fS_HTML.html#291,291,1536,782,1536,864,1-13-2024,19-42-45,36,VR_target_stimuli/s7_1x_1.5_255_BC.png,125,1x,1.5,1.5,3459,123,meters,jsons/MX_seq44_0_VE125_flipped.json,287457,456535,25,Man
36,487591,final-intermixed-textured,v2,jsons/MX_seq44_0_VE125_flipped.json,http://54.235.29.9/FacialAge/BNav_EC2/DepthDuration/MX_fS_VE_MTurk/MX_fS_HTML.html#291,291,1536,782,1536,864,1-13-2024,19-42-45,37,VR_target_stimuli/s20_0.75x_4.99_390.png,125,0.75x,4.99,5.0,4973,123,meters,jsons/MX_seq44_0_VE125_flipped.json,287457,456535,25,Man
37,487591,final-intermixed-textured,v2,jsons/MX_seq44_0_VE125_flipped.json,http://54.235.29.9/FacialAge/BNav_EC2/DepthDuration/MX_fS_VE_MTurk/MX_fS_HTML.html#291,291,1536,782,1536,864,1-13-2024,19-42-45,38,VR_target_stimuli/s31_0.75x_4.96_329_BC.png,125,0.75x,4.96,6.0,6448,113,meters,jsons/MX_seq44_0_VE125_flipped.json,287457,456535,25,Man
38,487591,final-intermixed-textured,v2,jsons/MX_seq44_0_VE125_flipped.json,http://54.235.29.9/FacialAge/BNav_EC2/DepthDuration/MX_fS_VE_MTurk/MX_fS_HTML.html#291,291,1536,782,1536,864,1-13-2024,19-42-45,39,VR_target_stimuli/s33_1.3x_3.1_378.png,125,1.3x,3.1,2.0,2306,123,meters,jsons/MX_seq44_0_VE125_flipped.json,287457,456535,25,Man
39,487591,final-intermixed-textured,v2,jsons/MX_seq44_0_VE125_flipped.json,http://54.235.29.9/FacialAge/BNav_EC2/DepthDuration/MX_fS_VE_MTurk/MX_fS_HTML.html#291,291,1536,782,1536,864,1-13-2024,19-42-45,40,VR_target_stimuli/s52_1x_3.2_275.png,125,1x,3.2,3.0,3824,124,meters,jsons/MX_seq44_0_VE125_flipped.json,287457,456535,25,Man
40,487591,final-intermixed-textured,v2,jsons/MX_seq44_0_VE125_flipped.json,http://54.235.29.9/FacialAge/BNav_EC2/DepthDuration/MX_fS_VE_MTurk/MX_fS_HTML.html#291,291,1536,782,1536,864,1-13-2024,19-42-45,41,VR_target_stimuli/s32_1.3x_1.5_224.png,125,1.3x,1.5,3.0,3148,125,meters,jsons/MX_seq44_0_VE125_flipped.json,287457,456535,25,Man
41,487591,final-intermixed-textured,v2,jsons/MX_seq44_0_VE125_flipped.json,http://54.235.29.9/FacialAge/BNav_EC2/DepthDuration/MX_fS_VE_MTurk/MX_fS_HTML.html#291,291,1536,782,1536,864,1-13-2024,19-42-45,42,VR_target_stimuli/s18_0.75x_2.25_341.png,125,0.75x,2.25,1.5,3302,125,meters,jsons/MX_seq44_0_VE125_flipped.json,287457,456535,25,Man
42,487591,final-intermixed-textured,v2,jsons/MX_seq44_0_VE125_flipped.json,http://54.235.29.9/FacialAge/BNav_EC2/DepthDuration/MX_fS_VE_MTurk/MX_fS_HTML.html#291,291,1536,782,1536,864,1-13-2024,19-42-45,43,VR_target_stimuli/s39_1x_1_207_BC.png,125,1x,1.0,0.5,4651,124,meters,jsons/MX_seq44_0_VE125_flipped.json,287457,456535,25,Man
43,487591,final-intermixed-textured,v2,jsons/MX_seq44_0_VE125_flipped.json,http://54.235.29.9/FacialAge/BNav_EC2/DepthDuration/MX_fS_VE_MTurk/MX_fS_HTML.html#291,291,1536,782,1536,864,1-13-2024,19-42-45,44,VR_target_stimuli/s51_0.75x_3.64_460_BC.png,125,0.75x,3.64,2.0,2841,123,meters,jsons/MX_seq44_0_VE125_flipped.json,287457,456535,25,Man
44,487591,final-intermixed-textured,v2,jsons/MX_seq44_0_VE125_flipped.json,http://54.235.29.9/FacialAge/BNav_EC2/DepthDuration/MX_fS_VE_MTurk/MX_fS_HTML.html#291,291,1536,782,1536,864,1-13-2024,19-42-45,45,catch_stimuli/c4_BC.png,125,,,0.0,2014,125,meters,jsons/MX_seq44_0_VE125_flipped.json,287457,456535,25,Man
45,487591,final-intermixed-textured,v2,jsons/MX_seq44_0_VE125_flipped.json,http://54.235.29.9/FacialAge/BNav_EC2/DepthDuration/MX_fS_VE_MTurk/MX_fS_HTML.html#291,291,1536,782,1536,864,1-13-2024,19-42-45,46,VR_target_stimuli/s43_1.3x_2.2_363_BC.png,125,1.3x,2.2,1.5,3724,140,meters,jsons/MX_seq44_0_VE125_flipped.json,287457,456535,25,Man
46,487591,final-intermixed-textured,v2,jsons/MX_seq44_0_VE125_flipped.json,http://54.235.29.9/FacialAge/BNav_EC2/DepthDuration/MX_fS_VE_MTurk/MX_fS_HTML.html#291,291,1536,782,1536,864,1-13-2024,19-42-45,47,VR_target_stimuli/s24_1x_3.3_349.png,125,1x,3.3,2.0,3705,123,meters,jsons/MX_seq44_0_VE125_flipped.json,287457,456535,25,Man
47,487591,final-intermixed-textured,v2,jsons/MX_seq44_0_VE125_flipped.json,http://54.235.29.9/FacialAge/BNav_EC2/DepthDuration/MX_fS_VE_MTurk/MX_fS_HTML.html#291,291,1536,782,1536,864,1-13-2024,19-42-45,48,VR_target_stimuli/s10_1x_2.7_324.png,125,1x,2.7,2.5,6142,124,meters,jsons/MX_seq44_0_VE125_flipped.json,287457,456535,25,Man
48,487591,final-intermixed-textured,v2,jsons/MX_seq44_0_VE125_flipped.json,http://54.235.29.9/FacialAge/BNav_EC2/DepthDuration/MX_fS_VE_MTurk/MX_fS_HTML.html#291,291,1536,782,1536,864,1-13-2024,19-42-45,49,VR_target_stimuli/s36_0.75x_4.1_407.png,125,0.75x,4.1,3.4,5899,124,meters,jsons/MX_seq44_0_VE125_flipped.json,287457,456535,25,Man
49,487591,final-intermixed-textured,v2,jsons/MX_seq44_0_VE125_flipped.json,http://54.235.29.9/FacialAge/BNav_EC2/DepthDuration/MX_fS_VE_MTurk/MX_fS_HTML.html#291,291,1536,782,1536,864,1-13-2024,19-42-45,50,VR_target_stimuli/s40_1.3x_1.2_332_BC.png,125,1.3x,1.2,1.0,3345,124,meters,jsons/MX_seq44_0_VE125_flipped.json,287457,456535,25,Man
50,487591,final-intermixed-textured,v2,jsons/MX_seq44_0_VE125_flipped.json,http://54.235.29.9/FacialAge/BNav_EC2/DepthDuration/MX_fS_VE_MTurk/MX_fS_HTML.html#291,291,1536,782,1536,864,1-13-2024,19-42-45,51,VR_target_stimuli/s41_0.75x_2.1_281_BC.png,125,0.75x,2.1,2.0,6661,123,meters,jsons/MX_seq44_0_VE125_flipped.json,287457,456535,25,Man
51,487591,final-intermixed-textured,v2,jsons/MX_seq44_0_VE125_flipped.json,http://54.235.29.9/FacialAge/BNav_EC2/DepthDuration/MX_fS_VE_MTurk/MX_fS_HTML.html#291,291,1536,782,1536,864,1-13-2024,19-42-45,52,VR_target_stimuli/s45_1x_3.5_368_BC.png,125,1x,3.5,3.0,1799,123,meters,jsons/MX_seq44_0_VE125_flipped.json,287457,456535,25,Man
52,487591,final-intermixed-textured,v2,jsons/MX_seq44_0_VE125_flipped.json,http://54.235.29.9/FacialAge/BNav_EC2/DepthDuration/MX_fS_VE_MTurk/MX_fS_HTML.html#291,291,1536,782,1536,864,1-13-2024,19-42-45,53,catch_stimuli/c5_BC.png,125,,,0.0,1779,124,meters,jsons/MX_seq44_0_VE125_flipped.json,287457,456535,25,Man
53,487591,final-intermixed-textured,v2,jsons/MX_seq44_0_VE125_flipped.json,http://54.235.29.9/FacialAge/BNav_EC2/DepthDuration/MX_fS_VE_MTurk/MX_fS_HTML.html#291,291,1536,782,1536,864,1-13-2024,19-42-45,54,VR_target_stimuli/s23_1.3x_3.65_354.png,125,1.3x,3.65,2.5,11251,124,meters,jsons/MX_seq44_0_VE125_flipped.json,287457,456535,25,Man
54,487591,final-intermixed-textured,v2,jsons/MX_seq44_0_VE125_flipped.json,http://54.235.29.9/FacialAge/BNav_EC2/DepthDuration/MX_fS_VE_MTurk/MX_fS_HTML.html#291,291,1536,782,1536,864,1-13-2024,19-42-45,55,VR_target_stimuli/s26_1x_4_433_BC.png,125,1x,4.0,3.0,3345,124,meters,jsons/MX_seq44_0_VE125_flipped.json,287457,456535,25,Man
55,487591,final-intermixed-textured,v2,jsons/MX_seq44_0_VE125_flipped.json,http://54.235.29.9/FacialAge/BNav_EC2/DepthDuration/MX_fS_VE_MTurk/MX_fS_HTML.html#291,291,1536,782,1536,864,1-13-2024,19-42-45,56,VR_target_stimuli/s12_0.75x_3.1_364_BC.png,125,0.75x,3.1,2.0,2130,126,meters,jsons/MX_seq44_0_VE125_flipped.json,287457,456535,25,Man
56,487591,final-intermixed-textured,v2,jsons/MX_seq44_0_VE125_flipped.json,http://54.235.29.9/FacialAge/BNav_EC2/DepthDuration/MX_fS_VE_MTurk/MX_fS_HTML.html#291,291,1536,782,1536,864,1-13-2024,19-42-45,57,VR_target_stimuli/s30_1.3x_2.3_337.png,125,1.3x,2.3,2.0,1835,124,meters,jsons/MX_seq44_0_VE125_flipped.json,287457,456535,25,Man
57,487591,final-intermixed-textured,v2,jsons/MX_seq44_0_VE125_flipped.json,http://54.235.29.9/FacialAge/BNav_EC2/DepthDuration/MX_fS_VE_MTurk/MX_fS_HTML.html#291,291,1536,782,1536,864,1-13-2024,19-42-45,58,VR_target_stimuli/s16_1.3x_1_223_BC.png,125,1.3x,1.0,1.0,2002,122,meters,jsons/MX_seq44_0_VE125_flipped.json,287457,456535,25,Man
58,487591,final-intermixed-textured,v2,jsons/MX_seq44_0_VE125_flipped.json,http://54.235.29.9/FacialAge/BNav_EC2/DepthDuration/MX_fS_VE_MTurk/MX_fS_HTML.html#291,291,1536,782,1536,864,1-13-2024,19-42-45,59,VR_target_stimuli/s17_1x_1.8_291.png,125,1x,1.8,1.5,2774,125,meters,jsons/MX_seq44_0_VE125_flipped.json,287457,456535,25,Man
59,487591,final-intermixed-textured,v2,jsons/MX_seq44_0_VE125_flipped.json,http://54.235.29.9/FacialAge/BNav_EC2/DepthDuration/MX_fS_VE_MTurk/MX_fS_HTML.html#291,291,1536,782,1536,864,1-13-2024,19-42-45,60,VR_target_stimuli/s5_0.75x_4_375.png,125,0.75x,4.0,3.5,3811,122,meters,jsons/MX_seq44_0_VE125_flipped.json,287457,456535,25,Man
