,subjID,experimentName,versionName,sequenceName,url,selected_row,windowWidth,windowHeight,screenWidth,screenHeight,startDate,startTime,trial,stimulus,duration,scale,actual_depth,depth_estimate,trial_RT,log_sceneDuration,unitSelection,seq_filepath,experimentTime,totalTime,age,gender
0,500446,final-intermixed-textured,v2,jsons/MX_seq22_1_VE125_flipped.json,http://54.235.29.9/FacialAge/BNav_EC2/DepthDuration/MX_fS_VE_MTurk/MX_fS_HTML.html#166,166,1226,688,1280,854,1-12-2024,19-15-57,1,VR_target_stimuli/s20_1.3x_4.99_412_BC.png,125,1.3x,4.99,12,16412,129,feet,jsons/MX_seq22_1_VE125_flipped.json,268637,539206,25,Man
1,500446,final-intermixed-textured,v2,jsons/MX_seq22_1_VE125_flipped.json,http://54.235.29.9/FacialAge/BNav_EC2/DepthDuration/MX_fS_VE_MTurk/MX_fS_HTML.html#166,166,1226,688,1280,854,1-12-2024,19-15-57,2,VR_target_stimuli/s31_0.75x_4.96_329.png,125,0.75x,4.96,5,5113,126,feet,jsons/MX_seq22_1_VE125_flipped.json,268637,539206,25,Man
2,500446,final-intermixed-textured,v2,jsons/MX_seq22_1_VE125_flipped.json,http://54.235.29.9/FacialAge/BNav_EC2/DepthDuration/MX_fS_VE_MTurk/MX_fS_HTML.html#166,166,1226,688,1280,854,1-12-2024,19-15-57,3,VR_target_stimuli/s33_1x_3.1_366_BC.png,125,1x,3.1,8,5289,127,feet,jsons/MX_seq22_1_VE125_flipped.json,268637,539206,25,Man
3,500446,final-intermixed-textured,v2,jsons/MX_seq22_1_VE125_flipped.json,http://54.235.29.9/FacialAge/BNav_EC2/DepthDuration/MX_fS_VE_MTurk/MX_fS_HTML.html#166,166,1226,688,1280,854,1-12-2024,19-15-57,4,VR_target_stimuli/s52_0.75x_3.2_270_BC.png,125,0.75x,3.2,11,4049,128,feet,jsons/MX_seq22_1_VE125_flipped.json,268637,539206,25,Man
4,500446,final-intermixed-textured,v2,jsons/MX_seq22_1_VE125_flipped.json,http://54.235.29.9/FacialAge/BNav_EC2/DepthDuration/MX_fS_VE_MTurk/MX_fS_HTML.html#166,166,1226,688,1280,854,1-12-2024,19-15-57,5,VR_target_stimuli/s32_1.3x_1.5_224.png,125,1.3x,1.5,7,7888,131,feet,jsons/MX_seq22_1_VE125_flipped.json,268637,539206,25,Man
5,500446,final-intermixed-textured,v2,jsons/MX_seq22_1_VE125_flipped.json,http://54.235.29.9/FacialAge/BNav_EC2/DepthDuration/MX_fS_VE_MTurk/MX_fS_HTML.html#166,166,1226,688,1280,854,1-12-2024,19-15-57,6,VR_target_stimuli/s18_1x_2.25_353.png,125,1x,2.25,7,3538,136,feet,jsons/MX_seq22_1_VE125_flipped.json,268637,539206,25,Man
6,500446,final-intermixed-textured,v2,jsons/MX_seq22_1_VE125_flipped.json,http://54.235.29.9/FacialAge/BNav_EC2/DepthDuration/MX_fS_VE_MTurk/MX_fS_HTML.html#166,166,1226,688,1280,854,1-12-2024,19-15-57,7,catch_stimuli/c0_BC.png,125,,,0,3799,128,feet,jsons/MX_seq22_1_VE125_flipped.json,268637,539206,25,Man
7,500446,final-intermixed-textured,v2,jsons/MX_seq22_1_VE125_flipped.json,http://54.235.29.9/FacialAge/BNav_EC2/DepthDuration/MX_fS_VE_MTurk/MX_fS_HTML.html#166,166,1226,688,1280,854,1-12-2024,19-15-57,8,VR_target_stimuli/s39_1x_1_207.png,125,1x,1.0,4,3891,129,feet,jsons/MX_seq22_1_VE125_flipped.json,268637,539206,25,Man
8,500446,final-intermixed-textured,v2,jsons/MX_seq22_1_VE125_flipped.json,http://54.235.29.9/FacialAge/BNav_EC2/DepthDuration/MX_fS_VE_MTurk/MX_fS_HTML.html#166,166,1226,688,1280,854,1-12-2024,19-15-57,9,VR_target_stimuli/s51_0.75x_3.64_460_BC.png,125,0.75x,3.64,6,5679,113,feet,jsons/MX_seq22_1_VE125_flipped.json,268637,539206,25,Man
9,500446,final-intermixed-textured,v2,jsons/MX_seq22_1_VE125_flipped.json,http://54.235.29.9/FacialAge/BNav_EC2/DepthDuration/MX_fS_VE_MTurk/MX_fS_HTML.html#166,166,1226,688,1280,854,1-12-2024,19-15-57,10,VR_target_stimuli/s43_1.3x_2.2_363_BC.png,125,1.3x,2.2,7,3075,123,feet,jsons/MX_seq22_1_VE125_flipped.json,268637,539206,25,Man
10,500446,final-intermixed-textured,v2,jsons/MX_seq22_1_VE125_flipped.json,http://54.235.29.9/FacialAge/BNav_EC2/DepthDuration/MX_fS_VE_MTurk/MX_fS_HTML.html#166,166,1226,688,1280,854,1-12-2024,19-15-57,11,VR_target_stimuli/s24_0.75x_3.3_344.png,125,0.75x,3.3,8,3191,128,feet,jsons/MX_seq22_1_VE125_flipped.json,268637,539206,25,Man
11,500446,final-intermixed-textured,v2,jsons/MX_seq22_1_VE125_flipped.json,http://54.235.29.9/FacialAge/BNav_EC2/DepthDuration/MX_fS_VE_MTurk/MX_fS_HTML.html#166,166,1226,688,1280,854,1-12-2024,19-15-57,12,VR_target_stimuli/s10_1x_2.7_324_BC.png,125,1x,2.7,12,3502,119,feet,jsons/MX_seq22_1_VE125_flipped.json,268637,539206,25,Man
12,500446,final-intermixed-textured,v2,jsons/MX_seq22_1_VE125_flipped.json,http://54.235.29.9/FacialAge/BNav_EC2/DepthDuration/MX_fS_VE_MTurk/MX_fS_HTML.html#166,166,1226,688,1280,854,1-12-2024,19-15-57,13,VR_target_stimuli/s36_1.3x_4.1_442.png,125,1.3x,4.1,10,3731,120,feet,jsons/MX_seq22_1_VE125_flipped.json,268637,539206,25,Man
13,500446,final-intermixed-textured,v2,jsons/MX_seq22_1_VE125_flipped.json,http://54.235.29.9/FacialAge/BNav_EC2/DepthDuration/MX_fS_VE_MTurk/MX_fS_HTML.html#166,166,1226,688,1280,854,1-12-2024,19-15-57,14,VR_target_stimuli/s40_1x_1.2_319.png,125,1x,1.2,6,4062,120,feet,jsons/MX_seq22_1_VE125_flipped.json,268637,539206,25,Man
14,500446,final-intermixed-textured,v2,jsons/MX_seq22_1_VE125_flipped.json,http://54.235.29.9/FacialAge/BNav_EC2/DepthDuration/MX_fS_VE_MTurk/MX_fS_HTML.html#166,166,1226,688,1280,854,1-12-2024,19-15-57,15,VR_target_stimuli/s41_0.75x_2.1_281_BC.png,125,0.75x,2.1,4,3706,121,feet,jsons/MX_seq22_1_VE125_flipped.json,268637,539206,25,Man
15,500446,final-intermixed-textured,v2,jsons/MX_seq22_1_VE125_flipped.json,http://54.235.29.9/FacialAge/BNav_EC2/DepthDuration/MX_fS_VE_MTurk/MX_fS_HTML.html#166,166,1226,688,1280,854,1-12-2024,19-15-57,16,VR_target_stimuli/s45_1.3x_3.5_377_BC.png,125,1.3x,3.5,6,3367,132,feet,jsons/MX_seq22_1_VE125_flipped.json,268637,539206,25,Man
16,500446,final-intermixed-textured,v2,jsons/MX_seq22_1_VE125_flipped.json,http://54.235.29.9/FacialAge/BNav_EC2/DepthDuration/MX_fS_VE_MTurk/MX_fS_HTML.html#166,166,1226,688,1280,854,1-12-2024,19-15-57,17,catch_stimuli/c1_BC.png,125,,,0,3191,111,feet,jsons/MX_seq22_1_VE125_flipped.json,268637,539206,25,Man
17,500446,final-intermixed-textured,v2,jsons/MX_seq22_1_VE125_flipped.json,http://54.235.29.9/FacialAge/BNav_EC2/DepthDuration/MX_fS_VE_MTurk/MX_fS_HTML.html#166,166,1226,688,1280,854,1-12-2024,19-15-57,18,VR_target_stimuli/s23_1.3x_3.65_354.png,125,1.3x,3.65,4,3102,132,feet,jsons/MX_seq22_1_VE125_flipped.json,268637,539206,25,Man
18,500446,final-intermixed-textured,v2,jsons/MX_seq22_1_VE125_flipped.json,http://54.235.29.9/FacialAge/BNav_EC2/DepthDuration/MX_fS_VE_MTurk/MX_fS_HTML.html#166,166,1226,688,1280,854,1-12-2024,19-15-57,19,VR_target_stimuli/s26_1x_4_433_BC.png,125,1x,4.0,5,3675,128,feet,jsons/MX_seq22_1_VE125_flipped.json,268637,539206,25,Man
19,500446,final-intermixed-textured,v2,jsons/MX_seq22_1_VE125_flipped.json,http://54.235.29.9/FacialAge/BNav_EC2/DepthDuration/MX_fS_VE_MTurk/MX_fS_HTML.html#166,166,1226,688,1280,854,1-12-2024,19-15-57,20,VR_target_stimuli/s12_0.75x_3.1_364.png,125,0.75x,3.1,8,5959,128,feet,jsons/MX_seq22_1_VE125_flipped.json,268637,539206,25,Man
20,500446,final-intermixed-textured,v2,jsons/MX_seq22_1_VE125_flipped.json,http://54.235.29.9/FacialAge/BNav_EC2/DepthDuration/MX_fS_VE_MTurk/MX_fS_HTML.html#166,166,1226,688,1280,854,1-12-2024,19-15-57,21,VR_target_stimuli/s30_1x_2.3_334_BC.png,125,1x,2.3,7,3301,120,feet,jsons/MX_seq22_1_VE125_flipped.json,268637,539206,25,Man
21,500446,final-intermixed-textured,v2,jsons/MX_seq22_1_VE125_flipped.json,http://54.235.29.9/FacialAge/BNav_EC2/DepthDuration/MX_fS_VE_MTurk/MX_fS_HTML.html#166,166,1226,688,1280,854,1-12-2024,19-15-57,22,VR_target_stimuli/s16_1.3x_1_223.png,125,1.3x,1.0,3,3823,135,feet,jsons/MX_seq22_1_VE125_flipped.json,268637,539206,25,Man
22,500446,final-intermixed-textured,v2,jsons/MX_seq22_1_VE125_flipped.json,http://54.235.29.9/FacialAge/BNav_EC2/DepthDuration/MX_fS_VE_MTurk/MX_fS_HTML.html#166,166,1226,688,1280,854,1-12-2024,19-15-57,23,VR_target_stimuli/s17_0.75x_1.8_285.png,125,0.75x,1.8,4,3466,118,feet,jsons/MX_seq22_1_VE125_flipped.json,268637,539206,25,Man
23,500446,final-intermixed-textured,v2,jsons/MX_seq22_1_VE125_flipped.json,http://54.235.29.9/FacialAge/BNav_EC2/DepthDuration/MX_fS_VE_MTurk/MX_fS_HTML.html#166,166,1226,688,1280,854,1-12-2024,19-15-57,24,VR_target_stimuli/s5_1.3x_4_393_BC.png,125,1.3x,4.0,6,4200,135,feet,jsons/MX_seq22_1_VE125_flipped.json,268637,539206,25,Man
24,500446,final-intermixed-textured,v2,jsons/MX_seq22_1_VE125_flipped.json,http://54.235.29.9/FacialAge/BNav_EC2/DepthDuration/MX_fS_VE_MTurk/MX_fS_HTML.html#166,166,1226,688,1280,854,1-12-2024,19-15-57,25,VR_target_stimuli/s37_1x_3.3_563.png,125,1x,3.3,9,4051,124,feet,jsons/MX_seq22_1_VE125_flipped.json,268637,539206,25,Man
25,500446,final-intermixed-textured,v2,jsons/MX_seq22_1_VE125_flipped.json,http://54.235.29.9/FacialAge/BNav_EC2/DepthDuration/MX_fS_VE_MTurk/MX_fS_HTML.html#166,166,1226,688,1280,854,1-12-2024,19-15-57,26,catch_stimuli/c2_BC.png,125,,,0,4422,126,feet,jsons/MX_seq22_1_VE125_flipped.json,268637,539206,25,Man
26,500446,final-intermixed-textured,v2,jsons/MX_seq22_1_VE125_flipped.json,http://54.235.29.9/FacialAge/BNav_EC2/DepthDuration/MX_fS_VE_MTurk/MX_fS_HTML.html#166,166,1226,688,1280,854,1-12-2024,19-15-57,27,VR_target_stimuli/s46_0.75x_2.42_343_BC.png,125,0.75x,2.42,6,3165,119,feet,jsons/MX_seq22_1_VE125_flipped.json,268637,539206,25,Man
27,500446,final-intermixed-textured,v2,jsons/MX_seq22_1_VE125_flipped.json,http://54.235.29.9/FacialAge/BNav_EC2/DepthDuration/MX_fS_VE_MTurk/MX_fS_HTML.html#166,166,1226,688,1280,854,1-12-2024,19-15-57,28,VR_target_stimuli/s22_0.75x_4.29_348.png,125,0.75x,4.29,4,3489,121,feet,jsons/MX_seq22_1_VE125_flipped.json,268637,539206,25,Man
28,500446,final-intermixed-textured,v2,jsons/MX_seq22_1_VE125_flipped.json,http://54.235.29.9/FacialAge/BNav_EC2/DepthDuration/MX_fS_VE_MTurk/MX_fS_HTML.html#166,166,1226,688,1280,854,1-12-2024,19-15-57,29,VR_target_stimuli/s42_1.3x_3.2_305_BC.png,125,1.3x,3.2,5,2855,123,feet,jsons/MX_seq22_1_VE125_flipped.json,268637,539206,25,Man
29,500446,final-intermixed-textured,v2,jsons/MX_seq22_1_VE125_flipped.json,http://54.235.29.9/FacialAge/BNav_EC2/DepthDuration/MX_fS_VE_MTurk/MX_fS_HTML.html#166,166,1226,688,1280,854,1-12-2024,19-15-57,30,VR_target_stimuli/s25_1x_1.4_290.png,125,1x,1.4,3,5420,127,feet,jsons/MX_seq22_1_VE125_flipped.json,268637,539206,25,Man
30,500446,final-intermixed-textured,v2,jsons/MX_seq22_1_VE125_flipped.json,http://54.235.29.9/FacialAge/BNav_EC2/DepthDuration/MX_fS_VE_MTurk/MX_fS_HTML.html#166,166,1226,688,1280,854,1-12-2024,19-15-57,31,VR_target_stimuli/s50_0.75x_4.53_517_BC.png,125,0.75x,4.53,6,3233,136,feet,jsons/MX_seq22_1_VE125_flipped.json,268637,539206,25,Man
31,500446,final-intermixed-textured,v2,jsons/MX_seq22_1_VE125_flipped.json,http://54.235.29.9/FacialAge/BNav_EC2/DepthDuration/MX_fS_VE_MTurk/MX_fS_HTML.html#166,166,1226,688,1280,854,1-12-2024,19-15-57,32,VR_target_stimuli/s53_1x_1.6_387_BC.png,125,1x,1.6,4,3133,132,feet,jsons/MX_seq22_1_VE125_flipped.json,268637,539206,25,Man
32,500446,final-intermixed-textured,v2,jsons/MX_seq22_1_VE125_flipped.json,http://54.235.29.9/FacialAge/BNav_EC2/DepthDuration/MX_fS_VE_MTurk/MX_fS_HTML.html#166,166,1226,688,1280,854,1-12-2024,19-15-57,33,VR_target_stimuli/s38_1.3x_3.55_358.png,125,1.3x,3.55,10,3887,130,feet,jsons/MX_seq22_1_VE125_flipped.json,268637,539206,25,Man
33,500446,final-intermixed-textured,v2,jsons/MX_seq22_1_VE125_flipped.json,http://54.235.29.9/FacialAge/BNav_EC2/DepthDuration/MX_fS_VE_MTurk/MX_fS_HTML.html#166,166,1226,688,1280,854,1-12-2024,19-15-57,34,catch_stimuli/c3_BC.png,125,,,0,3209,124,feet,jsons/MX_seq22_1_VE125_flipped.json,268637,539206,25,Man
34,500446,final-intermixed-textured,v2,jsons/MX_seq22_1_VE125_flipped.json,http://54.235.29.9/FacialAge/BNav_EC2/DepthDuration/MX_fS_VE_MTurk/MX_fS_HTML.html#166,166,1226,688,1280,854,1-12-2024,19-15-57,35,VR_target_stimuli/s9_1x_1.2_263_BC.png,125,1x,1.2,5,5602,116,feet,jsons/MX_seq22_1_VE125_flipped.json,268637,539206,25,Man
35,500446,final-intermixed-textured,v2,jsons/MX_seq22_1_VE125_flipped.json,http://54.235.29.9/FacialAge/BNav_EC2/DepthDuration/MX_fS_VE_MTurk/MX_fS_HTML.html#166,166,1226,688,1280,854,1-12-2024,19-15-57,36,VR_target_stimuli/s44_0.75x_4.4_314_BC.png,125,0.75x,4.4,6,3119,128,feet,jsons/MX_seq22_1_VE125_flipped.json,268637,539206,25,Man
36,500446,final-intermixed-textured,v2,jsons/MX_seq22_1_VE125_flipped.json,http://54.235.29.9/FacialAge/BNav_EC2/DepthDuration/MX_fS_VE_MTurk/MX_fS_HTML.html#166,166,1226,688,1280,854,1-12-2024,19-15-57,37,VR_target_stimuli/s3_1.3x_5_390.png,125,1.3x,5.0,7,2969,122,feet,jsons/MX_seq22_1_VE125_flipped.json,268637,539206,25,Man
37,500446,final-intermixed-textured,v2,jsons/MX_seq22_1_VE125_flipped.json,http://54.235.29.9/FacialAge/BNav_EC2/DepthDuration/MX_fS_VE_MTurk/MX_fS_HTML.html#166,166,1226,688,1280,854,1-12-2024,19-15-57,38,VR_target_stimuli/s1_1.3x_1.7_261_BC.png,125,1.3x,1.7,5,3358,120,feet,jsons/MX_seq22_1_VE125_flipped.json,268637,539206,25,Man
38,500446,final-intermixed-textured,v2,jsons/MX_seq22_1_VE125_flipped.json,http://54.235.29.9/FacialAge/BNav_EC2/DepthDuration/MX_fS_VE_MTurk/MX_fS_HTML.html#166,166,1226,688,1280,854,1-12-2024,19-15-57,39,VR_target_stimuli/s11_1x_5_361.png,125,1x,5.0,4,3344,131,feet,jsons/MX_seq22_1_VE125_flipped.json,268637,539206,25,Man
39,500446,final-intermixed-textured,v2,jsons/MX_seq22_1_VE125_flipped.json,http://54.235.29.9/FacialAge/BNav_EC2/DepthDuration/MX_fS_VE_MTurk/MX_fS_HTML.html#166,166,1226,688,1280,854,1-12-2024,19-15-57,40,VR_target_stimuli/s2_0.75x_2.7_384.png,125,0.75x,2.7,5,3282,128,feet,jsons/MX_seq22_1_VE125_flipped.json,268637,539206,25,Man
40,500446,final-intermixed-textured,v2,jsons/MX_seq22_1_VE125_flipped.json,http://54.235.29.9/FacialAge/BNav_EC2/DepthDuration/MX_fS_VE_MTurk/MX_fS_HTML.html#166,166,1226,688,1280,854,1-12-2024,19-15-57,41,VR_target_stimuli/s6_1x_2.1_293.png,125,1x,2.1,6,5055,136,feet,jsons/MX_seq22_1_VE125_flipped.json,268637,539206,25,Man
41,500446,final-intermixed-textured,v2,jsons/MX_seq22_1_VE125_flipped.json,http://54.235.29.9/FacialAge/BNav_EC2/DepthDuration/MX_fS_VE_MTurk/MX_fS_HTML.html#166,166,1226,688,1280,854,1-12-2024,19-15-57,42,VR_target_stimuli/s0_1.3x_2.6_356.png,125,1.3x,2.6,4,2792,133,feet,jsons/MX_seq22_1_VE125_flipped.json,268637,539206,25,Man
42,500446,final-intermixed-textured,v2,jsons/MX_seq22_1_VE125_flipped.json,http://54.235.29.9/FacialAge/BNav_EC2/DepthDuration/MX_fS_VE_MTurk/MX_fS_HTML.html#166,166,1226,688,1280,854,1-12-2024,19-15-57,43,VR_target_stimuli/s34_0.75x_2.8_269.png,125,0.75x,2.8,3,3097,117,feet,jsons/MX_seq22_1_VE125_flipped.json,268637,539206,25,Man
43,500446,final-intermixed-textured,v2,jsons/MX_seq22_1_VE125_flipped.json,http://54.235.29.9/FacialAge/BNav_EC2/DepthDuration/MX_fS_VE_MTurk/MX_fS_HTML.html#166,166,1226,688,1280,854,1-12-2024,19-15-57,44,VR_target_stimuli/s13_1.3x_2.4_313_BC.png,125,1.3x,2.4,3,3272,126,feet,jsons/MX_seq22_1_VE125_flipped.json,268637,539206,25,Man
44,500446,final-intermixed-textured,v2,jsons/MX_seq22_1_VE125_flipped.json,http://54.235.29.9/FacialAge/BNav_EC2/DepthDuration/MX_fS_VE_MTurk/MX_fS_HTML.html#166,166,1226,688,1280,854,1-12-2024,19-15-57,45,catch_stimuli/c4_BC.png,125,,,0,3544,114,feet,jsons/MX_seq22_1_VE125_flipped.json,268637,539206,25,Man
45,500446,final-intermixed-textured,v2,jsons/MX_seq22_1_VE125_flipped.json,http://54.235.29.9/FacialAge/BNav_EC2/DepthDuration/MX_fS_VE_MTurk/MX_fS_HTML.html#166,166,1226,688,1280,854,1-12-2024,19-15-57,46,VR_target_stimuli/s14_1x_ 3.83_357_BC.png,125,1x,3.83,7,3620,128,feet,jsons/MX_seq22_1_VE125_flipped.json,268637,539206,25,Man
46,500446,final-intermixed-textured,v2,jsons/MX_seq22_1_VE125_flipped.json,http://54.235.29.9/FacialAge/BNav_EC2/DepthDuration/MX_fS_VE_MTurk/MX_fS_HTML.html#166,166,1226,688,1280,854,1-12-2024,19-15-57,47,VR_target_stimuli/s47_0.75x_3.45_366_BC.png,125,0.75x,3.45,5,3095,121,feet,jsons/MX_seq22_1_VE125_flipped.json,268637,539206,25,Man
47,500446,final-intermixed-textured,v2,jsons/MX_seq22_1_VE125_flipped.json,http://54.235.29.9/FacialAge/BNav_EC2/DepthDuration/MX_fS_VE_MTurk/MX_fS_HTML.html#166,166,1226,688,1280,854,1-12-2024,19-15-57,48,VR_target_stimuli/s29_0.75x_1.3_246.png,125,0.75x,1.3,2,3109,129,feet,jsons/MX_seq22_1_VE125_flipped.json,268637,539206,25,Man
48,500446,final-intermixed-textured,v2,jsons/MX_seq22_1_VE125_flipped.json,http://54.235.29.9/FacialAge/BNav_EC2/DepthDuration/MX_fS_VE_MTurk/MX_fS_HTML.html#166,166,1226,688,1280,854,1-12-2024,19-15-57,49,VR_target_stimuli/s28_1.3x_3.2_365_BC.png,125,1.3x,3.2,5,3597,117,feet,jsons/MX_seq22_1_VE125_flipped.json,268637,539206,25,Man
49,500446,final-intermixed-textured,v2,jsons/MX_seq22_1_VE125_flipped.json,http://54.235.29.9/FacialAge/BNav_EC2/DepthDuration/MX_fS_VE_MTurk/MX_fS_HTML.html#166,166,1226,688,1280,854,1-12-2024,19-15-57,50,VR_target_stimuli/s48_1x_2.55_256_BC.png,125,1x,2.55,5,4026,126,feet,jsons/MX_seq22_1_VE125_flipped.json,268637,539206,25,Man
50,500446,final-intermixed-textured,v2,jsons/MX_seq22_1_VE125_flipped.json,http://54.235.29.9/FacialAge/BNav_EC2/DepthDuration/MX_fS_VE_MTurk/MX_fS_HTML.html#166,166,1226,688,1280,854,1-12-2024,19-15-57,51,VR_target_stimuli/s19_1.3x_1.21_270.png,125,1.3x,1.21,3,3839,127,feet,jsons/MX_seq22_1_VE125_flipped.json,268637,539206,25,Man
51,500446,final-intermixed-textured,v2,jsons/MX_seq22_1_VE125_flipped.json,http://54.235.29.9/FacialAge/BNav_EC2/DepthDuration/MX_fS_VE_MTurk/MX_fS_HTML.html#166,166,1226,688,1280,854,1-12-2024,19-15-57,52,VR_target_stimuli/s21_0.75x_4.22_374_BC.png,125,0.75x,4.22,6,3155,128,feet,jsons/MX_seq22_1_VE125_flipped.json,268637,539206,25,Man
52,500446,final-intermixed-textured,v2,jsons/MX_seq22_1_VE125_flipped.json,http://54.235.29.9/FacialAge/BNav_EC2/DepthDuration/MX_fS_VE_MTurk/MX_fS_HTML.html#166,166,1226,688,1280,854,1-12-2024,19-15-57,53,catch_stimuli/c5_BC.png,125,,,0,3855,118,feet,jsons/MX_seq22_1_VE125_flipped.json,268637,539206,25,Man
53,500446,final-intermixed-textured,v2,jsons/MX_seq22_1_VE125_flipped.json,http://54.235.29.9/FacialAge/BNav_EC2/DepthDuration/MX_fS_VE_MTurk/MX_fS_HTML.html#166,166,1226,688,1280,854,1-12-2024,19-15-57,54,VR_target_stimuli/s8_1x_3.1_332.png,125,1x,3.1,5,3121,126,feet,jsons/MX_seq22_1_VE125_flipped.json,268637,539206,25,Man
54,500446,final-intermixed-textured,v2,jsons/MX_seq22_1_VE125_flipped.json,http://54.235.29.9/FacialAge/BNav_EC2/DepthDuration/MX_fS_VE_MTurk/MX_fS_HTML.html#166,166,1226,688,1280,854,1-12-2024,19-15-57,55,VR_target_stimuli/s27_0.75x_1.76_243_BC.png,125,0.75x,1.76,4,2756,130,feet,jsons/MX_seq22_1_VE125_flipped.json,268637,539206,25,Man
55,500446,final-intermixed-textured,v2,jsons/MX_seq22_1_VE125_flipped.json,http://54.235.29.9/FacialAge/BNav_EC2/DepthDuration/MX_fS_VE_MTurk/MX_fS_HTML.html#166,166,1226,688,1280,854,1-12-2024,19-15-57,56,VR_target_stimuli/s15_1.3x_4.2_389_BC.png,125,1.3x,4.2,4,2954,117,feet,jsons/MX_seq22_1_VE125_flipped.json,268637,539206,25,Man
56,500446,final-intermixed-textured,v2,jsons/MX_seq22_1_VE125_flipped.json,http://54.235.29.9/FacialAge/BNav_EC2/DepthDuration/MX_fS_VE_MTurk/MX_fS_HTML.html#166,166,1226,688,1280,854,1-12-2024,19-15-57,57,VR_target_stimuli/s4_1x_1.4_313_BC.png,125,1x,1.4,6,3014,112,feet,jsons/MX_seq22_1_VE125_flipped.json,268637,539206,25,Man
57,500446,final-intermixed-textured,v2,jsons/MX_seq22_1_VE125_flipped.json,http://54.235.29.9/FacialAge/BNav_EC2/DepthDuration/MX_fS_VE_MTurk/MX_fS_HTML.html#166,166,1226,688,1280,854,1-12-2024,19-15-57,58,VR_target_stimuli/s35_1x_2_331.png,125,1x,2.0,4,3687,115,feet,jsons/MX_seq22_1_VE125_flipped.json,268637,539206,25,Man
58,500446,final-intermixed-textured,v2,jsons/MX_seq22_1_VE125_flipped.json,http://54.235.29.9/FacialAge/BNav_EC2/DepthDuration/MX_fS_VE_MTurk/MX_fS_HTML.html#166,166,1226,688,1280,854,1-12-2024,19-15-57,59,VR_target_stimuli/s49_0.75x_4.67_328.png,125,0.75x,4.67,7,2985,121,feet,jsons/MX_seq22_1_VE125_flipped.json,268637,539206,25,Man
59,500446,final-intermixed-textured,v2,jsons/MX_seq22_1_VE125_flipped.json,http://54.235.29.9/FacialAge/BNav_EC2/DepthDuration/MX_fS_VE_MTurk/MX_fS_HTML.html#166,166,1226,688,1280,854,1-12-2024,19-15-57,60,VR_target_stimuli/s7_1.3x_1.5_256.png,125,1.3x,1.5,8,3986,133,feet,jsons/MX_seq22_1_VE125_flipped.json,268637,539206,25,Man
