,subjID,experimentName,versionName,sequenceName,url,selected_row,windowWidth,windowHeight,screenWidth,screenHeight,startDate,startTime,trial,stimulus,duration,scale,actual_depth,depth_estimate,trial_RT,log_sceneDuration,unitSelection,seq_filepath,experimentTime,totalTime,age,gender
0,520968,final-intermixed-textured,v2,jsons/MX_seq6_0_VE125_flipped.json,http://54.235.29.9/FacialAge/BNav_EC2/DepthDuration/MX_fS_VE_MTurk/MX_fS_HTML.html#263,263,1920,911,1920,1080,1-12-2024,16-25-51,1,VR_target_stimuli/s34_0.75x_2.8_269.png,125,0.75x,2.8,8,3686,128,meters,jsons/MX_seq6_0_VE125_flipped.json,170936,263794,42,Man
1,520968,final-intermixed-textured,v2,jsons/MX_seq6_0_VE125_flipped.json,http://54.235.29.9/FacialAge/BNav_EC2/DepthDuration/MX_fS_VE_MTurk/MX_fS_HTML.html#263,263,1920,911,1920,1080,1-12-2024,16-25-51,2,VR_target_stimuli/s13_1x_2.4_310.png,125,1x,2.4,10,2450,118,meters,jsons/MX_seq6_0_VE125_flipped.json,170936,263794,42,Man
2,520968,final-intermixed-textured,v2,jsons/MX_seq6_0_VE125_flipped.json,http://54.235.29.9/FacialAge/BNav_EC2/DepthDuration/MX_fS_VE_MTurk/MX_fS_HTML.html#263,263,1920,911,1920,1080,1-12-2024,16-25-51,3,VR_target_stimuli/s14_1.3x_3.83_359_BC.png,125,1.3x,3.83,6,2482,125,meters,jsons/MX_seq6_0_VE125_flipped.json,170936,263794,42,Man
3,520968,final-intermixed-textured,v2,jsons/MX_seq6_0_VE125_flipped.json,http://54.235.29.9/FacialAge/BNav_EC2/DepthDuration/MX_fS_VE_MTurk/MX_fS_HTML.html#263,263,1920,911,1920,1080,1-12-2024,16-25-51,4,VR_target_stimuli/s47_1x_3.45_370_BC.png,125,1x,3.45,4,2475,129,meters,jsons/MX_seq6_0_VE125_flipped.json,170936,263794,42,Man
4,520968,final-intermixed-textured,v2,jsons/MX_seq6_0_VE125_flipped.json,http://54.235.29.9/FacialAge/BNav_EC2/DepthDuration/MX_fS_VE_MTurk/MX_fS_HTML.html#263,263,1920,911,1920,1080,1-12-2024,16-25-51,5,VR_target_stimuli/s29_0.75x_1.3_246_BC.png,125,0.75x,1.3,4,2676,132,meters,jsons/MX_seq6_0_VE125_flipped.json,170936,263794,42,Man
5,520968,final-intermixed-textured,v2,jsons/MX_seq6_0_VE125_flipped.json,http://54.235.29.9/FacialAge/BNav_EC2/DepthDuration/MX_fS_VE_MTurk/MX_fS_HTML.html#263,263,1920,911,1920,1080,1-12-2024,16-25-51,6,VR_target_stimuli/s28_1.3x_3.2_365.png,125,1.3x,3.2,5,2103,124,meters,jsons/MX_seq6_0_VE125_flipped.json,170936,263794,42,Man
6,520968,final-intermixed-textured,v2,jsons/MX_seq6_0_VE125_flipped.json,http://54.235.29.9/FacialAge/BNav_EC2/DepthDuration/MX_fS_VE_MTurk/MX_fS_HTML.html#263,263,1920,911,1920,1080,1-12-2024,16-25-51,7,catch_stimuli/c0_BC.png,125,,,0,1931,126,meters,jsons/MX_seq6_0_VE125_flipped.json,170936,263794,42,Man
7,520968,final-intermixed-textured,v2,jsons/MX_seq6_0_VE125_flipped.json,http://54.235.29.9/FacialAge/BNav_EC2/DepthDuration/MX_fS_VE_MTurk/MX_fS_HTML.html#263,263,1920,911,1920,1080,1-12-2024,16-25-51,8,VR_target_stimuli/s48_1.3x_2.55_255.png,125,1.3x,2.55,8,3034,125,meters,jsons/MX_seq6_0_VE125_flipped.json,170936,263794,42,Man
8,520968,final-intermixed-textured,v2,jsons/MX_seq6_0_VE125_flipped.json,http://54.235.29.9/FacialAge/BNav_EC2/DepthDuration/MX_fS_VE_MTurk/MX_fS_HTML.html#263,263,1920,911,1920,1080,1-12-2024,16-25-51,9,VR_target_stimuli/s19_1x_1.21_263_BC.png,125,1x,1.21,2,2159,125,meters,jsons/MX_seq6_0_VE125_flipped.json,170936,263794,42,Man
9,520968,final-intermixed-textured,v2,jsons/MX_seq6_0_VE125_flipped.json,http://54.235.29.9/FacialAge/BNav_EC2/DepthDuration/MX_fS_VE_MTurk/MX_fS_HTML.html#263,263,1920,911,1920,1080,1-12-2024,16-25-51,10,VR_target_stimuli/s21_0.75x_4.22_374.png,125,0.75x,4.22,10,3160,124,meters,jsons/MX_seq6_0_VE125_flipped.json,170936,263794,42,Man
10,520968,final-intermixed-textured,v2,jsons/MX_seq6_0_VE125_flipped.json,http://54.235.29.9/FacialAge/BNav_EC2/DepthDuration/MX_fS_VE_MTurk/MX_fS_HTML.html#263,263,1920,911,1920,1080,1-12-2024,16-25-51,11,VR_target_stimuli/s8_1x_3.1_332.png,125,1x,3.1,6,2825,125,meters,jsons/MX_seq6_0_VE125_flipped.json,170936,263794,42,Man
11,520968,final-intermixed-textured,v2,jsons/MX_seq6_0_VE125_flipped.json,http://54.235.29.9/FacialAge/BNav_EC2/DepthDuration/MX_fS_VE_MTurk/MX_fS_HTML.html#263,263,1920,911,1920,1080,1-12-2024,16-25-51,12,VR_target_stimuli/s27_1.3x_1.76_250_BC.png,125,1.3x,1.76,5,2492,135,meters,jsons/MX_seq6_0_VE125_flipped.json,170936,263794,42,Man
12,520968,final-intermixed-textured,v2,jsons/MX_seq6_0_VE125_flipped.json,http://54.235.29.9/FacialAge/BNav_EC2/DepthDuration/MX_fS_VE_MTurk/MX_fS_HTML.html#263,263,1920,911,1920,1080,1-12-2024,16-25-51,13,VR_target_stimuli/s15_0.75x_4.2_388_BC.png,125,0.75x,4.2,7,2269,126,meters,jsons/MX_seq6_0_VE125_flipped.json,170936,263794,42,Man
13,520968,final-intermixed-textured,v2,jsons/MX_seq6_0_VE125_flipped.json,http://54.235.29.9/FacialAge/BNav_EC2/DepthDuration/MX_fS_VE_MTurk/MX_fS_HTML.html#263,263,1920,911,1920,1080,1-12-2024,16-25-51,14,VR_target_stimuli/s4_1.3x_1.4_328_BC.png,125,1.3x,1.4,2,3314,127,meters,jsons/MX_seq6_0_VE125_flipped.json,170936,263794,42,Man
14,520968,final-intermixed-textured,v2,jsons/MX_seq6_0_VE125_flipped.json,http://54.235.29.9/FacialAge/BNav_EC2/DepthDuration/MX_fS_VE_MTurk/MX_fS_HTML.html#263,263,1920,911,1920,1080,1-12-2024,16-25-51,15,VR_target_stimuli/s35_1x_2_331.png,125,1x,2.0,4,2249,126,meters,jsons/MX_seq6_0_VE125_flipped.json,170936,263794,42,Man
15,520968,final-intermixed-textured,v2,jsons/MX_seq6_0_VE125_flipped.json,http://54.235.29.9/FacialAge/BNav_EC2/DepthDuration/MX_fS_VE_MTurk/MX_fS_HTML.html#263,263,1920,911,1920,1080,1-12-2024,16-25-51,16,VR_target_stimuli/s49_0.75x_4.67_328_BC.png,125,0.75x,4.67,6,2266,124,meters,jsons/MX_seq6_0_VE125_flipped.json,170936,263794,42,Man
16,520968,final-intermixed-textured,v2,jsons/MX_seq6_0_VE125_flipped.json,http://54.235.29.9/FacialAge/BNav_EC2/DepthDuration/MX_fS_VE_MTurk/MX_fS_HTML.html#263,263,1920,911,1920,1080,1-12-2024,16-25-51,17,catch_stimuli/c1_BC.png,125,,,0,1781,124,meters,jsons/MX_seq6_0_VE125_flipped.json,170936,263794,42,Man
17,520968,final-intermixed-textured,v2,jsons/MX_seq6_0_VE125_flipped.json,http://54.235.29.9/FacialAge/BNav_EC2/DepthDuration/MX_fS_VE_MTurk/MX_fS_HTML.html#263,263,1920,911,1920,1080,1-12-2024,16-25-51,18,VR_target_stimuli/s7_0.75x_1.5_253.png,125,0.75x,1.5,4,2824,125,meters,jsons/MX_seq6_0_VE125_flipped.json,170936,263794,42,Man
18,520968,final-intermixed-textured,v2,jsons/MX_seq6_0_VE125_flipped.json,http://54.235.29.9/FacialAge/BNav_EC2/DepthDuration/MX_fS_VE_MTurk/MX_fS_HTML.html#263,263,1920,911,1920,1080,1-12-2024,16-25-51,19,VR_target_stimuli/s20_1.3x_4.99_412.png,125,1.3x,4.99,7,2540,124,meters,jsons/MX_seq6_0_VE125_flipped.json,170936,263794,42,Man
19,520968,final-intermixed-textured,v2,jsons/MX_seq6_0_VE125_flipped.json,http://54.235.29.9/FacialAge/BNav_EC2/DepthDuration/MX_fS_VE_MTurk/MX_fS_HTML.html#263,263,1920,911,1920,1080,1-12-2024,16-25-51,20,VR_target_stimuli/s31_1x_4.96_333_BC.png,125,1x,4.96,10,2356,123,meters,jsons/MX_seq6_0_VE125_flipped.json,170936,263794,42,Man
20,520968,final-intermixed-textured,v2,jsons/MX_seq6_0_VE125_flipped.json,http://54.235.29.9/FacialAge/BNav_EC2/DepthDuration/MX_fS_VE_MTurk/MX_fS_HTML.html#263,263,1920,911,1920,1080,1-12-2024,16-25-51,21,VR_target_stimuli/s33_1.3x_3.1_378.png,125,1.3x,3.1,6,2429,126,meters,jsons/MX_seq6_0_VE125_flipped.json,170936,263794,42,Man
21,520968,final-intermixed-textured,v2,jsons/MX_seq6_0_VE125_flipped.json,http://54.235.29.9/FacialAge/BNav_EC2/DepthDuration/MX_fS_VE_MTurk/MX_fS_HTML.html#263,263,1920,911,1920,1080,1-12-2024,16-25-51,22,VR_target_stimuli/s52_0.75x_3.2_270_BC.png,125,0.75x,3.2,7,2261,124,meters,jsons/MX_seq6_0_VE125_flipped.json,170936,263794,42,Man
22,520968,final-intermixed-textured,v2,jsons/MX_seq6_0_VE125_flipped.json,http://54.235.29.9/FacialAge/BNav_EC2/DepthDuration/MX_fS_VE_MTurk/MX_fS_HTML.html#263,263,1920,911,1920,1080,1-12-2024,16-25-51,23,VR_target_stimuli/s32_1x_1.5_218.png,125,1x,1.5,5,2223,124,meters,jsons/MX_seq6_0_VE125_flipped.json,170936,263794,42,Man
23,520968,final-intermixed-textured,v2,jsons/MX_seq6_0_VE125_flipped.json,http://54.235.29.9/FacialAge/BNav_EC2/DepthDuration/MX_fS_VE_MTurk/MX_fS_HTML.html#263,263,1920,911,1920,1080,1-12-2024,16-25-51,24,VR_target_stimuli/s18_0.75x_2.25_341.png,125,0.75x,2.25,3,1784,126,meters,jsons/MX_seq6_0_VE125_flipped.json,170936,263794,42,Man
24,520968,final-intermixed-textured,v2,jsons/MX_seq6_0_VE125_flipped.json,http://54.235.29.9/FacialAge/BNav_EC2/DepthDuration/MX_fS_VE_MTurk/MX_fS_HTML.html#263,263,1920,911,1920,1080,1-12-2024,16-25-51,25,VR_target_stimuli/s39_1.3x_1_208_BC.png,125,1.3x,1.0,1,1950,126,meters,jsons/MX_seq6_0_VE125_flipped.json,170936,263794,42,Man
25,520968,final-intermixed-textured,v2,jsons/MX_seq6_0_VE125_flipped.json,http://54.235.29.9/FacialAge/BNav_EC2/DepthDuration/MX_fS_VE_MTurk/MX_fS_HTML.html#263,263,1920,911,1920,1080,1-12-2024,16-25-51,26,catch_stimuli/c2_BC.png,125,,,0,1974,125,meters,jsons/MX_seq6_0_VE125_flipped.json,170936,263794,42,Man
26,520968,final-intermixed-textured,v2,jsons/MX_seq6_0_VE125_flipped.json,http://54.235.29.9/FacialAge/BNav_EC2/DepthDuration/MX_fS_VE_MTurk/MX_fS_HTML.html#263,263,1920,911,1920,1080,1-12-2024,16-25-51,27,VR_target_stimuli/s51_1x_3.64_461_BC.png,125,1x,3.64,4,2067,125,meters,jsons/MX_seq6_0_VE125_flipped.json,170936,263794,42,Man
27,520968,final-intermixed-textured,v2,jsons/MX_seq6_0_VE125_flipped.json,http://54.235.29.9/FacialAge/BNav_EC2/DepthDuration/MX_fS_VE_MTurk/MX_fS_HTML.html#263,263,1920,911,1920,1080,1-12-2024,16-25-51,28,VR_target_stimuli/s43_1x_2.2_354_BC.png,125,1x,2.2,3,1898,125,meters,jsons/MX_seq6_0_VE125_flipped.json,170936,263794,42,Man
28,520968,final-intermixed-textured,v2,jsons/MX_seq6_0_VE125_flipped.json,http://54.235.29.9/FacialAge/BNav_EC2/DepthDuration/MX_fS_VE_MTurk/MX_fS_HTML.html#263,263,1920,911,1920,1080,1-12-2024,16-25-51,29,VR_target_stimuli/s24_0.75x_3.3_344.png,125,0.75x,3.3,5,2380,126,meters,jsons/MX_seq6_0_VE125_flipped.json,170936,263794,42,Man
29,520968,final-intermixed-textured,v2,jsons/MX_seq6_0_VE125_flipped.json,http://54.235.29.9/FacialAge/BNav_EC2/DepthDuration/MX_fS_VE_MTurk/MX_fS_HTML.html#263,263,1920,911,1920,1080,1-12-2024,16-25-51,30,VR_target_stimuli/s10_1.3x_2.7_325.png,125,1.3x,2.7,5,2481,127,meters,jsons/MX_seq6_0_VE125_flipped.json,170936,263794,42,Man
30,520968,final-intermixed-textured,v2,jsons/MX_seq6_0_VE125_flipped.json,http://54.235.29.9/FacialAge/BNav_EC2/DepthDuration/MX_fS_VE_MTurk/MX_fS_HTML.html#263,263,1920,911,1920,1080,1-12-2024,16-25-51,31,VR_target_stimuli/s36_1x_4.1_423.png,125,1x,4.1,6,2181,126,meters,jsons/MX_seq6_0_VE125_flipped.json,170936,263794,42,Man
31,520968,final-intermixed-textured,v2,jsons/MX_seq6_0_VE125_flipped.json,http://54.235.29.9/FacialAge/BNav_EC2/DepthDuration/MX_fS_VE_MTurk/MX_fS_HTML.html#263,263,1920,911,1920,1080,1-12-2024,16-25-51,32,VR_target_stimuli/s40_1.3x_1.2_332_BC.png,125,1.3x,1.2,4,2169,112,meters,jsons/MX_seq6_0_VE125_flipped.json,170936,263794,42,Man
32,520968,final-intermixed-textured,v2,jsons/MX_seq6_0_VE125_flipped.json,http://54.235.29.9/FacialAge/BNav_EC2/DepthDuration/MX_fS_VE_MTurk/MX_fS_HTML.html#263,263,1920,911,1920,1080,1-12-2024,16-25-51,33,VR_target_stimuli/s41_0.75x_2.1_281_BC.png,125,0.75x,2.1,4,2106,127,meters,jsons/MX_seq6_0_VE125_flipped.json,170936,263794,42,Man
33,520968,final-intermixed-textured,v2,jsons/MX_seq6_0_VE125_flipped.json,http://54.235.29.9/FacialAge/BNav_EC2/DepthDuration/MX_fS_VE_MTurk/MX_fS_HTML.html#263,263,1920,911,1920,1080,1-12-2024,16-25-51,34,catch_stimuli/c3_BC.png,125,,,0,1702,126,meters,jsons/MX_seq6_0_VE125_flipped.json,170936,263794,42,Man
34,520968,final-intermixed-textured,v2,jsons/MX_seq6_0_VE125_flipped.json,http://54.235.29.9/FacialAge/BNav_EC2/DepthDuration/MX_fS_VE_MTurk/MX_fS_HTML.html#263,263,1920,911,1920,1080,1-12-2024,16-25-51,35,VR_target_stimuli/s45_1.3x_3.5_377.png,125,1.3x,3.5,5,3002,128,meters,jsons/MX_seq6_0_VE125_flipped.json,170936,263794,42,Man
35,520968,final-intermixed-textured,v2,jsons/MX_seq6_0_VE125_flipped.json,http://54.235.29.9/FacialAge/BNav_EC2/DepthDuration/MX_fS_VE_MTurk/MX_fS_HTML.html#263,263,1920,911,1920,1080,1-12-2024,16-25-51,36,VR_target_stimuli/s23_1x_3.65_353.png,125,1x,3.65,5,2733,122,meters,jsons/MX_seq6_0_VE125_flipped.json,170936,263794,42,Man
36,520968,final-intermixed-textured,v2,jsons/MX_seq6_0_VE125_flipped.json,http://54.235.29.9/FacialAge/BNav_EC2/DepthDuration/MX_fS_VE_MTurk/MX_fS_HTML.html#263,263,1920,911,1920,1080,1-12-2024,16-25-51,37,VR_target_stimuli/s26_0.75x_4_430.png,125,0.75x,4.0,6,1698,110,meters,jsons/MX_seq6_0_VE125_flipped.json,170936,263794,42,Man
37,520968,final-intermixed-textured,v2,jsons/MX_seq6_0_VE125_flipped.json,http://54.235.29.9/FacialAge/BNav_EC2/DepthDuration/MX_fS_VE_MTurk/MX_fS_HTML.html#263,263,1920,911,1920,1080,1-12-2024,16-25-51,38,VR_target_stimuli/s12_0.75x_3.1_364_BC.png,125,0.75x,3.1,5,2463,126,meters,jsons/MX_seq6_0_VE125_flipped.json,170936,263794,42,Man
38,520968,final-intermixed-textured,v2,jsons/MX_seq6_0_VE125_flipped.json,http://54.235.29.9/FacialAge/BNav_EC2/DepthDuration/MX_fS_VE_MTurk/MX_fS_HTML.html#263,263,1920,911,1920,1080,1-12-2024,16-25-51,39,VR_target_stimuli/s30_1.3x_2.3_337_BC.png,125,1.3x,2.3,4,3481,124,meters,jsons/MX_seq6_0_VE125_flipped.json,170936,263794,42,Man
39,520968,final-intermixed-textured,v2,jsons/MX_seq6_0_VE125_flipped.json,http://54.235.29.9/FacialAge/BNav_EC2/DepthDuration/MX_fS_VE_MTurk/MX_fS_HTML.html#263,263,1920,911,1920,1080,1-12-2024,16-25-51,40,VR_target_stimuli/s16_1x_1_219_BC.png,125,1x,1.0,2,2039,123,meters,jsons/MX_seq6_0_VE125_flipped.json,170936,263794,42,Man
40,520968,final-intermixed-textured,v2,jsons/MX_seq6_0_VE125_flipped.json,http://54.235.29.9/FacialAge/BNav_EC2/DepthDuration/MX_fS_VE_MTurk/MX_fS_HTML.html#263,263,1920,911,1920,1080,1-12-2024,16-25-51,41,VR_target_stimuli/s17_1.3x_1.8_300.png,125,1.3x,1.8,2,1596,125,meters,jsons/MX_seq6_0_VE125_flipped.json,170936,263794,42,Man
41,520968,final-intermixed-textured,v2,jsons/MX_seq6_0_VE125_flipped.json,http://54.235.29.9/FacialAge/BNav_EC2/DepthDuration/MX_fS_VE_MTurk/MX_fS_HTML.html#263,263,1920,911,1920,1080,1-12-2024,16-25-51,42,VR_target_stimuli/s5_0.75x_4_375.png,125,0.75x,4.0,5,2809,124,meters,jsons/MX_seq6_0_VE125_flipped.json,170936,263794,42,Man
42,520968,final-intermixed-textured,v2,jsons/MX_seq6_0_VE125_flipped.json,http://54.235.29.9/FacialAge/BNav_EC2/DepthDuration/MX_fS_VE_MTurk/MX_fS_HTML.html#263,263,1920,911,1920,1080,1-12-2024,16-25-51,43,VR_target_stimuli/s37_1x_3.3_563_BC.png,125,1x,3.3,3,2121,127,meters,jsons/MX_seq6_0_VE125_flipped.json,170936,263794,42,Man
43,520968,final-intermixed-textured,v2,jsons/MX_seq6_0_VE125_flipped.json,http://54.235.29.9/FacialAge/BNav_EC2/DepthDuration/MX_fS_VE_MTurk/MX_fS_HTML.html#263,263,1920,911,1920,1080,1-12-2024,16-25-51,44,VR_target_stimuli/s46_0.75x_2.42_343_BC.png,125,0.75x,2.42,4,1900,125,meters,jsons/MX_seq6_0_VE125_flipped.json,170936,263794,42,Man
44,520968,final-intermixed-textured,v2,jsons/MX_seq6_0_VE125_flipped.json,http://54.235.29.9/FacialAge/BNav_EC2/DepthDuration/MX_fS_VE_MTurk/MX_fS_HTML.html#263,263,1920,911,1920,1080,1-12-2024,16-25-51,45,catch_stimuli/c4_BC.png,125,,,0,2035,127,meters,jsons/MX_seq6_0_VE125_flipped.json,170936,263794,42,Man
45,520968,final-intermixed-textured,v2,jsons/MX_seq6_0_VE125_flipped.json,http://54.235.29.9/FacialAge/BNav_EC2/DepthDuration/MX_fS_VE_MTurk/MX_fS_HTML.html#263,263,1920,911,1920,1080,1-12-2024,16-25-51,46,VR_target_stimuli/s22_1.3x_4.29_364_BC.png,125,1.3x,4.29,6,2840,125,meters,jsons/MX_seq6_0_VE125_flipped.json,170936,263794,42,Man
46,520968,final-intermixed-textured,v2,jsons/MX_seq6_0_VE125_flipped.json,http://54.235.29.9/FacialAge/BNav_EC2/DepthDuration/MX_fS_VE_MTurk/MX_fS_HTML.html#263,263,1920,911,1920,1080,1-12-2024,16-25-51,47,VR_target_stimuli/s42_1x_3.2_303.png,125,1x,3.2,7,2421,124,meters,jsons/MX_seq6_0_VE125_flipped.json,170936,263794,42,Man
47,520968,final-intermixed-textured,v2,jsons/MX_seq6_0_VE125_flipped.json,http://54.235.29.9/FacialAge/BNav_EC2/DepthDuration/MX_fS_VE_MTurk/MX_fS_HTML.html#263,263,1920,911,1920,1080,1-12-2024,16-25-51,48,VR_target_stimuli/s25_1x_1.4_290.png,125,1x,1.4,4,2475,124,meters,jsons/MX_seq6_0_VE125_flipped.json,170936,263794,42,Man
48,520968,final-intermixed-textured,v2,jsons/MX_seq6_0_VE125_flipped.json,http://54.235.29.9/FacialAge/BNav_EC2/DepthDuration/MX_fS_VE_MTurk/MX_fS_HTML.html#263,263,1920,911,1920,1080,1-12-2024,16-25-51,49,VR_target_stimuli/s50_0.75x_4.53_517.png,125,0.75x,4.53,5,2279,125,meters,jsons/MX_seq6_0_VE125_flipped.json,170936,263794,42,Man
49,520968,final-intermixed-textured,v2,jsons/MX_seq6_0_VE125_flipped.json,http://54.235.29.9/FacialAge/BNav_EC2/DepthDuration/MX_fS_VE_MTurk/MX_fS_HTML.html#263,263,1920,911,1920,1080,1-12-2024,16-25-51,50,VR_target_stimuli/s53_1.3x_1.6_355.png,125,1.3x,1.6,1,1845,110,meters,jsons/MX_seq6_0_VE125_flipped.json,170936,263794,42,Man
50,520968,final-intermixed-textured,v2,jsons/MX_seq6_0_VE125_flipped.json,http://54.235.29.9/FacialAge/BNav_EC2/DepthDuration/MX_fS_VE_MTurk/MX_fS_HTML.html#263,263,1920,911,1920,1080,1-12-2024,16-25-51,51,VR_target_stimuli/s38_0.75x_3.55_346_BC.png,125,0.75x,3.55,10,2234,125,meters,jsons/MX_seq6_0_VE125_flipped.json,170936,263794,42,Man
51,520968,final-intermixed-textured,v2,jsons/MX_seq6_0_VE125_flipped.json,http://54.235.29.9/FacialAge/BNav_EC2/DepthDuration/MX_fS_VE_MTurk/MX_fS_HTML.html#263,263,1920,911,1920,1080,1-12-2024,16-25-51,52,VR_target_stimuli/s9_1x_1.2_263_BC.png,125,1x,1.2,1,2513,111,meters,jsons/MX_seq6_0_VE125_flipped.json,170936,263794,42,Man
52,520968,final-intermixed-textured,v2,jsons/MX_seq6_0_VE125_flipped.json,http://54.235.29.9/FacialAge/BNav_EC2/DepthDuration/MX_fS_VE_MTurk/MX_fS_HTML.html#263,263,1920,911,1920,1080,1-12-2024,16-25-51,53,catch_stimuli/c5_BC.png,125,,,0,2058,125,meters,jsons/MX_seq6_0_VE125_flipped.json,170936,263794,42,Man
53,520968,final-intermixed-textured,v2,jsons/MX_seq6_0_VE125_flipped.json,http://54.235.29.9/FacialAge/BNav_EC2/DepthDuration/MX_fS_VE_MTurk/MX_fS_HTML.html#263,263,1920,911,1920,1080,1-12-2024,16-25-51,54,VR_target_stimuli/s44_1.3x_4.4_325_BC.png,125,1.3x,4.4,5,2391,126,meters,jsons/MX_seq6_0_VE125_flipped.json,170936,263794,42,Man
54,520968,final-intermixed-textured,v2,jsons/MX_seq6_0_VE125_flipped.json,http://54.235.29.9/FacialAge/BNav_EC2/DepthDuration/MX_fS_VE_MTurk/MX_fS_HTML.html#263,263,1920,911,1920,1080,1-12-2024,16-25-51,55,VR_target_stimuli/s3_1x_5_385.png,125,1x,5.0,5,2044,123,meters,jsons/MX_seq6_0_VE125_flipped.json,170936,263794,42,Man
55,520968,final-intermixed-textured,v2,jsons/MX_seq6_0_VE125_flipped.json,http://54.235.29.9/FacialAge/BNav_EC2/DepthDuration/MX_fS_VE_MTurk/MX_fS_HTML.html#263,263,1920,911,1920,1080,1-12-2024,16-25-51,56,VR_target_stimuli/s1_0.75x_1.7_265_BC.png,125,0.75x,1.7,3,1804,125,meters,jsons/MX_seq6_0_VE125_flipped.json,170936,263794,42,Man
56,520968,final-intermixed-textured,v2,jsons/MX_seq6_0_VE125_flipped.json,http://54.235.29.9/FacialAge/BNav_EC2/DepthDuration/MX_fS_VE_MTurk/MX_fS_HTML.html#263,263,1920,911,1920,1080,1-12-2024,16-25-51,57,VR_target_stimuli/s11_1.3x_5_363_BC.png,125,1.3x,5.0,6,2071,123,meters,jsons/MX_seq6_0_VE125_flipped.json,170936,263794,42,Man
57,520968,final-intermixed-textured,v2,jsons/MX_seq6_0_VE125_flipped.json,http://54.235.29.9/FacialAge/BNav_EC2/DepthDuration/MX_fS_VE_MTurk/MX_fS_HTML.html#263,263,1920,911,1920,1080,1-12-2024,16-25-51,58,VR_target_stimuli/s2_1.3x_2.7_397.png,125,1.3x,2.7,3,1732,125,meters,jsons/MX_seq6_0_VE125_flipped.json,170936,263794,42,Man
58,520968,final-intermixed-textured,v2,jsons/MX_seq6_0_VE125_flipped.json,http://54.235.29.9/FacialAge/BNav_EC2/DepthDuration/MX_fS_VE_MTurk/MX_fS_HTML.html#263,263,1920,911,1920,1080,1-12-2024,16-25-51,59,VR_target_stimuli/s6_1x_2.1_293_BC.png,125,1x,2.1,4,2099,125,meters,jsons/MX_seq6_0_VE125_flipped.json,170936,263794,42,Man
59,520968,final-intermixed-textured,v2,jsons/MX_seq6_0_VE125_flipped.json,http://54.235.29.9/FacialAge/BNav_EC2/DepthDuration/MX_fS_VE_MTurk/MX_fS_HTML.html#263,263,1920,911,1920,1080,1-12-2024,16-25-51,60,VR_target_stimuli/s0_0.75x_2.6_345.png,125,0.75x,2.6,4,3103,124,meters,jsons/MX_seq6_0_VE125_flipped.json,170936,263794,42,Man
