,subjID,experimentName,versionName,sequenceName,url,selected_row,windowWidth,windowHeight,screenWidth,screenHeight,startDate,startTime,trial,stimulus,duration,scale,actual_depth,depth_estimate,trial_RT,log_sceneDuration,unitSelection,seq_filepath,experimentTime,totalTime,age,gender
0,525808,final-intermixed-textured,v2,jsons/MX_seq30_0_VE125_flipped.json,http://54.235.29.9/FacialAge/BNav_EC2/DepthDuration/MX_fS_VE_MTurk/MX_fS_HTML.html#93,93,1737,840,1920,1080,1-12-2024,13-36-28,1,VR_target_stimuli/s43_0.75x_2.2_348.png,125,0.75x,2.2,3,9420,123,meters,jsons/MX_seq30_0_VE125_flipped.json,255371,492786,44,Woman
1,525808,final-intermixed-textured,v2,jsons/MX_seq30_0_VE125_flipped.json,http://54.235.29.9/FacialAge/BNav_EC2/DepthDuration/MX_fS_VE_MTurk/MX_fS_HTML.html#93,93,1737,840,1920,1080,1-12-2024,13-36-28,2,VR_target_stimuli/s24_1x_3.3_349.png,125,1x,3.3,0,8323,128,meters,jsons/MX_seq30_0_VE125_flipped.json,255371,492786,44,Woman
2,525808,final-intermixed-textured,v2,jsons/MX_seq30_0_VE125_flipped.json,http://54.235.29.9/FacialAge/BNav_EC2/DepthDuration/MX_fS_VE_MTurk/MX_fS_HTML.html#93,93,1737,840,1920,1080,1-12-2024,13-36-28,3,VR_target_stimuli/s10_1.3x_2.7_325_BC.png,125,1.3x,2.7,2,3847,123,meters,jsons/MX_seq30_0_VE125_flipped.json,255371,492786,44,Woman
3,525808,final-intermixed-textured,v2,jsons/MX_seq30_0_VE125_flipped.json,http://54.235.29.9/FacialAge/BNav_EC2/DepthDuration/MX_fS_VE_MTurk/MX_fS_HTML.html#93,93,1737,840,1920,1080,1-12-2024,13-36-28,4,VR_target_stimuli/s36_1x_4.1_423_BC.png,125,1x,4.1,2,4913,125,meters,jsons/MX_seq30_0_VE125_flipped.json,255371,492786,44,Woman
4,525808,final-intermixed-textured,v2,jsons/MX_seq30_0_VE125_flipped.json,http://54.235.29.9/FacialAge/BNav_EC2/DepthDuration/MX_fS_VE_MTurk/MX_fS_HTML.html#93,93,1737,840,1920,1080,1-12-2024,13-36-28,5,VR_target_stimuli/s40_0.75x_1.2_308_BC.png,125,0.75x,1.2,2,6355,124,meters,jsons/MX_seq30_0_VE125_flipped.json,255371,492786,44,Woman
5,525808,final-intermixed-textured,v2,jsons/MX_seq30_0_VE125_flipped.json,http://54.235.29.9/FacialAge/BNav_EC2/DepthDuration/MX_fS_VE_MTurk/MX_fS_HTML.html#93,93,1737,840,1920,1080,1-12-2024,13-36-28,6,VR_target_stimuli/s41_1.3x_2.1_294.png,125,1.3x,2.1,3,2819,129,meters,jsons/MX_seq30_0_VE125_flipped.json,255371,492786,44,Woman
6,525808,final-intermixed-textured,v2,jsons/MX_seq30_0_VE125_flipped.json,http://54.235.29.9/FacialAge/BNav_EC2/DepthDuration/MX_fS_VE_MTurk/MX_fS_HTML.html#93,93,1737,840,1920,1080,1-12-2024,13-36-28,7,catch_stimuli/c0_BC.png,125,,,0,3713,124,meters,jsons/MX_seq30_0_VE125_flipped.json,255371,492786,44,Woman
7,525808,final-intermixed-textured,v2,jsons/MX_seq30_0_VE125_flipped.json,http://54.235.29.9/FacialAge/BNav_EC2/DepthDuration/MX_fS_VE_MTurk/MX_fS_HTML.html#93,93,1737,840,1920,1080,1-12-2024,13-36-28,8,VR_target_stimuli/s45_1.3x_3.5_377_BC.png,125,1.3x,3.5,4,3697,93,meters,jsons/MX_seq30_0_VE125_flipped.json,255371,492786,44,Woman
8,525808,final-intermixed-textured,v2,jsons/MX_seq30_0_VE125_flipped.json,http://54.235.29.9/FacialAge/BNav_EC2/DepthDuration/MX_fS_VE_MTurk/MX_fS_HTML.html#93,93,1737,840,1920,1080,1-12-2024,13-36-28,9,VR_target_stimuli/s23_1x_3.65_353.png,125,1x,3.65,3,2991,126,meters,jsons/MX_seq30_0_VE125_flipped.json,255371,492786,44,Woman
9,525808,final-intermixed-textured,v2,jsons/MX_seq30_0_VE125_flipped.json,http://54.235.29.9/FacialAge/BNav_EC2/DepthDuration/MX_fS_VE_MTurk/MX_fS_HTML.html#93,93,1737,840,1920,1080,1-12-2024,13-36-28,10,VR_target_stimuli/s26_0.75x_4_430.png,125,0.75x,4.0,4,2942,124,meters,jsons/MX_seq30_0_VE125_flipped.json,255371,492786,44,Woman
10,525808,final-intermixed-textured,v2,jsons/MX_seq30_0_VE125_flipped.json,http://54.235.29.9/FacialAge/BNav_EC2/DepthDuration/MX_fS_VE_MTurk/MX_fS_HTML.html#93,93,1737,840,1920,1080,1-12-2024,13-36-28,11,VR_target_stimuli/s12_1x_3.1_372_BC.png,125,1x,3.1,4,2674,127,meters,jsons/MX_seq30_0_VE125_flipped.json,255371,492786,44,Woman
11,525808,final-intermixed-textured,v2,jsons/MX_seq30_0_VE125_flipped.json,http://54.235.29.9/FacialAge/BNav_EC2/DepthDuration/MX_fS_VE_MTurk/MX_fS_HTML.html#93,93,1737,840,1920,1080,1-12-2024,13-36-28,12,VR_target_stimuli/s30_1.3x_2.3_337.png,125,1.3x,2.3,4,3849,118,meters,jsons/MX_seq30_0_VE125_flipped.json,255371,492786,44,Woman
12,525808,final-intermixed-textured,v2,jsons/MX_seq30_0_VE125_flipped.json,http://54.235.29.9/FacialAge/BNav_EC2/DepthDuration/MX_fS_VE_MTurk/MX_fS_HTML.html#93,93,1737,840,1920,1080,1-12-2024,13-36-28,13,VR_target_stimuli/s16_0.75x_1_217_BC.png,125,0.75x,1.0,3,3845,120,meters,jsons/MX_seq30_0_VE125_flipped.json,255371,492786,44,Woman
13,525808,final-intermixed-textured,v2,jsons/MX_seq30_0_VE125_flipped.json,http://54.235.29.9/FacialAge/BNav_EC2/DepthDuration/MX_fS_VE_MTurk/MX_fS_HTML.html#93,93,1737,840,1920,1080,1-12-2024,13-36-28,14,VR_target_stimuli/s17_1.3x_1.8_300_BC.png,125,1.3x,1.8,2,2950,124,meters,jsons/MX_seq30_0_VE125_flipped.json,255371,492786,44,Woman
14,525808,final-intermixed-textured,v2,jsons/MX_seq30_0_VE125_flipped.json,http://54.235.29.9/FacialAge/BNav_EC2/DepthDuration/MX_fS_VE_MTurk/MX_fS_HTML.html#93,93,1737,840,1920,1080,1-12-2024,13-36-28,15,VR_target_stimuli/s5_1x_4_378.png,125,1x,4.0,3,6846,125,meters,jsons/MX_seq30_0_VE125_flipped.json,255371,492786,44,Woman
15,525808,final-intermixed-textured,v2,jsons/MX_seq30_0_VE125_flipped.json,http://54.235.29.9/FacialAge/BNav_EC2/DepthDuration/MX_fS_VE_MTurk/MX_fS_HTML.html#93,93,1737,840,1920,1080,1-12-2024,13-36-28,16,VR_target_stimuli/s37_0.75x_3.3_567_BC.png,125,0.75x,3.3,4,4712,126,meters,jsons/MX_seq30_0_VE125_flipped.json,255371,492786,44,Woman
16,525808,final-intermixed-textured,v2,jsons/MX_seq30_0_VE125_flipped.json,http://54.235.29.9/FacialAge/BNav_EC2/DepthDuration/MX_fS_VE_MTurk/MX_fS_HTML.html#93,93,1737,840,1920,1080,1-12-2024,13-36-28,17,catch_stimuli/c1_BC.png,125,,,5,5314,128,meters,jsons/MX_seq30_0_VE125_flipped.json,255371,492786,44,Woman
17,525808,final-intermixed-textured,v2,jsons/MX_seq30_0_VE125_flipped.json,http://54.235.29.9/FacialAge/BNav_EC2/DepthDuration/MX_fS_VE_MTurk/MX_fS_HTML.html#93,93,1737,840,1920,1080,1-12-2024,13-36-28,18,VR_target_stimuli/s46_0.75x_2.42_343.png,125,0.75x,2.42,0,4192,122,meters,jsons/MX_seq30_0_VE125_flipped.json,255371,492786,44,Woman
18,525808,final-intermixed-textured,v2,jsons/MX_seq30_0_VE125_flipped.json,http://54.235.29.9/FacialAge/BNav_EC2/DepthDuration/MX_fS_VE_MTurk/MX_fS_HTML.html#93,93,1737,840,1920,1080,1-12-2024,13-36-28,19,VR_target_stimuli/s22_1.3x_4.29_364.png,125,1.3x,4.29,3,6312,122,meters,jsons/MX_seq30_0_VE125_flipped.json,255371,492786,44,Woman
19,525808,final-intermixed-textured,v2,jsons/MX_seq30_0_VE125_flipped.json,http://54.235.29.9/FacialAge/BNav_EC2/DepthDuration/MX_fS_VE_MTurk/MX_fS_HTML.html#93,93,1737,840,1920,1080,1-12-2024,13-36-28,20,VR_target_stimuli/s42_1x_3.2_303_BC.png,125,1x,3.2,4,2861,124,meters,jsons/MX_seq30_0_VE125_flipped.json,255371,492786,44,Woman
20,525808,final-intermixed-textured,v2,jsons/MX_seq30_0_VE125_flipped.json,http://54.235.29.9/FacialAge/BNav_EC2/DepthDuration/MX_fS_VE_MTurk/MX_fS_HTML.html#93,93,1737,840,1920,1080,1-12-2024,13-36-28,21,VR_target_stimuli/s25_1.3x_1.4_299.png,125,1.3x,1.4,4,2777,121,meters,jsons/MX_seq30_0_VE125_flipped.json,255371,492786,44,Woman
21,525808,final-intermixed-textured,v2,jsons/MX_seq30_0_VE125_flipped.json,http://54.235.29.9/FacialAge/BNav_EC2/DepthDuration/MX_fS_VE_MTurk/MX_fS_HTML.html#93,93,1737,840,1920,1080,1-12-2024,13-36-28,22,VR_target_stimuli/s50_0.75x_4.53_517.png,125,0.75x,4.53,4,9169,124,meters,jsons/MX_seq30_0_VE125_flipped.json,255371,492786,44,Woman
22,525808,final-intermixed-textured,v2,jsons/MX_seq30_0_VE125_flipped.json,http://54.235.29.9/FacialAge/BNav_EC2/DepthDuration/MX_fS_VE_MTurk/MX_fS_HTML.html#93,93,1737,840,1920,1080,1-12-2024,13-36-28,23,VR_target_stimuli/s53_1x_1.6_387_BC.png,125,1x,1.6,3,2684,121,meters,jsons/MX_seq30_0_VE125_flipped.json,255371,492786,44,Woman
23,525808,final-intermixed-textured,v2,jsons/MX_seq30_0_VE125_flipped.json,http://54.235.29.9/FacialAge/BNav_EC2/DepthDuration/MX_fS_VE_MTurk/MX_fS_HTML.html#93,93,1737,840,1920,1080,1-12-2024,13-36-28,24,VR_target_stimuli/s38_0.75x_3.55_346_BC.png,125,0.75x,3.55,2,2646,123,meters,jsons/MX_seq30_0_VE125_flipped.json,255371,492786,44,Woman
24,525808,final-intermixed-textured,v2,jsons/MX_seq30_0_VE125_flipped.json,http://54.235.29.9/FacialAge/BNav_EC2/DepthDuration/MX_fS_VE_MTurk/MX_fS_HTML.html#93,93,1737,840,1920,1080,1-12-2024,13-36-28,25,VR_target_stimuli/s9_1.3x_1.2_276_BC.png,125,1.3x,1.2,2,2727,124,meters,jsons/MX_seq30_0_VE125_flipped.json,255371,492786,44,Woman
25,525808,final-intermixed-textured,v2,jsons/MX_seq30_0_VE125_flipped.json,http://54.235.29.9/FacialAge/BNav_EC2/DepthDuration/MX_fS_VE_MTurk/MX_fS_HTML.html#93,93,1737,840,1920,1080,1-12-2024,13-36-28,26,catch_stimuli/c2_BC.png,125,,,0,4796,125,meters,jsons/MX_seq30_0_VE125_flipped.json,255371,492786,44,Woman
26,525808,final-intermixed-textured,v2,jsons/MX_seq30_0_VE125_flipped.json,http://54.235.29.9/FacialAge/BNav_EC2/DepthDuration/MX_fS_VE_MTurk/MX_fS_HTML.html#93,93,1737,840,1920,1080,1-12-2024,13-36-28,27,VR_target_stimuli/s44_1x_4.4_317.png,125,1x,4.4,0,3567,125,meters,jsons/MX_seq30_0_VE125_flipped.json,255371,492786,44,Woman
27,525808,final-intermixed-textured,v2,jsons/MX_seq30_0_VE125_flipped.json,http://54.235.29.9/FacialAge/BNav_EC2/DepthDuration/MX_fS_VE_MTurk/MX_fS_HTML.html#93,93,1737,840,1920,1080,1-12-2024,13-36-28,28,VR_target_stimuli/s3_1x_5_385_BC.png,125,1x,5.0,0,3552,125,meters,jsons/MX_seq30_0_VE125_flipped.json,255371,492786,44,Woman
28,525808,final-intermixed-textured,v2,jsons/MX_seq30_0_VE125_flipped.json,http://54.235.29.9/FacialAge/BNav_EC2/DepthDuration/MX_fS_VE_MTurk/MX_fS_HTML.html#93,93,1737,840,1920,1080,1-12-2024,13-36-28,29,VR_target_stimuli/s1_0.75x_1.7_265_BC.png,125,0.75x,1.7,4,3381,125,meters,jsons/MX_seq30_0_VE125_flipped.json,255371,492786,44,Woman
29,525808,final-intermixed-textured,v2,jsons/MX_seq30_0_VE125_flipped.json,http://54.235.29.9/FacialAge/BNav_EC2/DepthDuration/MX_fS_VE_MTurk/MX_fS_HTML.html#93,93,1737,840,1920,1080,1-12-2024,13-36-28,30,VR_target_stimuli/s11_1.3x_5_363.png,125,1.3x,5.0,2,2871,121,meters,jsons/MX_seq30_0_VE125_flipped.json,255371,492786,44,Woman
30,525808,final-intermixed-textured,v2,jsons/MX_seq30_0_VE125_flipped.json,http://54.235.29.9/FacialAge/BNav_EC2/DepthDuration/MX_fS_VE_MTurk/MX_fS_HTML.html#93,93,1737,840,1920,1080,1-12-2024,13-36-28,31,VR_target_stimuli/s2_1x_2.7_390.png,125,1x,2.7,3,7703,123,meters,jsons/MX_seq30_0_VE125_flipped.json,255371,492786,44,Woman
31,525808,final-intermixed-textured,v2,jsons/MX_seq30_0_VE125_flipped.json,http://54.235.29.9/FacialAge/BNav_EC2/DepthDuration/MX_fS_VE_MTurk/MX_fS_HTML.html#93,93,1737,840,1920,1080,1-12-2024,13-36-28,32,VR_target_stimuli/s6_1.3x_2.1_298_BC.png,125,1.3x,2.1,3,3247,83,meters,jsons/MX_seq30_0_VE125_flipped.json,255371,492786,44,Woman
32,525808,final-intermixed-textured,v2,jsons/MX_seq30_0_VE125_flipped.json,http://54.235.29.9/FacialAge/BNav_EC2/DepthDuration/MX_fS_VE_MTurk/MX_fS_HTML.html#93,93,1737,840,1920,1080,1-12-2024,13-36-28,33,VR_target_stimuli/s0_0.75x_2.6_345.png,125,0.75x,2.6,3,2634,128,meters,jsons/MX_seq30_0_VE125_flipped.json,255371,492786,44,Woman
33,525808,final-intermixed-textured,v2,jsons/MX_seq30_0_VE125_flipped.json,http://54.235.29.9/FacialAge/BNav_EC2/DepthDuration/MX_fS_VE_MTurk/MX_fS_HTML.html#93,93,1737,840,1920,1080,1-12-2024,13-36-28,34,catch_stimuli/c3_BC.png,125,,,0,3020,125,meters,jsons/MX_seq30_0_VE125_flipped.json,255371,492786,44,Woman
34,525808,final-intermixed-textured,v2,jsons/MX_seq30_0_VE125_flipped.json,http://54.235.29.9/FacialAge/BNav_EC2/DepthDuration/MX_fS_VE_MTurk/MX_fS_HTML.html#93,93,1737,840,1920,1080,1-12-2024,13-36-28,35,VR_target_stimuli/s34_1.3x_2.8_294_BC.png,125,1.3x,2.8,0,3140,111,meters,jsons/MX_seq30_0_VE125_flipped.json,255371,492786,44,Woman
35,525808,final-intermixed-textured,v2,jsons/MX_seq30_0_VE125_flipped.json,http://54.235.29.9/FacialAge/BNav_EC2/DepthDuration/MX_fS_VE_MTurk/MX_fS_HTML.html#93,93,1737,840,1920,1080,1-12-2024,13-36-28,36,VR_target_stimuli/s13_1x_2.4_310.png,125,1x,2.4,3,2888,125,meters,jsons/MX_seq30_0_VE125_flipped.json,255371,492786,44,Woman
36,525808,final-intermixed-textured,v2,jsons/MX_seq30_0_VE125_flipped.json,http://54.235.29.9/FacialAge/BNav_EC2/DepthDuration/MX_fS_VE_MTurk/MX_fS_HTML.html#93,93,1737,840,1920,1080,1-12-2024,13-36-28,37,VR_target_stimuli/s14_0.75x_3.83_355.png,125,0.75x,3.83,3,2645,122,meters,jsons/MX_seq30_0_VE125_flipped.json,255371,492786,44,Woman
37,525808,final-intermixed-textured,v2,jsons/MX_seq30_0_VE125_flipped.json,http://54.235.29.9/FacialAge/BNav_EC2/DepthDuration/MX_fS_VE_MTurk/MX_fS_HTML.html#93,93,1737,840,1920,1080,1-12-2024,13-36-28,38,VR_target_stimuli/s47_0.75x_3.45_366_BC.png,125,0.75x,3.45,4,2808,124,meters,jsons/MX_seq30_0_VE125_flipped.json,255371,492786,44,Woman
38,525808,final-intermixed-textured,v2,jsons/MX_seq30_0_VE125_flipped.json,http://54.235.29.9/FacialAge/BNav_EC2/DepthDuration/MX_fS_VE_MTurk/MX_fS_HTML.html#93,93,1737,840,1920,1080,1-12-2024,13-36-28,39,VR_target_stimuli/s29_1.3x_1.3_253.png,125,1.3x,1.3,2,2686,122,meters,jsons/MX_seq30_0_VE125_flipped.json,255371,492786,44,Woman
39,525808,final-intermixed-textured,v2,jsons/MX_seq30_0_VE125_flipped.json,http://54.235.29.9/FacialAge/BNav_EC2/DepthDuration/MX_fS_VE_MTurk/MX_fS_HTML.html#93,93,1737,840,1920,1080,1-12-2024,13-36-28,40,VR_target_stimuli/s28_1x_3.2_362_BC.png,125,1x,3.2,3,2536,120,meters,jsons/MX_seq30_0_VE125_flipped.json,255371,492786,44,Woman
40,525808,final-intermixed-textured,v2,jsons/MX_seq30_0_VE125_flipped.json,http://54.235.29.9/FacialAge/BNav_EC2/DepthDuration/MX_fS_VE_MTurk/MX_fS_HTML.html#93,93,1737,840,1920,1080,1-12-2024,13-36-28,41,VR_target_stimuli/s48_1.3x_2.55_255.png,125,1.3x,2.55,3,3779,109,meters,jsons/MX_seq30_0_VE125_flipped.json,255371,492786,44,Woman
41,525808,final-intermixed-textured,v2,jsons/MX_seq30_0_VE125_flipped.json,http://54.235.29.9/FacialAge/BNav_EC2/DepthDuration/MX_fS_VE_MTurk/MX_fS_HTML.html#93,93,1737,840,1920,1080,1-12-2024,13-36-28,42,VR_target_stimuli/s19_0.75x_1.21_257_BC.png,125,0.75x,1.21,4,3606,111,meters,jsons/MX_seq30_0_VE125_flipped.json,255371,492786,44,Woman
42,525808,final-intermixed-textured,v2,jsons/MX_seq30_0_VE125_flipped.json,http://54.235.29.9/FacialAge/BNav_EC2/DepthDuration/MX_fS_VE_MTurk/MX_fS_HTML.html#93,93,1737,840,1920,1080,1-12-2024,13-36-28,43,VR_target_stimuli/s21_1x_4.22_379.png,125,1x,4.22,3,2607,124,meters,jsons/MX_seq30_0_VE125_flipped.json,255371,492786,44,Woman
43,525808,final-intermixed-textured,v2,jsons/MX_seq30_0_VE125_flipped.json,http://54.235.29.9/FacialAge/BNav_EC2/DepthDuration/MX_fS_VE_MTurk/MX_fS_HTML.html#93,93,1737,840,1920,1080,1-12-2024,13-36-28,44,VR_target_stimuli/s8_0.75x_3.1_325.png,125,0.75x,3.1,4,4178,120,meters,jsons/MX_seq30_0_VE125_flipped.json,255371,492786,44,Woman
44,525808,final-intermixed-textured,v2,jsons/MX_seq30_0_VE125_flipped.json,http://54.235.29.9/FacialAge/BNav_EC2/DepthDuration/MX_fS_VE_MTurk/MX_fS_HTML.html#93,93,1737,840,1920,1080,1-12-2024,13-36-28,45,catch_stimuli/c4_BC.png,125,,,3,2901,125,meters,jsons/MX_seq30_0_VE125_flipped.json,255371,492786,44,Woman
45,525808,final-intermixed-textured,v2,jsons/MX_seq30_0_VE125_flipped.json,http://54.235.29.9/FacialAge/BNav_EC2/DepthDuration/MX_fS_VE_MTurk/MX_fS_HTML.html#93,93,1737,840,1920,1080,1-12-2024,13-36-28,46,VR_target_stimuli/s27_1.3x_1.76_250_BC.png,125,1.3x,1.76,3,2896,118,meters,jsons/MX_seq30_0_VE125_flipped.json,255371,492786,44,Woman
46,525808,final-intermixed-textured,v2,jsons/MX_seq30_0_VE125_flipped.json,http://54.235.29.9/FacialAge/BNav_EC2/DepthDuration/MX_fS_VE_MTurk/MX_fS_HTML.html#93,93,1737,840,1920,1080,1-12-2024,13-36-28,47,VR_target_stimuli/s15_1x_4.2_390_BC.png,125,1x,4.2,3,3109,125,meters,jsons/MX_seq30_0_VE125_flipped.json,255371,492786,44,Woman
47,525808,final-intermixed-textured,v2,jsons/MX_seq30_0_VE125_flipped.json,http://54.235.29.9/FacialAge/BNav_EC2/DepthDuration/MX_fS_VE_MTurk/MX_fS_HTML.html#93,93,1737,840,1920,1080,1-12-2024,13-36-28,48,VR_target_stimuli/s4_1x_1.4_313.png,125,1x,1.4,2,2580,124,meters,jsons/MX_seq30_0_VE125_flipped.json,255371,492786,44,Woman
48,525808,final-intermixed-textured,v2,jsons/MX_seq30_0_VE125_flipped.json,http://54.235.29.9/FacialAge/BNav_EC2/DepthDuration/MX_fS_VE_MTurk/MX_fS_HTML.html#93,93,1737,840,1920,1080,1-12-2024,13-36-28,49,VR_target_stimuli/s35_0.75x_2_323.png,125,0.75x,2.0,2,2627,64,meters,jsons/MX_seq30_0_VE125_flipped.json,255371,492786,44,Woman
49,525808,final-intermixed-textured,v2,jsons/MX_seq30_0_VE125_flipped.json,http://54.235.29.9/FacialAge/BNav_EC2/DepthDuration/MX_fS_VE_MTurk/MX_fS_HTML.html#93,93,1737,840,1920,1080,1-12-2024,13-36-28,50,VR_target_stimuli/s49_1.3x_4.67_354.png,125,1.3x,4.67,4,2536,121,meters,jsons/MX_seq30_0_VE125_flipped.json,255371,492786,44,Woman
50,525808,final-intermixed-textured,v2,jsons/MX_seq30_0_VE125_flipped.json,http://54.235.29.9/FacialAge/BNav_EC2/DepthDuration/MX_fS_VE_MTurk/MX_fS_HTML.html#93,93,1737,840,1920,1080,1-12-2024,13-36-28,51,VR_target_stimuli/s7_0.75x_1.5_253_BC.png,125,0.75x,1.5,3,2152,128,meters,jsons/MX_seq30_0_VE125_flipped.json,255371,492786,44,Woman
51,525808,final-intermixed-textured,v2,jsons/MX_seq30_0_VE125_flipped.json,http://54.235.29.9/FacialAge/BNav_EC2/DepthDuration/MX_fS_VE_MTurk/MX_fS_HTML.html#93,93,1737,840,1920,1080,1-12-2024,13-36-28,52,VR_target_stimuli/s20_1x_4.99_398_BC.png,125,1x,4.99,4,2671,123,meters,jsons/MX_seq30_0_VE125_flipped.json,255371,492786,44,Woman
52,525808,final-intermixed-textured,v2,jsons/MX_seq30_0_VE125_flipped.json,http://54.235.29.9/FacialAge/BNav_EC2/DepthDuration/MX_fS_VE_MTurk/MX_fS_HTML.html#93,93,1737,840,1920,1080,1-12-2024,13-36-28,53,catch_stimuli/c5_BC.png,125,,,0,3738,121,meters,jsons/MX_seq30_0_VE125_flipped.json,255371,492786,44,Woman
53,525808,final-intermixed-textured,v2,jsons/MX_seq30_0_VE125_flipped.json,http://54.235.29.9/FacialAge/BNav_EC2/DepthDuration/MX_fS_VE_MTurk/MX_fS_HTML.html#93,93,1737,840,1920,1080,1-12-2024,13-36-28,54,VR_target_stimuli/s31_1.3x_4.96_342_BC.png,125,1.3x,4.96,5,4821,125,meters,jsons/MX_seq30_0_VE125_flipped.json,255371,492786,44,Woman
54,525808,final-intermixed-textured,v2,jsons/MX_seq30_0_VE125_flipped.json,http://54.235.29.9/FacialAge/BNav_EC2/DepthDuration/MX_fS_VE_MTurk/MX_fS_HTML.html#93,93,1737,840,1920,1080,1-12-2024,13-36-28,55,VR_target_stimuli/s33_1x_3.1_366_BC.png,125,1x,3.1,3,2486,129,meters,jsons/MX_seq30_0_VE125_flipped.json,255371,492786,44,Woman
55,525808,final-intermixed-textured,v2,jsons/MX_seq30_0_VE125_flipped.json,http://54.235.29.9/FacialAge/BNav_EC2/DepthDuration/MX_fS_VE_MTurk/MX_fS_HTML.html#93,93,1737,840,1920,1080,1-12-2024,13-36-28,56,VR_target_stimuli/s52_0.75x_3.2_270_BC.png,125,0.75x,3.2,3,4101,126,meters,jsons/MX_seq30_0_VE125_flipped.json,255371,492786,44,Woman
56,525808,final-intermixed-textured,v2,jsons/MX_seq30_0_VE125_flipped.json,http://54.235.29.9/FacialAge/BNav_EC2/DepthDuration/MX_fS_VE_MTurk/MX_fS_HTML.html#93,93,1737,840,1920,1080,1-12-2024,13-36-28,57,VR_target_stimuli/s32_1.3x_1.5_224.png,125,1.3x,1.5,3,2874,111,meters,jsons/MX_seq30_0_VE125_flipped.json,255371,492786,44,Woman
57,525808,final-intermixed-textured,v2,jsons/MX_seq30_0_VE125_flipped.json,http://54.235.29.9/FacialAge/BNav_EC2/DepthDuration/MX_fS_VE_MTurk/MX_fS_HTML.html#93,93,1737,840,1920,1080,1-12-2024,13-36-28,58,VR_target_stimuli/s18_1.3x_2.25_368_BC.png,125,1.3x,2.25,3,2176,120,meters,jsons/MX_seq30_0_VE125_flipped.json,255371,492786,44,Woman
58,525808,final-intermixed-textured,v2,jsons/MX_seq30_0_VE125_flipped.json,http://54.235.29.9/FacialAge/BNav_EC2/DepthDuration/MX_fS_VE_MTurk/MX_fS_HTML.html#93,93,1737,840,1920,1080,1-12-2024,13-36-28,59,VR_target_stimuli/s39_1x_1_207.png,125,1x,1.0,2,2554,124,meters,jsons/MX_seq30_0_VE125_flipped.json,255371,492786,44,Woman
59,525808,final-intermixed-textured,v2,jsons/MX_seq30_0_VE125_flipped.json,http://54.235.29.9/FacialAge/BNav_EC2/DepthDuration/MX_fS_VE_MTurk/MX_fS_HTML.html#93,93,1737,840,1920,1080,1-12-2024,13-36-28,60,VR_target_stimuli/s51_0.75x_3.64_460.png,125,0.75x,3.64,3,2553,71,meters,jsons/MX_seq30_0_VE125_flipped.json,255371,492786,44,Woman
