,subjID,experimentName,versionName,sequenceName,url,selected_row,windowWidth,windowHeight,screenWidth,screenHeight,startDate,startTime,trial,stimulus,duration,scale,actual_depth,depth_estimate,trial_RT,log_sceneDuration,unitSelection,seq_filepath,experimentTime,totalTime,age,gender
0,528379,final-intermixed-textured,v2,jsons/MX_seq43_2_VE125.json,http://54.235.29.9/FacialAge/BNav_EC2/DepthDuration/MX_fS_VE_MTurk/MX_fS_HTML.html#203,203,2552,1318,2560,1440,1-12-2024,22-52-22,1,VR_target_stimuli/s5_1x_4_378_BC.png,125,1x,4.0,19,3270,130,meters,jsons/MX_seq43_2_VE125.json,157650,257989,23,Man
1,528379,final-intermixed-textured,v2,jsons/MX_seq43_2_VE125.json,http://54.235.29.9/FacialAge/BNav_EC2/DepthDuration/MX_fS_VE_MTurk/MX_fS_HTML.html#203,203,2552,1318,2560,1440,1-12-2024,22-52-22,2,VR_target_stimuli/s37_1.3x_3.3_555.png,125,1.3x,3.3,7,2364,127,meters,jsons/MX_seq43_2_VE125.json,157650,257989,23,Man
2,528379,final-intermixed-textured,v2,jsons/MX_seq43_2_VE125.json,http://54.235.29.9/FacialAge/BNav_EC2/DepthDuration/MX_fS_VE_MTurk/MX_fS_HTML.html#203,203,2552,1318,2560,1440,1-12-2024,22-52-22,3,VR_target_stimuli/s46_0.75x_2.42_343.png,125,0.75x,2.42,9,2299,124,meters,jsons/MX_seq43_2_VE125.json,157650,257989,23,Man
3,528379,final-intermixed-textured,v2,jsons/MX_seq43_2_VE125.json,http://54.235.29.9/FacialAge/BNav_EC2/DepthDuration/MX_fS_VE_MTurk/MX_fS_HTML.html#203,203,2552,1318,2560,1440,1-12-2024,22-52-22,4,VR_target_stimuli/s22_1.3x_4.29_364_BC.png,125,1.3x,4.29,7,2863,123,meters,jsons/MX_seq43_2_VE125.json,157650,257989,23,Man
4,528379,final-intermixed-textured,v2,jsons/MX_seq43_2_VE125.json,http://54.235.29.9/FacialAge/BNav_EC2/DepthDuration/MX_fS_VE_MTurk/MX_fS_HTML.html#203,203,2552,1318,2560,1440,1-12-2024,22-52-22,5,VR_target_stimuli/s42_1x_3.2_303.png,125,1x,3.2,5,2360,122,meters,jsons/MX_seq43_2_VE125.json,157650,257989,23,Man
5,528379,final-intermixed-textured,v2,jsons/MX_seq43_2_VE125.json,http://54.235.29.9/FacialAge/BNav_EC2/DepthDuration/MX_fS_VE_MTurk/MX_fS_HTML.html#203,203,2552,1318,2560,1440,1-12-2024,22-52-22,6,VR_target_stimuli/s25_0.75x_1.4_281_BC.png,125,0.75x,1.4,3,1409,122,meters,jsons/MX_seq43_2_VE125.json,157650,257989,23,Man
6,528379,final-intermixed-textured,v2,jsons/MX_seq43_2_VE125.json,http://54.235.29.9/FacialAge/BNav_EC2/DepthDuration/MX_fS_VE_MTurk/MX_fS_HTML.html#203,203,2552,1318,2560,1440,1-12-2024,22-52-22,7,catch_stimuli/c0.png,125,,,0,1941,128,meters,jsons/MX_seq43_2_VE125.json,157650,257989,23,Man
7,528379,final-intermixed-textured,v2,jsons/MX_seq43_2_VE125.json,http://54.235.29.9/FacialAge/BNav_EC2/DepthDuration/MX_fS_VE_MTurk/MX_fS_HTML.html#203,203,2552,1318,2560,1440,1-12-2024,22-52-22,8,VR_target_stimuli/s50_0.75x_4.53_517_BC.png,125,0.75x,4.53,0,2012,127,meters,jsons/MX_seq43_2_VE125.json,157650,257989,23,Man
8,528379,final-intermixed-textured,v2,jsons/MX_seq43_2_VE125.json,http://54.235.29.9/FacialAge/BNav_EC2/DepthDuration/MX_fS_VE_MTurk/MX_fS_HTML.html#203,203,2552,1318,2560,1440,1-12-2024,22-52-22,9,VR_target_stimuli/s53_1.3x_1.6_355_BC.png,125,1.3x,1.6,4,3294,133,meters,jsons/MX_seq43_2_VE125.json,157650,257989,23,Man
9,528379,final-intermixed-textured,v2,jsons/MX_seq43_2_VE125.json,http://54.235.29.9/FacialAge/BNav_EC2/DepthDuration/MX_fS_VE_MTurk/MX_fS_HTML.html#203,203,2552,1318,2560,1440,1-12-2024,22-52-22,10,VR_target_stimuli/s38_1x_3.55_353.png,125,1x,3.55,9,3007,128,meters,jsons/MX_seq43_2_VE125.json,157650,257989,23,Man
10,528379,final-intermixed-textured,v2,jsons/MX_seq43_2_VE125.json,http://54.235.29.9/FacialAge/BNav_EC2/DepthDuration/MX_fS_VE_MTurk/MX_fS_HTML.html#203,203,2552,1318,2560,1440,1-12-2024,22-52-22,11,VR_target_stimuli/s9_1.3x_1.2_276.png,125,1.3x,1.2,4,1456,124,meters,jsons/MX_seq43_2_VE125.json,157650,257989,23,Man
11,528379,final-intermixed-textured,v2,jsons/MX_seq43_2_VE125.json,http://54.235.29.9/FacialAge/BNav_EC2/DepthDuration/MX_fS_VE_MTurk/MX_fS_HTML.html#203,203,2552,1318,2560,1440,1-12-2024,22-52-22,12,VR_target_stimuli/s44_0.75x_4.4_314.png,125,0.75x,4.4,7,1743,128,meters,jsons/MX_seq43_2_VE125.json,157650,257989,23,Man
12,528379,final-intermixed-textured,v2,jsons/MX_seq43_2_VE125.json,http://54.235.29.9/FacialAge/BNav_EC2/DepthDuration/MX_fS_VE_MTurk/MX_fS_HTML.html#203,203,2552,1318,2560,1440,1-12-2024,22-52-22,13,VR_target_stimuli/s3_1x_5_385_BC.png,125,1x,5.0,13,2064,126,meters,jsons/MX_seq43_2_VE125.json,157650,257989,23,Man
13,528379,final-intermixed-textured,v2,jsons/MX_seq43_2_VE125.json,http://54.235.29.9/FacialAge/BNav_EC2/DepthDuration/MX_fS_VE_MTurk/MX_fS_HTML.html#203,203,2552,1318,2560,1440,1-12-2024,22-52-22,14,VR_target_stimuli/s1_0.75x_1.7_265.png,125,0.75x,1.7,5,1555,127,meters,jsons/MX_seq43_2_VE125.json,157650,257989,23,Man
14,528379,final-intermixed-textured,v2,jsons/MX_seq43_2_VE125.json,http://54.235.29.9/FacialAge/BNav_EC2/DepthDuration/MX_fS_VE_MTurk/MX_fS_HTML.html#203,203,2552,1318,2560,1440,1-12-2024,22-52-22,15,VR_target_stimuli/s11_1.3x_5_363_BC.png,125,1.3x,5.0,7,1493,127,meters,jsons/MX_seq43_2_VE125.json,157650,257989,23,Man
15,528379,final-intermixed-textured,v2,jsons/MX_seq43_2_VE125.json,http://54.235.29.9/FacialAge/BNav_EC2/DepthDuration/MX_fS_VE_MTurk/MX_fS_HTML.html#203,203,2552,1318,2560,1440,1-12-2024,22-52-22,16,VR_target_stimuli/s2_1x_2.7_390_BC.png,125,1x,2.7,4,1279,122,meters,jsons/MX_seq43_2_VE125.json,157650,257989,23,Man
16,528379,final-intermixed-textured,v2,jsons/MX_seq43_2_VE125.json,http://54.235.29.9/FacialAge/BNav_EC2/DepthDuration/MX_fS_VE_MTurk/MX_fS_HTML.html#203,203,2552,1318,2560,1440,1-12-2024,22-52-22,17,catch_stimuli/c1.png,125,,,0,1891,128,meters,jsons/MX_seq43_2_VE125.json,157650,257989,23,Man
17,528379,final-intermixed-textured,v2,jsons/MX_seq43_2_VE125.json,http://54.235.29.9/FacialAge/BNav_EC2/DepthDuration/MX_fS_VE_MTurk/MX_fS_HTML.html#203,203,2552,1318,2560,1440,1-12-2024,22-52-22,18,VR_target_stimuli/s6_1x_2.1_293.png,125,1x,2.1,6,1524,125,meters,jsons/MX_seq43_2_VE125.json,157650,257989,23,Man
18,528379,final-intermixed-textured,v2,jsons/MX_seq43_2_VE125.json,http://54.235.29.9/FacialAge/BNav_EC2/DepthDuration/MX_fS_VE_MTurk/MX_fS_HTML.html#203,203,2552,1318,2560,1440,1-12-2024,22-52-22,19,VR_target_stimuli/s0_0.75x_2.6_345_BC.png,125,0.75x,2.6,4,1278,108,meters,jsons/MX_seq43_2_VE125.json,157650,257989,23,Man
19,528379,final-intermixed-textured,v2,jsons/MX_seq43_2_VE125.json,http://54.235.29.9/FacialAge/BNav_EC2/DepthDuration/MX_fS_VE_MTurk/MX_fS_HTML.html#203,203,2552,1318,2560,1440,1-12-2024,22-52-22,20,VR_target_stimuli/s34_1.3x_2.8_294.png,125,1.3x,2.8,6,1798,122,meters,jsons/MX_seq43_2_VE125.json,157650,257989,23,Man
20,528379,final-intermixed-textured,v2,jsons/MX_seq43_2_VE125.json,http://54.235.29.9/FacialAge/BNav_EC2/DepthDuration/MX_fS_VE_MTurk/MX_fS_HTML.html#203,203,2552,1318,2560,1440,1-12-2024,22-52-22,21,VR_target_stimuli/s13_0.75x_2.4_308.png,125,0.75x,2.4,6,1148,127,meters,jsons/MX_seq43_2_VE125.json,157650,257989,23,Man
21,528379,final-intermixed-textured,v2,jsons/MX_seq43_2_VE125.json,http://54.235.29.9/FacialAge/BNav_EC2/DepthDuration/MX_fS_VE_MTurk/MX_fS_HTML.html#203,203,2552,1318,2560,1440,1-12-2024,22-52-22,22,VR_target_stimuli/s14_1x_ 3.83_357.png,125,1x,3.83,7,1404,125,meters,jsons/MX_seq43_2_VE125.json,157650,257989,23,Man
22,528379,final-intermixed-textured,v2,jsons/MX_seq43_2_VE125.json,http://54.235.29.9/FacialAge/BNav_EC2/DepthDuration/MX_fS_VE_MTurk/MX_fS_HTML.html#203,203,2552,1318,2560,1440,1-12-2024,22-52-22,23,VR_target_stimuli/s47_1.3x_3.45_373_BC.png,125,1.3x,3.45,4,1210,128,meters,jsons/MX_seq43_2_VE125.json,157650,257989,23,Man
23,528379,final-intermixed-textured,v2,jsons/MX_seq43_2_VE125.json,http://54.235.29.9/FacialAge/BNav_EC2/DepthDuration/MX_fS_VE_MTurk/MX_fS_HTML.html#203,203,2552,1318,2560,1440,1-12-2024,22-52-22,24,VR_target_stimuli/s29_1x_1.3_250_BC.png,125,1x,1.3,3,1097,128,meters,jsons/MX_seq43_2_VE125.json,157650,257989,23,Man
24,528379,final-intermixed-textured,v2,jsons/MX_seq43_2_VE125.json,http://54.235.29.9/FacialAge/BNav_EC2/DepthDuration/MX_fS_VE_MTurk/MX_fS_HTML.html#203,203,2552,1318,2560,1440,1-12-2024,22-52-22,25,VR_target_stimuli/s28_0.75x_3.2_357_BC.png,125,0.75x,3.2,7,1656,128,meters,jsons/MX_seq43_2_VE125.json,157650,257989,23,Man
25,528379,final-intermixed-textured,v2,jsons/MX_seq43_2_VE125.json,http://54.235.29.9/FacialAge/BNav_EC2/DepthDuration/MX_fS_VE_MTurk/MX_fS_HTML.html#203,203,2552,1318,2560,1440,1-12-2024,22-52-22,26,catch_stimuli/c2.png,125,,,0,1838,122,meters,jsons/MX_seq43_2_VE125.json,157650,257989,23,Man
26,528379,final-intermixed-textured,v2,jsons/MX_seq43_2_VE125.json,http://54.235.29.9/FacialAge/BNav_EC2/DepthDuration/MX_fS_VE_MTurk/MX_fS_HTML.html#203,203,2552,1318,2560,1440,1-12-2024,22-52-22,27,VR_target_stimuli/s48_1.3x_2.55_255.png,125,1.3x,2.55,6,1499,122,meters,jsons/MX_seq43_2_VE125.json,157650,257989,23,Man
27,528379,final-intermixed-textured,v2,jsons/MX_seq43_2_VE125.json,http://54.235.29.9/FacialAge/BNav_EC2/DepthDuration/MX_fS_VE_MTurk/MX_fS_HTML.html#203,203,2552,1318,2560,1440,1-12-2024,22-52-22,28,VR_target_stimuli/s19_1.3x_1.21_270.png,125,1.3x,1.21,4,1174,122,meters,jsons/MX_seq43_2_VE125.json,157650,257989,23,Man
28,528379,final-intermixed-textured,v2,jsons/MX_seq43_2_VE125.json,http://54.235.29.9/FacialAge/BNav_EC2/DepthDuration/MX_fS_VE_MTurk/MX_fS_HTML.html#203,203,2552,1318,2560,1440,1-12-2024,22-52-22,29,VR_target_stimuli/s21_1x_4.22_379_BC.png,125,1x,4.22,13,2027,110,meters,jsons/MX_seq43_2_VE125.json,157650,257989,23,Man
29,528379,final-intermixed-textured,v2,jsons/MX_seq43_2_VE125.json,http://54.235.29.9/FacialAge/BNav_EC2/DepthDuration/MX_fS_VE_MTurk/MX_fS_HTML.html#203,203,2552,1318,2560,1440,1-12-2024,22-52-22,30,VR_target_stimuli/s8_0.75x_3.1_325.png,125,0.75x,3.1,7,1655,123,meters,jsons/MX_seq43_2_VE125.json,157650,257989,23,Man
30,528379,final-intermixed-textured,v2,jsons/MX_seq43_2_VE125.json,http://54.235.29.9/FacialAge/BNav_EC2/DepthDuration/MX_fS_VE_MTurk/MX_fS_HTML.html#203,203,2552,1318,2560,1440,1-12-2024,22-52-22,31,VR_target_stimuli/s27_1.3x_1.76_250_BC.png,125,1.3x,1.76,0,21455,124,meters,jsons/MX_seq43_2_VE125.json,157650,257989,23,Man
31,528379,final-intermixed-textured,v2,jsons/MX_seq43_2_VE125.json,http://54.235.29.9/FacialAge/BNav_EC2/DepthDuration/MX_fS_VE_MTurk/MX_fS_HTML.html#203,203,2552,1318,2560,1440,1-12-2024,22-52-22,32,VR_target_stimuli/s15_0.75x_4.2_388_BC.png,125,0.75x,4.2,9,1966,128,meters,jsons/MX_seq43_2_VE125.json,157650,257989,23,Man
32,528379,final-intermixed-textured,v2,jsons/MX_seq43_2_VE125.json,http://54.235.29.9/FacialAge/BNav_EC2/DepthDuration/MX_fS_VE_MTurk/MX_fS_HTML.html#203,203,2552,1318,2560,1440,1-12-2024,22-52-22,33,VR_target_stimuli/s4_1x_1.4_313.png,125,1x,1.4,3,1373,127,meters,jsons/MX_seq43_2_VE125.json,157650,257989,23,Man
33,528379,final-intermixed-textured,v2,jsons/MX_seq43_2_VE125.json,http://54.235.29.9/FacialAge/BNav_EC2/DepthDuration/MX_fS_VE_MTurk/MX_fS_HTML.html#203,203,2552,1318,2560,1440,1-12-2024,22-52-22,34,catch_stimuli/c3.png,125,,,0,1791,128,meters,jsons/MX_seq43_2_VE125.json,157650,257989,23,Man
34,528379,final-intermixed-textured,v2,jsons/MX_seq43_2_VE125.json,http://54.235.29.9/FacialAge/BNav_EC2/DepthDuration/MX_fS_VE_MTurk/MX_fS_HTML.html#203,203,2552,1318,2560,1440,1-12-2024,22-52-22,35,VR_target_stimuli/s35_0.75x_2_323_BC.png,125,0.75x,2.0,7,2588,128,meters,jsons/MX_seq43_2_VE125.json,157650,257989,23,Man
35,528379,final-intermixed-textured,v2,jsons/MX_seq43_2_VE125.json,http://54.235.29.9/FacialAge/BNav_EC2/DepthDuration/MX_fS_VE_MTurk/MX_fS_HTML.html#203,203,2552,1318,2560,1440,1-12-2024,22-52-22,36,VR_target_stimuli/s49_1.3x_4.67_354_BC.png,125,1.3x,4.67,14,1597,124,meters,jsons/MX_seq43_2_VE125.json,157650,257989,23,Man
36,528379,final-intermixed-textured,v2,jsons/MX_seq43_2_VE125.json,http://54.235.29.9/FacialAge/BNav_EC2/DepthDuration/MX_fS_VE_MTurk/MX_fS_HTML.html#203,203,2552,1318,2560,1440,1-12-2024,22-52-22,37,VR_target_stimuli/s7_1x_1.5_255.png,125,1x,1.5,6,1323,128,meters,jsons/MX_seq43_2_VE125.json,157650,257989,23,Man
37,528379,final-intermixed-textured,v2,jsons/MX_seq43_2_VE125.json,http://54.235.29.9/FacialAge/BNav_EC2/DepthDuration/MX_fS_VE_MTurk/MX_fS_HTML.html#203,203,2552,1318,2560,1440,1-12-2024,22-52-22,38,VR_target_stimuli/s20_1x_4.99_398_BC.png,125,1x,4.99,9,1951,137,meters,jsons/MX_seq43_2_VE125.json,157650,257989,23,Man
38,528379,final-intermixed-textured,v2,jsons/MX_seq43_2_VE125.json,http://54.235.29.9/FacialAge/BNav_EC2/DepthDuration/MX_fS_VE_MTurk/MX_fS_HTML.html#203,203,2552,1318,2560,1440,1-12-2024,22-52-22,39,VR_target_stimuli/s31_0.75x_4.96_329.png,125,0.75x,4.96,8,1658,125,meters,jsons/MX_seq43_2_VE125.json,157650,257989,23,Man
39,528379,final-intermixed-textured,v2,jsons/MX_seq43_2_VE125.json,http://54.235.29.9/FacialAge/BNav_EC2/DepthDuration/MX_fS_VE_MTurk/MX_fS_HTML.html#203,203,2552,1318,2560,1440,1-12-2024,22-52-22,40,VR_target_stimuli/s33_1.3x_3.1_378.png,125,1.3x,3.1,6,1846,123,meters,jsons/MX_seq43_2_VE125.json,157650,257989,23,Man
40,528379,final-intermixed-textured,v2,jsons/MX_seq43_2_VE125.json,http://54.235.29.9/FacialAge/BNav_EC2/DepthDuration/MX_fS_VE_MTurk/MX_fS_HTML.html#203,203,2552,1318,2560,1440,1-12-2024,22-52-22,41,VR_target_stimuli/s52_0.75x_3.2_270.png,125,0.75x,3.2,9,2063,131,meters,jsons/MX_seq43_2_VE125.json,157650,257989,23,Man
41,528379,final-intermixed-textured,v2,jsons/MX_seq43_2_VE125.json,http://54.235.29.9/FacialAge/BNav_EC2/DepthDuration/MX_fS_VE_MTurk/MX_fS_HTML.html#203,203,2552,1318,2560,1440,1-12-2024,22-52-22,42,VR_target_stimuli/s32_1x_1.5_218.png,125,1x,1.5,1,1340,124,meters,jsons/MX_seq43_2_VE125.json,157650,257989,23,Man
42,528379,final-intermixed-textured,v2,jsons/MX_seq43_2_VE125.json,http://54.235.29.9/FacialAge/BNav_EC2/DepthDuration/MX_fS_VE_MTurk/MX_fS_HTML.html#203,203,2552,1318,2560,1440,1-12-2024,22-52-22,43,VR_target_stimuli/s18_1.3x_2.25_368.png,125,1.3x,2.25,4,3753,112,meters,jsons/MX_seq43_2_VE125.json,157650,257989,23,Man
43,528379,final-intermixed-textured,v2,jsons/MX_seq43_2_VE125.json,http://54.235.29.9/FacialAge/BNav_EC2/DepthDuration/MX_fS_VE_MTurk/MX_fS_HTML.html#203,203,2552,1318,2560,1440,1-12-2024,22-52-22,44,VR_target_stimuli/s39_1x_1_207_BC.png,125,1x,1.0,6,1482,122,meters,jsons/MX_seq43_2_VE125.json,157650,257989,23,Man
44,528379,final-intermixed-textured,v2,jsons/MX_seq43_2_VE125.json,http://54.235.29.9/FacialAge/BNav_EC2/DepthDuration/MX_fS_VE_MTurk/MX_fS_HTML.html#203,203,2552,1318,2560,1440,1-12-2024,22-52-22,45,catch_stimuli/c4.png,125,,,0,1730,128,meters,jsons/MX_seq43_2_VE125.json,157650,257989,23,Man
45,528379,final-intermixed-textured,v2,jsons/MX_seq43_2_VE125.json,http://54.235.29.9/FacialAge/BNav_EC2/DepthDuration/MX_fS_VE_MTurk/MX_fS_HTML.html#203,203,2552,1318,2560,1440,1-12-2024,22-52-22,46,VR_target_stimuli/s51_0.75x_3.64_460_BC.png,125,0.75x,3.64,7,1467,112,meters,jsons/MX_seq43_2_VE125.json,157650,257989,23,Man
46,528379,final-intermixed-textured,v2,jsons/MX_seq43_2_VE125.json,http://54.235.29.9/FacialAge/BNav_EC2/DepthDuration/MX_fS_VE_MTurk/MX_fS_HTML.html#203,203,2552,1318,2560,1440,1-12-2024,22-52-22,47,VR_target_stimuli/s43_1.3x_2.2_363_BC.png,125,1.3x,2.2,7,1583,127,meters,jsons/MX_seq43_2_VE125.json,157650,257989,23,Man
47,528379,final-intermixed-textured,v2,jsons/MX_seq43_2_VE125.json,http://54.235.29.9/FacialAge/BNav_EC2/DepthDuration/MX_fS_VE_MTurk/MX_fS_HTML.html#203,203,2552,1318,2560,1440,1-12-2024,22-52-22,48,VR_target_stimuli/s24_1.3x_3.3_352.png,125,1.3x,3.3,5,1265,128,meters,jsons/MX_seq43_2_VE125.json,157650,257989,23,Man
48,528379,final-intermixed-textured,v2,jsons/MX_seq43_2_VE125.json,http://54.235.29.9/FacialAge/BNav_EC2/DepthDuration/MX_fS_VE_MTurk/MX_fS_HTML.html#203,203,2552,1318,2560,1440,1-12-2024,22-52-22,49,VR_target_stimuli/s10_1x_2.7_324.png,125,1x,2.7,6,1368,128,meters,jsons/MX_seq43_2_VE125.json,157650,257989,23,Man
49,528379,final-intermixed-textured,v2,jsons/MX_seq43_2_VE125.json,http://54.235.29.9/FacialAge/BNav_EC2/DepthDuration/MX_fS_VE_MTurk/MX_fS_HTML.html#203,203,2552,1318,2560,1440,1-12-2024,22-52-22,50,VR_target_stimuli/s36_0.75x_4.1_407_BC.png,125,0.75x,4.1,12,2152,128,meters,jsons/MX_seq43_2_VE125.json,157650,257989,23,Man
50,528379,final-intermixed-textured,v2,jsons/MX_seq43_2_VE125.json,http://54.235.29.9/FacialAge/BNav_EC2/DepthDuration/MX_fS_VE_MTurk/MX_fS_HTML.html#203,203,2552,1318,2560,1440,1-12-2024,22-52-22,51,VR_target_stimuli/s40_1x_1.2_319_BC.png,125,1x,1.2,6,1967,128,meters,jsons/MX_seq43_2_VE125.json,157650,257989,23,Man
51,528379,final-intermixed-textured,v2,jsons/MX_seq43_2_VE125.json,http://54.235.29.9/FacialAge/BNav_EC2/DepthDuration/MX_fS_VE_MTurk/MX_fS_HTML.html#203,203,2552,1318,2560,1440,1-12-2024,22-52-22,52,VR_target_stimuli/s41_1.3x_2.1_294_BC.png,125,1.3x,2.1,8,1712,123,meters,jsons/MX_seq43_2_VE125.json,157650,257989,23,Man
52,528379,final-intermixed-textured,v2,jsons/MX_seq43_2_VE125.json,http://54.235.29.9/FacialAge/BNav_EC2/DepthDuration/MX_fS_VE_MTurk/MX_fS_HTML.html#203,203,2552,1318,2560,1440,1-12-2024,22-52-22,53,catch_stimuli/c5.png,125,,,0,1981,123,meters,jsons/MX_seq43_2_VE125.json,157650,257989,23,Man
53,528379,final-intermixed-textured,v2,jsons/MX_seq43_2_VE125.json,http://54.235.29.9/FacialAge/BNav_EC2/DepthDuration/MX_fS_VE_MTurk/MX_fS_HTML.html#203,203,2552,1318,2560,1440,1-12-2024,22-52-22,54,VR_target_stimuli/s45_0.75x_3.5_362.png,125,0.75x,3.5,7,1452,112,meters,jsons/MX_seq43_2_VE125.json,157650,257989,23,Man
54,528379,final-intermixed-textured,v2,jsons/MX_seq43_2_VE125.json,http://54.235.29.9/FacialAge/BNav_EC2/DepthDuration/MX_fS_VE_MTurk/MX_fS_HTML.html#203,203,2552,1318,2560,1440,1-12-2024,22-52-22,55,VR_target_stimuli/s23_1.3x_3.65_354_BC.png,125,1.3x,3.65,5,1307,122,meters,jsons/MX_seq43_2_VE125.json,157650,257989,23,Man
55,528379,final-intermixed-textured,v2,jsons/MX_seq43_2_VE125.json,http://54.235.29.9/FacialAge/BNav_EC2/DepthDuration/MX_fS_VE_MTurk/MX_fS_HTML.html#203,203,2552,1318,2560,1440,1-12-2024,22-52-22,56,VR_target_stimuli/s26_1x_4_433_BC.png,125,1x,4.0,7,1461,128,meters,jsons/MX_seq43_2_VE125.json,157650,257989,23,Man
56,528379,final-intermixed-textured,v2,jsons/MX_seq43_2_VE125.json,http://54.235.29.9/FacialAge/BNav_EC2/DepthDuration/MX_fS_VE_MTurk/MX_fS_HTML.html#203,203,2552,1318,2560,1440,1-12-2024,22-52-22,57,VR_target_stimuli/s12_0.75x_3.1_364_BC.png,125,0.75x,3.1,8,1881,122,meters,jsons/MX_seq43_2_VE125.json,157650,257989,23,Man
57,528379,final-intermixed-textured,v2,jsons/MX_seq43_2_VE125.json,http://54.235.29.9/FacialAge/BNav_EC2/DepthDuration/MX_fS_VE_MTurk/MX_fS_HTML.html#203,203,2552,1318,2560,1440,1-12-2024,22-52-22,58,VR_target_stimuli/s30_0.75x_2.3_332.png,125,0.75x,2.3,7,1593,126,meters,jsons/MX_seq43_2_VE125.json,157650,257989,23,Man
58,528379,final-intermixed-textured,v2,jsons/MX_seq43_2_VE125.json,http://54.235.29.9/FacialAge/BNav_EC2/DepthDuration/MX_fS_VE_MTurk/MX_fS_HTML.html#203,203,2552,1318,2560,1440,1-12-2024,22-52-22,59,VR_target_stimuli/s16_1.3x_1_223.png,125,1.3x,1.0,4,1268,129,meters,jsons/MX_seq43_2_VE125.json,157650,257989,23,Man
59,528379,final-intermixed-textured,v2,jsons/MX_seq43_2_VE125.json,http://54.235.29.9/FacialAge/BNav_EC2/DepthDuration/MX_fS_VE_MTurk/MX_fS_HTML.html#203,203,2552,1318,2560,1440,1-12-2024,22-52-22,60,VR_target_stimuli/s17_1x_1.8_291.png,125,1x,1.8,6,1242,128,meters,jsons/MX_seq43_2_VE125.json,157650,257989,23,Man
