,subjID,experimentName,versionName,sequenceName,url,selected_row,windowWidth,windowHeight,screenWidth,screenHeight,startDate,startTime,trial,stimulus,duration,scale,actual_depth,depth_estimate,trial_RT,log_sceneDuration,unitSelection,seq_filepath,experimentTime,totalTime,age,gender
0,530179,final-intermixed-textured,v2,jsons/MX_seq40_0_VE125_flipped.json,http://54.235.29.9/FacialAge/BNav_EC2/DepthDuration/MX_fS_VE_MTurk/MX_fS_HTML.html#252,252,1920,1080,1920,1080,1-12-2024,16-23-4,1,VR_target_stimuli/s30_0.75x_2.3_332_BC.png,125,0.75x,2.3,0,3691,123,meters,jsons/MX_seq40_0_VE125_flipped.json,132064,285946,22,Man
1,530179,final-intermixed-textured,v2,jsons/MX_seq40_0_VE125_flipped.json,http://54.235.29.9/FacialAge/BNav_EC2/DepthDuration/MX_fS_VE_MTurk/MX_fS_HTML.html#252,252,1920,1080,1920,1080,1-12-2024,16-23-4,2,VR_target_stimuli/s16_1x_1_219.png,125,1x,1.0,1,1667,125,meters,jsons/MX_seq40_0_VE125_flipped.json,132064,285946,22,Man
2,530179,final-intermixed-textured,v2,jsons/MX_seq40_0_VE125_flipped.json,http://54.235.29.9/FacialAge/BNav_EC2/DepthDuration/MX_fS_VE_MTurk/MX_fS_HTML.html#252,252,1920,1080,1920,1080,1-12-2024,16-23-4,3,VR_target_stimuli/s17_1.3x_1.8_300.png,125,1.3x,1.8,1,1758,126,meters,jsons/MX_seq40_0_VE125_flipped.json,132064,285946,22,Man
3,530179,final-intermixed-textured,v2,jsons/MX_seq40_0_VE125_flipped.json,http://54.235.29.9/FacialAge/BNav_EC2/DepthDuration/MX_fS_VE_MTurk/MX_fS_HTML.html#252,252,1920,1080,1920,1080,1-12-2024,16-23-4,4,VR_target_stimuli/s5_1x_4_378_BC.png,125,1x,4.0,1,1460,125,meters,jsons/MX_seq40_0_VE125_flipped.json,132064,285946,22,Man
4,530179,final-intermixed-textured,v2,jsons/MX_seq40_0_VE125_flipped.json,http://54.235.29.9/FacialAge/BNav_EC2/DepthDuration/MX_fS_VE_MTurk/MX_fS_HTML.html#252,252,1920,1080,1920,1080,1-12-2024,16-23-4,5,VR_target_stimuli/s37_0.75x_3.3_567.png,125,0.75x,3.3,3,1805,123,meters,jsons/MX_seq40_0_VE125_flipped.json,132064,285946,22,Man
5,530179,final-intermixed-textured,v2,jsons/MX_seq40_0_VE125_flipped.json,http://54.235.29.9/FacialAge/BNav_EC2/DepthDuration/MX_fS_VE_MTurk/MX_fS_HTML.html#252,252,1920,1080,1920,1080,1-12-2024,16-23-4,6,VR_target_stimuli/s46_1.3x_2.42_354_BC.png,125,1.3x,2.42,3,2381,124,meters,jsons/MX_seq40_0_VE125_flipped.json,132064,285946,22,Man
6,530179,final-intermixed-textured,v2,jsons/MX_seq40_0_VE125_flipped.json,http://54.235.29.9/FacialAge/BNav_EC2/DepthDuration/MX_fS_VE_MTurk/MX_fS_HTML.html#252,252,1920,1080,1920,1080,1-12-2024,16-23-4,7,catch_stimuli/c0_BC.png,125,,,3,1414,126,meters,jsons/MX_seq40_0_VE125_flipped.json,132064,285946,22,Man
7,530179,final-intermixed-textured,v2,jsons/MX_seq40_0_VE125_flipped.json,http://54.235.29.9/FacialAge/BNav_EC2/DepthDuration/MX_fS_VE_MTurk/MX_fS_HTML.html#252,252,1920,1080,1920,1080,1-12-2024,16-23-4,8,VR_target_stimuli/s22_1.3x_4.29_364_BC.png,125,1.3x,4.29,4,1473,124,meters,jsons/MX_seq40_0_VE125_flipped.json,132064,285946,22,Man
8,530179,final-intermixed-textured,v2,jsons/MX_seq40_0_VE125_flipped.json,http://54.235.29.9/FacialAge/BNav_EC2/DepthDuration/MX_fS_VE_MTurk/MX_fS_HTML.html#252,252,1920,1080,1920,1080,1-12-2024,16-23-4,9,VR_target_stimuli/s42_1x_3.2_303.png,125,1x,3.2,5,1185,122,meters,jsons/MX_seq40_0_VE125_flipped.json,132064,285946,22,Man
9,530179,final-intermixed-textured,v2,jsons/MX_seq40_0_VE125_flipped.json,http://54.235.29.9/FacialAge/BNav_EC2/DepthDuration/MX_fS_VE_MTurk/MX_fS_HTML.html#252,252,1920,1080,1920,1080,1-12-2024,16-23-4,10,VR_target_stimuli/s25_0.75x_1.4_281.png,125,0.75x,1.4,3,2208,123,meters,jsons/MX_seq40_0_VE125_flipped.json,132064,285946,22,Man
10,530179,final-intermixed-textured,v2,jsons/MX_seq40_0_VE125_flipped.json,http://54.235.29.9/FacialAge/BNav_EC2/DepthDuration/MX_fS_VE_MTurk/MX_fS_HTML.html#252,252,1920,1080,1920,1080,1-12-2024,16-23-4,11,VR_target_stimuli/s50_1x_4.53_518_BC.png,125,1x,4.53,4,1457,127,meters,jsons/MX_seq40_0_VE125_flipped.json,132064,285946,22,Man
11,530179,final-intermixed-textured,v2,jsons/MX_seq40_0_VE125_flipped.json,http://54.235.29.9/FacialAge/BNav_EC2/DepthDuration/MX_fS_VE_MTurk/MX_fS_HTML.html#252,252,1920,1080,1920,1080,1-12-2024,16-23-4,12,VR_target_stimuli/s53_1.3x_1.6_355.png,125,1.3x,1.6,3,1982,139,meters,jsons/MX_seq40_0_VE125_flipped.json,132064,285946,22,Man
12,530179,final-intermixed-textured,v2,jsons/MX_seq40_0_VE125_flipped.json,http://54.235.29.9/FacialAge/BNav_EC2/DepthDuration/MX_fS_VE_MTurk/MX_fS_HTML.html#252,252,1920,1080,1920,1080,1-12-2024,16-23-4,13,VR_target_stimuli/s38_0.75x_3.55_346_BC.png,125,0.75x,3.55,5,1454,126,meters,jsons/MX_seq40_0_VE125_flipped.json,132064,285946,22,Man
13,530179,final-intermixed-textured,v2,jsons/MX_seq40_0_VE125_flipped.json,http://54.235.29.9/FacialAge/BNav_EC2/DepthDuration/MX_fS_VE_MTurk/MX_fS_HTML.html#252,252,1920,1080,1920,1080,1-12-2024,16-23-4,14,VR_target_stimuli/s9_1.3x_1.2_276.png,125,1.3x,1.2,4,1866,123,meters,jsons/MX_seq40_0_VE125_flipped.json,132064,285946,22,Man
14,530179,final-intermixed-textured,v2,jsons/MX_seq40_0_VE125_flipped.json,http://54.235.29.9/FacialAge/BNav_EC2/DepthDuration/MX_fS_VE_MTurk/MX_fS_HTML.html#252,252,1920,1080,1920,1080,1-12-2024,16-23-4,15,VR_target_stimuli/s44_1x_4.4_317.png,125,1x,4.4,5,1536,125,meters,jsons/MX_seq40_0_VE125_flipped.json,132064,285946,22,Man
15,530179,final-intermixed-textured,v2,jsons/MX_seq40_0_VE125_flipped.json,http://54.235.29.9/FacialAge/BNav_EC2/DepthDuration/MX_fS_VE_MTurk/MX_fS_HTML.html#252,252,1920,1080,1920,1080,1-12-2024,16-23-4,16,VR_target_stimuli/s3_0.75x_5_381.png,125,0.75x,5.0,5,1346,125,meters,jsons/MX_seq40_0_VE125_flipped.json,132064,285946,22,Man
16,530179,final-intermixed-textured,v2,jsons/MX_seq40_0_VE125_flipped.json,http://54.235.29.9/FacialAge/BNav_EC2/DepthDuration/MX_fS_VE_MTurk/MX_fS_HTML.html#252,252,1920,1080,1920,1080,1-12-2024,16-23-4,17,catch_stimuli/c1_BC.png,125,,,0,1779,126,meters,jsons/MX_seq40_0_VE125_flipped.json,132064,285946,22,Man
17,530179,final-intermixed-textured,v2,jsons/MX_seq40_0_VE125_flipped.json,http://54.235.29.9/FacialAge/BNav_EC2/DepthDuration/MX_fS_VE_MTurk/MX_fS_HTML.html#252,252,1920,1080,1920,1080,1-12-2024,16-23-4,18,VR_target_stimuli/s1_0.75x_1.7_265_BC.png,125,0.75x,1.7,4,1396,126,meters,jsons/MX_seq40_0_VE125_flipped.json,132064,285946,22,Man
18,530179,final-intermixed-textured,v2,jsons/MX_seq40_0_VE125_flipped.json,http://54.235.29.9/FacialAge/BNav_EC2/DepthDuration/MX_fS_VE_MTurk/MX_fS_HTML.html#252,252,1920,1080,1920,1080,1-12-2024,16-23-4,19,VR_target_stimuli/s11_1.3x_5_363_BC.png,125,1.3x,5.0,4,1791,117,meters,jsons/MX_seq40_0_VE125_flipped.json,132064,285946,22,Man
19,530179,final-intermixed-textured,v2,jsons/MX_seq40_0_VE125_flipped.json,http://54.235.29.9/FacialAge/BNav_EC2/DepthDuration/MX_fS_VE_MTurk/MX_fS_HTML.html#252,252,1920,1080,1920,1080,1-12-2024,16-23-4,20,VR_target_stimuli/s2_1x_2.7_390_BC.png,125,1x,2.7,3,1369,114,meters,jsons/MX_seq40_0_VE125_flipped.json,132064,285946,22,Man
20,530179,final-intermixed-textured,v2,jsons/MX_seq40_0_VE125_flipped.json,http://54.235.29.9/FacialAge/BNav_EC2/DepthDuration/MX_fS_VE_MTurk/MX_fS_HTML.html#252,252,1920,1080,1920,1080,1-12-2024,16-23-4,21,VR_target_stimuli/s6_1.3x_2.1_298_BC.png,125,1.3x,2.1,3,1432,125,meters,jsons/MX_seq40_0_VE125_flipped.json,132064,285946,22,Man
21,530179,final-intermixed-textured,v2,jsons/MX_seq40_0_VE125_flipped.json,http://54.235.29.9/FacialAge/BNav_EC2/DepthDuration/MX_fS_VE_MTurk/MX_fS_HTML.html#252,252,1920,1080,1920,1080,1-12-2024,16-23-4,22,VR_target_stimuli/s0_0.75x_2.6_345.png,125,0.75x,2.6,3,1267,131,meters,jsons/MX_seq40_0_VE125_flipped.json,132064,285946,22,Man
22,530179,final-intermixed-textured,v2,jsons/MX_seq40_0_VE125_flipped.json,http://54.235.29.9/FacialAge/BNav_EC2/DepthDuration/MX_fS_VE_MTurk/MX_fS_HTML.html#252,252,1920,1080,1920,1080,1-12-2024,16-23-4,23,VR_target_stimuli/s34_1x_2.8_283_BC.png,125,1x,2.8,2,2350,123,meters,jsons/MX_seq40_0_VE125_flipped.json,132064,285946,22,Man
23,530179,final-intermixed-textured,v2,jsons/MX_seq40_0_VE125_flipped.json,http://54.235.29.9/FacialAge/BNav_EC2/DepthDuration/MX_fS_VE_MTurk/MX_fS_HTML.html#252,252,1920,1080,1920,1080,1-12-2024,16-23-4,24,VR_target_stimuli/s13_0.75x_2.4_308_BC.png,125,0.75x,2.4,2,2208,121,meters,jsons/MX_seq40_0_VE125_flipped.json,132064,285946,22,Man
24,530179,final-intermixed-textured,v2,jsons/MX_seq40_0_VE125_flipped.json,http://54.235.29.9/FacialAge/BNav_EC2/DepthDuration/MX_fS_VE_MTurk/MX_fS_HTML.html#252,252,1920,1080,1920,1080,1-12-2024,16-23-4,25,VR_target_stimuli/s14_1.3x_3.83_359.png,125,1.3x,3.83,3,1503,136,meters,jsons/MX_seq40_0_VE125_flipped.json,132064,285946,22,Man
25,530179,final-intermixed-textured,v2,jsons/MX_seq40_0_VE125_flipped.json,http://54.235.29.9/FacialAge/BNav_EC2/DepthDuration/MX_fS_VE_MTurk/MX_fS_HTML.html#252,252,1920,1080,1920,1080,1-12-2024,16-23-4,26,catch_stimuli/c2_BC.png,125,,,0,3179,125,meters,jsons/MX_seq40_0_VE125_flipped.json,132064,285946,22,Man
26,530179,final-intermixed-textured,v2,jsons/MX_seq40_0_VE125_flipped.json,http://54.235.29.9/FacialAge/BNav_EC2/DepthDuration/MX_fS_VE_MTurk/MX_fS_HTML.html#252,252,1920,1080,1920,1080,1-12-2024,16-23-4,27,VR_target_stimuli/s47_1x_3.45_370.png,125,1x,3.45,2,2177,124,meters,jsons/MX_seq40_0_VE125_flipped.json,132064,285946,22,Man
27,530179,final-intermixed-textured,v2,jsons/MX_seq40_0_VE125_flipped.json,http://54.235.29.9/FacialAge/BNav_EC2/DepthDuration/MX_fS_VE_MTurk/MX_fS_HTML.html#252,252,1920,1080,1920,1080,1-12-2024,16-23-4,28,VR_target_stimuli/s29_1x_1.3_250_BC.png,125,1x,1.3,2,1317,124,meters,jsons/MX_seq40_0_VE125_flipped.json,132064,285946,22,Man
28,530179,final-intermixed-textured,v2,jsons/MX_seq40_0_VE125_flipped.json,http://54.235.29.9/FacialAge/BNav_EC2/DepthDuration/MX_fS_VE_MTurk/MX_fS_HTML.html#252,252,1920,1080,1920,1080,1-12-2024,16-23-4,29,VR_target_stimuli/s28_0.75x_3.2_357_BC.png,125,0.75x,3.2,2,1571,123,meters,jsons/MX_seq40_0_VE125_flipped.json,132064,285946,22,Man
29,530179,final-intermixed-textured,v2,jsons/MX_seq40_0_VE125_flipped.json,http://54.235.29.9/FacialAge/BNav_EC2/DepthDuration/MX_fS_VE_MTurk/MX_fS_HTML.html#252,252,1920,1080,1920,1080,1-12-2024,16-23-4,30,VR_target_stimuli/s48_1.3x_2.55_255_BC.png,125,1.3x,2.55,3,1469,123,meters,jsons/MX_seq40_0_VE125_flipped.json,132064,285946,22,Man
30,530179,final-intermixed-textured,v2,jsons/MX_seq40_0_VE125_flipped.json,http://54.235.29.9/FacialAge/BNav_EC2/DepthDuration/MX_fS_VE_MTurk/MX_fS_HTML.html#252,252,1920,1080,1920,1080,1-12-2024,16-23-4,31,VR_target_stimuli/s19_1x_1.21_263.png,125,1x,1.21,3,1211,124,meters,jsons/MX_seq40_0_VE125_flipped.json,132064,285946,22,Man
31,530179,final-intermixed-textured,v2,jsons/MX_seq40_0_VE125_flipped.json,http://54.235.29.9/FacialAge/BNav_EC2/DepthDuration/MX_fS_VE_MTurk/MX_fS_HTML.html#252,252,1920,1080,1920,1080,1-12-2024,16-23-4,32,VR_target_stimuli/s21_1.3x_4.22_384.png,125,1.3x,4.22,5,1479,139,meters,jsons/MX_seq40_0_VE125_flipped.json,132064,285946,22,Man
32,530179,final-intermixed-textured,v2,jsons/MX_seq40_0_VE125_flipped.json,http://54.235.29.9/FacialAge/BNav_EC2/DepthDuration/MX_fS_VE_MTurk/MX_fS_HTML.html#252,252,1920,1080,1920,1080,1-12-2024,16-23-4,33,VR_target_stimuli/s8_0.75x_3.1_325.png,125,0.75x,3.1,4,2014,125,meters,jsons/MX_seq40_0_VE125_flipped.json,132064,285946,22,Man
33,530179,final-intermixed-textured,v2,jsons/MX_seq40_0_VE125_flipped.json,http://54.235.29.9/FacialAge/BNav_EC2/DepthDuration/MX_fS_VE_MTurk/MX_fS_HTML.html#252,252,1920,1080,1920,1080,1-12-2024,16-23-4,34,catch_stimuli/c3_BC.png,125,,,0,1668,123,meters,jsons/MX_seq40_0_VE125_flipped.json,132064,285946,22,Man
34,530179,final-intermixed-textured,v2,jsons/MX_seq40_0_VE125_flipped.json,http://54.235.29.9/FacialAge/BNav_EC2/DepthDuration/MX_fS_VE_MTurk/MX_fS_HTML.html#252,252,1920,1080,1920,1080,1-12-2024,16-23-4,35,VR_target_stimuli/s27_1.3x_1.76_250_BC.png,125,1.3x,1.76,3,1260,124,meters,jsons/MX_seq40_0_VE125_flipped.json,132064,285946,22,Man
35,530179,final-intermixed-textured,v2,jsons/MX_seq40_0_VE125_flipped.json,http://54.235.29.9/FacialAge/BNav_EC2/DepthDuration/MX_fS_VE_MTurk/MX_fS_HTML.html#252,252,1920,1080,1920,1080,1-12-2024,16-23-4,36,VR_target_stimuli/s15_1x_4.2_390_BC.png,125,1x,4.2,4,1422,124,meters,jsons/MX_seq40_0_VE125_flipped.json,132064,285946,22,Man
36,530179,final-intermixed-textured,v2,jsons/MX_seq40_0_VE125_flipped.json,http://54.235.29.9/FacialAge/BNav_EC2/DepthDuration/MX_fS_VE_MTurk/MX_fS_HTML.html#252,252,1920,1080,1920,1080,1-12-2024,16-23-4,37,VR_target_stimuli/s4_0.75x_1.4_301_BC.png,125,0.75x,1.4,3,1586,125,meters,jsons/MX_seq40_0_VE125_flipped.json,132064,285946,22,Man
37,530179,final-intermixed-textured,v2,jsons/MX_seq40_0_VE125_flipped.json,http://54.235.29.9/FacialAge/BNav_EC2/DepthDuration/MX_fS_VE_MTurk/MX_fS_HTML.html#252,252,1920,1080,1920,1080,1-12-2024,16-23-4,38,VR_target_stimuli/s35_0.75x_2_323.png,125,0.75x,2.0,3,1262,127,meters,jsons/MX_seq40_0_VE125_flipped.json,132064,285946,22,Man
38,530179,final-intermixed-textured,v2,jsons/MX_seq40_0_VE125_flipped.json,http://54.235.29.9/FacialAge/BNav_EC2/DepthDuration/MX_fS_VE_MTurk/MX_fS_HTML.html#252,252,1920,1080,1920,1080,1-12-2024,16-23-4,39,VR_target_stimuli/s49_1.3x_4.67_354.png,125,1.3x,4.67,0,1950,121,meters,jsons/MX_seq40_0_VE125_flipped.json,132064,285946,22,Man
39,530179,final-intermixed-textured,v2,jsons/MX_seq40_0_VE125_flipped.json,http://54.235.29.9/FacialAge/BNav_EC2/DepthDuration/MX_fS_VE_MTurk/MX_fS_HTML.html#252,252,1920,1080,1920,1080,1-12-2024,16-23-4,40,VR_target_stimuli/s7_1x_1.5_255.png,125,1x,1.5,3,1607,138,meters,jsons/MX_seq40_0_VE125_flipped.json,132064,285946,22,Man
40,530179,final-intermixed-textured,v2,jsons/MX_seq40_0_VE125_flipped.json,http://54.235.29.9/FacialAge/BNav_EC2/DepthDuration/MX_fS_VE_MTurk/MX_fS_HTML.html#252,252,1920,1080,1920,1080,1-12-2024,16-23-4,41,VR_target_stimuli/s20_1.3x_4.99_412_BC.png,125,1.3x,4.99,4,1301,134,meters,jsons/MX_seq40_0_VE125_flipped.json,132064,285946,22,Man
41,530179,final-intermixed-textured,v2,jsons/MX_seq40_0_VE125_flipped.json,http://54.235.29.9/FacialAge/BNav_EC2/DepthDuration/MX_fS_VE_MTurk/MX_fS_HTML.html#252,252,1920,1080,1920,1080,1-12-2024,16-23-4,42,VR_target_stimuli/s31_0.75x_4.96_329.png,125,0.75x,4.96,4,3161,118,meters,jsons/MX_seq40_0_VE125_flipped.json,132064,285946,22,Man
42,530179,final-intermixed-textured,v2,jsons/MX_seq40_0_VE125_flipped.json,http://54.235.29.9/FacialAge/BNav_EC2/DepthDuration/MX_fS_VE_MTurk/MX_fS_HTML.html#252,252,1920,1080,1920,1080,1-12-2024,16-23-4,43,VR_target_stimuli/s33_1x_3.1_366.png,125,1x,3.1,4,1429,123,meters,jsons/MX_seq40_0_VE125_flipped.json,132064,285946,22,Man
43,530179,final-intermixed-textured,v2,jsons/MX_seq40_0_VE125_flipped.json,http://54.235.29.9/FacialAge/BNav_EC2/DepthDuration/MX_fS_VE_MTurk/MX_fS_HTML.html#252,252,1920,1080,1920,1080,1-12-2024,16-23-4,44,VR_target_stimuli/s52_0.75x_3.2_270_BC.png,125,0.75x,3.2,4,1394,133,meters,jsons/MX_seq40_0_VE125_flipped.json,132064,285946,22,Man
44,530179,final-intermixed-textured,v2,jsons/MX_seq40_0_VE125_flipped.json,http://54.235.29.9/FacialAge/BNav_EC2/DepthDuration/MX_fS_VE_MTurk/MX_fS_HTML.html#252,252,1920,1080,1920,1080,1-12-2024,16-23-4,45,catch_stimuli/c4_BC.png,125,,,0,1625,131,meters,jsons/MX_seq40_0_VE125_flipped.json,132064,285946,22,Man
45,530179,final-intermixed-textured,v2,jsons/MX_seq40_0_VE125_flipped.json,http://54.235.29.9/FacialAge/BNav_EC2/DepthDuration/MX_fS_VE_MTurk/MX_fS_HTML.html#252,252,1920,1080,1920,1080,1-12-2024,16-23-4,46,VR_target_stimuli/s32_1.3x_1.5_224.png,125,1.3x,1.5,3,1236,123,meters,jsons/MX_seq40_0_VE125_flipped.json,132064,285946,22,Man
46,530179,final-intermixed-textured,v2,jsons/MX_seq40_0_VE125_flipped.json,http://54.235.29.9/FacialAge/BNav_EC2/DepthDuration/MX_fS_VE_MTurk/MX_fS_HTML.html#252,252,1920,1080,1920,1080,1-12-2024,16-23-4,47,VR_target_stimuli/s18_1x_2.25_353_BC.png,125,1x,2.25,3,1307,124,meters,jsons/MX_seq40_0_VE125_flipped.json,132064,285946,22,Man
47,530179,final-intermixed-textured,v2,jsons/MX_seq40_0_VE125_flipped.json,http://54.235.29.9/FacialAge/BNav_EC2/DepthDuration/MX_fS_VE_MTurk/MX_fS_HTML.html#252,252,1920,1080,1920,1080,1-12-2024,16-23-4,48,VR_target_stimuli/s39_1x_1_207.png,125,1x,1.0,4,2851,124,meters,jsons/MX_seq40_0_VE125_flipped.json,132064,285946,22,Man
48,530179,final-intermixed-textured,v2,jsons/MX_seq40_0_VE125_flipped.json,http://54.235.29.9/FacialAge/BNav_EC2/DepthDuration/MX_fS_VE_MTurk/MX_fS_HTML.html#252,252,1920,1080,1920,1080,1-12-2024,16-23-4,49,VR_target_stimuli/s51_0.75x_3.64_460.png,125,0.75x,3.64,3,1332,123,meters,jsons/MX_seq40_0_VE125_flipped.json,132064,285946,22,Man
49,530179,final-intermixed-textured,v2,jsons/MX_seq40_0_VE125_flipped.json,http://54.235.29.9/FacialAge/BNav_EC2/DepthDuration/MX_fS_VE_MTurk/MX_fS_HTML.html#252,252,1920,1080,1920,1080,1-12-2024,16-23-4,50,VR_target_stimuli/s43_1.3x_2.2_363.png,125,1.3x,2.2,3,1287,124,meters,jsons/MX_seq40_0_VE125_flipped.json,132064,285946,22,Man
50,530179,final-intermixed-textured,v2,jsons/MX_seq40_0_VE125_flipped.json,http://54.235.29.9/FacialAge/BNav_EC2/DepthDuration/MX_fS_VE_MTurk/MX_fS_HTML.html#252,252,1920,1080,1920,1080,1-12-2024,16-23-4,51,VR_target_stimuli/s24_0.75x_3.3_344_BC.png,125,0.75x,3.3,3,1534,125,meters,jsons/MX_seq40_0_VE125_flipped.json,132064,285946,22,Man
51,530179,final-intermixed-textured,v2,jsons/MX_seq40_0_VE125_flipped.json,http://54.235.29.9/FacialAge/BNav_EC2/DepthDuration/MX_fS_VE_MTurk/MX_fS_HTML.html#252,252,1920,1080,1920,1080,1-12-2024,16-23-4,52,VR_target_stimuli/s10_1x_2.7_324_BC.png,125,1x,2.7,2,1267,110,meters,jsons/MX_seq40_0_VE125_flipped.json,132064,285946,22,Man
52,530179,final-intermixed-textured,v2,jsons/MX_seq40_0_VE125_flipped.json,http://54.235.29.9/FacialAge/BNav_EC2/DepthDuration/MX_fS_VE_MTurk/MX_fS_HTML.html#252,252,1920,1080,1920,1080,1-12-2024,16-23-4,53,catch_stimuli/c5_BC.png,125,,,0,1410,125,meters,jsons/MX_seq40_0_VE125_flipped.json,132064,285946,22,Man
53,530179,final-intermixed-textured,v2,jsons/MX_seq40_0_VE125_flipped.json,http://54.235.29.9/FacialAge/BNav_EC2/DepthDuration/MX_fS_VE_MTurk/MX_fS_HTML.html#252,252,1920,1080,1920,1080,1-12-2024,16-23-4,54,VR_target_stimuli/s36_1.3x_4.1_442_BC.png,125,1.3x,4.1,3,1299,126,meters,jsons/MX_seq40_0_VE125_flipped.json,132064,285946,22,Man
54,530179,final-intermixed-textured,v2,jsons/MX_seq40_0_VE125_flipped.json,http://54.235.29.9/FacialAge/BNav_EC2/DepthDuration/MX_fS_VE_MTurk/MX_fS_HTML.html#252,252,1920,1080,1920,1080,1-12-2024,16-23-4,55,VR_target_stimuli/s40_1x_1.2_319.png,125,1x,1.2,2,1487,123,meters,jsons/MX_seq40_0_VE125_flipped.json,132064,285946,22,Man
55,530179,final-intermixed-textured,v2,jsons/MX_seq40_0_VE125_flipped.json,http://54.235.29.9/FacialAge/BNav_EC2/DepthDuration/MX_fS_VE_MTurk/MX_fS_HTML.html#252,252,1920,1080,1920,1080,1-12-2024,16-23-4,56,VR_target_stimuli/s41_0.75x_2.1_281_BC.png,125,0.75x,2.1,3,1979,137,meters,jsons/MX_seq40_0_VE125_flipped.json,132064,285946,22,Man
56,530179,final-intermixed-textured,v2,jsons/MX_seq40_0_VE125_flipped.json,http://54.235.29.9/FacialAge/BNav_EC2/DepthDuration/MX_fS_VE_MTurk/MX_fS_HTML.html#252,252,1920,1080,1920,1080,1-12-2024,16-23-4,57,VR_target_stimuli/s45_1.3x_3.5_377.png,125,1.3x,3.5,3,1264,126,meters,jsons/MX_seq40_0_VE125_flipped.json,132064,285946,22,Man
57,530179,final-intermixed-textured,v2,jsons/MX_seq40_0_VE125_flipped.json,http://54.235.29.9/FacialAge/BNav_EC2/DepthDuration/MX_fS_VE_MTurk/MX_fS_HTML.html#252,252,1920,1080,1920,1080,1-12-2024,16-23-4,58,VR_target_stimuli/s23_1.3x_3.65_354_BC.png,125,1.3x,3.65,3,2419,133,meters,jsons/MX_seq40_0_VE125_flipped.json,132064,285946,22,Man
58,530179,final-intermixed-textured,v2,jsons/MX_seq40_0_VE125_flipped.json,http://54.235.29.9/FacialAge/BNav_EC2/DepthDuration/MX_fS_VE_MTurk/MX_fS_HTML.html#252,252,1920,1080,1920,1080,1-12-2024,16-23-4,59,VR_target_stimuli/s26_1x_4_433_BC.png,125,1x,4.0,3,1609,124,meters,jsons/MX_seq40_0_VE125_flipped.json,132064,285946,22,Man
59,530179,final-intermixed-textured,v2,jsons/MX_seq40_0_VE125_flipped.json,http://54.235.29.9/FacialAge/BNav_EC2/DepthDuration/MX_fS_VE_MTurk/MX_fS_HTML.html#252,252,1920,1080,1920,1080,1-12-2024,16-23-4,60,VR_target_stimuli/s12_0.75x_3.1_364.png,125,0.75x,3.1,3,1559,126,meters,jsons/MX_seq40_0_VE125_flipped.json,132064,285946,22,Man
