,subjID,experimentName,versionName,sequenceName,url,selected_row,windowWidth,windowHeight,screenWidth,screenHeight,startDate,startTime,trial,stimulus,duration,scale,actual_depth,depth_estimate,trial_RT,log_sceneDuration,unitSelection,seq_filepath,experimentTime,totalTime,age,gender
0,535207,final-intermixed-textured,v2,jsons/MX_seq48_2_VE125_flipped.json,http://54.235.29.9/FacialAge/BNav_EC2/DepthDuration/MX_fS_VE_MTurk/MX_fS_HTML.html#272,272,1488,742,1536,864,1-12-2024,21-38-57,1,VR_target_stimuli/s25_1x_1.4_290_BC.png,125,1x,1.4,1.0,8824,124,meters,jsons/MX_seq48_2_VE125_flipped.json,473850,844143,30,Woman
1,535207,final-intermixed-textured,v2,jsons/MX_seq48_2_VE125_flipped.json,http://54.235.29.9/FacialAge/BNav_EC2/DepthDuration/MX_fS_VE_MTurk/MX_fS_HTML.html#272,272,1488,742,1536,864,1-12-2024,21-38-57,2,VR_target_stimuli/s50_1.3x_4.53_518.png,125,1.3x,4.53,1.0,7634,125,meters,jsons/MX_seq48_2_VE125_flipped.json,473850,844143,30,Woman
2,535207,final-intermixed-textured,v2,jsons/MX_seq48_2_VE125_flipped.json,http://54.235.29.9/FacialAge/BNav_EC2/DepthDuration/MX_fS_VE_MTurk/MX_fS_HTML.html#272,272,1488,742,1536,864,1-12-2024,21-38-57,3,VR_target_stimuli/s53_0.75x_1.6_403_BC.png,125,0.75x,1.6,1.0,6477,126,meters,jsons/MX_seq48_2_VE125_flipped.json,473850,844143,30,Woman
3,535207,final-intermixed-textured,v2,jsons/MX_seq48_2_VE125_flipped.json,http://54.235.29.9/FacialAge/BNav_EC2/DepthDuration/MX_fS_VE_MTurk/MX_fS_HTML.html#272,272,1488,742,1536,864,1-12-2024,21-38-57,4,VR_target_stimuli/s38_1.3x_3.55_358_BC.png,125,1.3x,3.55,1.0,7228,125,meters,jsons/MX_seq48_2_VE125_flipped.json,473850,844143,30,Woman
4,535207,final-intermixed-textured,v2,jsons/MX_seq48_2_VE125_flipped.json,http://54.235.29.9/FacialAge/BNav_EC2/DepthDuration/MX_fS_VE_MTurk/MX_fS_HTML.html#272,272,1488,742,1536,864,1-12-2024,21-38-57,5,VR_target_stimuli/s9_1x_1.2_263.png,125,1x,1.2,1.0,10984,127,meters,jsons/MX_seq48_2_VE125_flipped.json,473850,844143,30,Woman
5,535207,final-intermixed-textured,v2,jsons/MX_seq48_2_VE125_flipped.json,http://54.235.29.9/FacialAge/BNav_EC2/DepthDuration/MX_fS_VE_MTurk/MX_fS_HTML.html#272,272,1488,742,1536,864,1-12-2024,21-38-57,6,VR_target_stimuli/s44_0.75x_4.4_314.png,125,0.75x,4.4,0.0,13501,126,meters,jsons/MX_seq48_2_VE125_flipped.json,473850,844143,30,Woman
6,535207,final-intermixed-textured,v2,jsons/MX_seq48_2_VE125_flipped.json,http://54.235.29.9/FacialAge/BNav_EC2/DepthDuration/MX_fS_VE_MTurk/MX_fS_HTML.html#272,272,1488,742,1536,864,1-12-2024,21-38-57,7,catch_stimuli/c0_BC.png,125,,,1.0,50331,124,meters,jsons/MX_seq48_2_VE125_flipped.json,473850,844143,30,Woman
7,535207,final-intermixed-textured,v2,jsons/MX_seq48_2_VE125_flipped.json,http://54.235.29.9/FacialAge/BNav_EC2/DepthDuration/MX_fS_VE_MTurk/MX_fS_HTML.html#272,272,1488,742,1536,864,1-12-2024,21-38-57,8,VR_target_stimuli/s3_0.75x_5_381_BC.png,125,0.75x,5.0,5.0,6133,125,meters,jsons/MX_seq48_2_VE125_flipped.json,473850,844143,30,Woman
8,535207,final-intermixed-textured,v2,jsons/MX_seq48_2_VE125_flipped.json,http://54.235.29.9/FacialAge/BNav_EC2/DepthDuration/MX_fS_VE_MTurk/MX_fS_HTML.html#272,272,1488,742,1536,864,1-12-2024,21-38-57,9,VR_target_stimuli/s1_1.3x_1.7_261.png,125,1.3x,1.7,0.5,23793,109,meters,jsons/MX_seq48_2_VE125_flipped.json,473850,844143,30,Woman
9,535207,final-intermixed-textured,v2,jsons/MX_seq48_2_VE125_flipped.json,http://54.235.29.9/FacialAge/BNav_EC2/DepthDuration/MX_fS_VE_MTurk/MX_fS_HTML.html#272,272,1488,742,1536,864,1-12-2024,21-38-57,10,VR_target_stimuli/s11_1x_5_361.png,125,1x,5.0,3.0,8759,124,meters,jsons/MX_seq48_2_VE125_flipped.json,473850,844143,30,Woman
10,535207,final-intermixed-textured,v2,jsons/MX_seq48_2_VE125_flipped.json,http://54.235.29.9/FacialAge/BNav_EC2/DepthDuration/MX_fS_VE_MTurk/MX_fS_HTML.html#272,272,1488,742,1536,864,1-12-2024,21-38-57,11,VR_target_stimuli/s2_1.3x_2.7_397_BC.png,125,1.3x,2.7,0.5,15606,125,meters,jsons/MX_seq48_2_VE125_flipped.json,473850,844143,30,Woman
11,535207,final-intermixed-textured,v2,jsons/MX_seq48_2_VE125_flipped.json,http://54.235.29.9/FacialAge/BNav_EC2/DepthDuration/MX_fS_VE_MTurk/MX_fS_HTML.html#272,272,1488,742,1536,864,1-12-2024,21-38-57,12,VR_target_stimuli/s6_0.75x_2.1_290.png,125,0.75x,2.1,1.0,12824,125,meters,jsons/MX_seq48_2_VE125_flipped.json,473850,844143,30,Woman
12,535207,final-intermixed-textured,v2,jsons/MX_seq48_2_VE125_flipped.json,http://54.235.29.9/FacialAge/BNav_EC2/DepthDuration/MX_fS_VE_MTurk/MX_fS_HTML.html#272,272,1488,742,1536,864,1-12-2024,21-38-57,13,VR_target_stimuli/s0_1x_2.6_351_BC.png,125,1x,2.6,2.0,9836,125,meters,jsons/MX_seq48_2_VE125_flipped.json,473850,844143,30,Woman
13,535207,final-intermixed-textured,v2,jsons/MX_seq48_2_VE125_flipped.json,http://54.235.29.9/FacialAge/BNav_EC2/DepthDuration/MX_fS_VE_MTurk/MX_fS_HTML.html#272,272,1488,742,1536,864,1-12-2024,21-38-57,14,VR_target_stimuli/s34_0.75x_2.8_269.png,125,0.75x,2.8,6.0,7923,110,meters,jsons/MX_seq48_2_VE125_flipped.json,473850,844143,30,Woman
14,535207,final-intermixed-textured,v2,jsons/MX_seq48_2_VE125_flipped.json,http://54.235.29.9/FacialAge/BNav_EC2/DepthDuration/MX_fS_VE_MTurk/MX_fS_HTML.html#272,272,1488,742,1536,864,1-12-2024,21-38-57,15,VR_target_stimuli/s13_1.3x_2.4_313.png,125,1.3x,2.4,2.0,9089,124,meters,jsons/MX_seq48_2_VE125_flipped.json,473850,844143,30,Woman
15,535207,final-intermixed-textured,v2,jsons/MX_seq48_2_VE125_flipped.json,http://54.235.29.9/FacialAge/BNav_EC2/DepthDuration/MX_fS_VE_MTurk/MX_fS_HTML.html#272,272,1488,742,1536,864,1-12-2024,21-38-57,16,VR_target_stimuli/s14_1x_ 3.83_357.png,125,1x,3.83,5.0,8549,126,meters,jsons/MX_seq48_2_VE125_flipped.json,473850,844143,30,Woman
16,535207,final-intermixed-textured,v2,jsons/MX_seq48_2_VE125_flipped.json,http://54.235.29.9/FacialAge/BNav_EC2/DepthDuration/MX_fS_VE_MTurk/MX_fS_HTML.html#272,272,1488,742,1536,864,1-12-2024,21-38-57,17,catch_stimuli/c1_BC.png,125,,,6.0,4217,110,meters,jsons/MX_seq48_2_VE125_flipped.json,473850,844143,30,Woman
17,535207,final-intermixed-textured,v2,jsons/MX_seq48_2_VE125_flipped.json,http://54.235.29.9/FacialAge/BNav_EC2/DepthDuration/MX_fS_VE_MTurk/MX_fS_HTML.html#272,272,1488,742,1536,864,1-12-2024,21-38-57,18,VR_target_stimuli/s47_1x_3.45_370_BC.png,125,1x,3.45,4.0,5675,126,meters,jsons/MX_seq48_2_VE125_flipped.json,473850,844143,30,Woman
18,535207,final-intermixed-textured,v2,jsons/MX_seq48_2_VE125_flipped.json,http://54.235.29.9/FacialAge/BNav_EC2/DepthDuration/MX_fS_VE_MTurk/MX_fS_HTML.html#272,272,1488,742,1536,864,1-12-2024,21-38-57,19,VR_target_stimuli/s29_0.75x_1.3_246_BC.png,125,0.75x,1.3,3.0,5414,125,meters,jsons/MX_seq48_2_VE125_flipped.json,473850,844143,30,Woman
19,535207,final-intermixed-textured,v2,jsons/MX_seq48_2_VE125_flipped.json,http://54.235.29.9/FacialAge/BNav_EC2/DepthDuration/MX_fS_VE_MTurk/MX_fS_HTML.html#272,272,1488,742,1536,864,1-12-2024,21-38-57,20,VR_target_stimuli/s28_1.3x_3.2_365_BC.png,125,1.3x,3.2,4.0,4776,109,meters,jsons/MX_seq48_2_VE125_flipped.json,473850,844143,30,Woman
20,535207,final-intermixed-textured,v2,jsons/MX_seq48_2_VE125_flipped.json,http://54.235.29.9/FacialAge/BNav_EC2/DepthDuration/MX_fS_VE_MTurk/MX_fS_HTML.html#272,272,1488,742,1536,864,1-12-2024,21-38-57,21,VR_target_stimuli/s48_0.75x_2.55_243_BC.png,125,0.75x,2.55,2.0,5850,125,meters,jsons/MX_seq48_2_VE125_flipped.json,473850,844143,30,Woman
21,535207,final-intermixed-textured,v2,jsons/MX_seq48_2_VE125_flipped.json,http://54.235.29.9/FacialAge/BNav_EC2/DepthDuration/MX_fS_VE_MTurk/MX_fS_HTML.html#272,272,1488,742,1536,864,1-12-2024,21-38-57,22,VR_target_stimuli/s19_1x_1.21_263.png,125,1x,1.21,1.0,4291,125,meters,jsons/MX_seq48_2_VE125_flipped.json,473850,844143,30,Woman
22,535207,final-intermixed-textured,v2,jsons/MX_seq48_2_VE125_flipped.json,http://54.235.29.9/FacialAge/BNav_EC2/DepthDuration/MX_fS_VE_MTurk/MX_fS_HTML.html#272,272,1488,742,1536,864,1-12-2024,21-38-57,23,VR_target_stimuli/s21_1.3x_4.22_384_BC.png,125,1.3x,4.22,2.5,7078,126,meters,jsons/MX_seq48_2_VE125_flipped.json,473850,844143,30,Woman
23,535207,final-intermixed-textured,v2,jsons/MX_seq48_2_VE125_flipped.json,http://54.235.29.9/FacialAge/BNav_EC2/DepthDuration/MX_fS_VE_MTurk/MX_fS_HTML.html#272,272,1488,742,1536,864,1-12-2024,21-38-57,24,VR_target_stimuli/s8_1x_3.1_332_BC.png,125,1x,3.1,1.5,6924,124,meters,jsons/MX_seq48_2_VE125_flipped.json,473850,844143,30,Woman
24,535207,final-intermixed-textured,v2,jsons/MX_seq48_2_VE125_flipped.json,http://54.235.29.9/FacialAge/BNav_EC2/DepthDuration/MX_fS_VE_MTurk/MX_fS_HTML.html#272,272,1488,742,1536,864,1-12-2024,21-38-57,25,VR_target_stimuli/s27_0.75x_1.76_243.png,125,0.75x,1.76,1.0,4802,124,meters,jsons/MX_seq48_2_VE125_flipped.json,473850,844143,30,Woman
25,535207,final-intermixed-textured,v2,jsons/MX_seq48_2_VE125_flipped.json,http://54.235.29.9/FacialAge/BNav_EC2/DepthDuration/MX_fS_VE_MTurk/MX_fS_HTML.html#272,272,1488,742,1536,864,1-12-2024,21-38-57,26,catch_stimuli/c2_BC.png,125,,,0.0,8147,111,meters,jsons/MX_seq48_2_VE125_flipped.json,473850,844143,30,Woman
26,535207,final-intermixed-textured,v2,jsons/MX_seq48_2_VE125_flipped.json,http://54.235.29.9/FacialAge/BNav_EC2/DepthDuration/MX_fS_VE_MTurk/MX_fS_HTML.html#272,272,1488,742,1536,864,1-12-2024,21-38-57,27,VR_target_stimuli/s15_1.3x_4.2_389.png,125,1.3x,4.2,2.0,5976,125,meters,jsons/MX_seq48_2_VE125_flipped.json,473850,844143,30,Woman
27,535207,final-intermixed-textured,v2,jsons/MX_seq48_2_VE125_flipped.json,http://54.235.29.9/FacialAge/BNav_EC2/DepthDuration/MX_fS_VE_MTurk/MX_fS_HTML.html#272,272,1488,742,1536,864,1-12-2024,21-38-57,28,VR_target_stimuli/s4_1.3x_1.4_328.png,125,1.3x,1.4,1.0,6116,110,meters,jsons/MX_seq48_2_VE125_flipped.json,473850,844143,30,Woman
28,535207,final-intermixed-textured,v2,jsons/MX_seq48_2_VE125_flipped.json,http://54.235.29.9/FacialAge/BNav_EC2/DepthDuration/MX_fS_VE_MTurk/MX_fS_HTML.html#272,272,1488,742,1536,864,1-12-2024,21-38-57,29,VR_target_stimuli/s35_1x_2_331.png,125,1x,2.0,1.5,8064,125,meters,jsons/MX_seq48_2_VE125_flipped.json,473850,844143,30,Woman
29,535207,final-intermixed-textured,v2,jsons/MX_seq48_2_VE125_flipped.json,http://54.235.29.9/FacialAge/BNav_EC2/DepthDuration/MX_fS_VE_MTurk/MX_fS_HTML.html#272,272,1488,742,1536,864,1-12-2024,21-38-57,30,VR_target_stimuli/s49_0.75x_4.67_328.png,125,0.75x,4.67,3.0,4320,125,meters,jsons/MX_seq48_2_VE125_flipped.json,473850,844143,30,Woman
30,535207,final-intermixed-textured,v2,jsons/MX_seq48_2_VE125_flipped.json,http://54.235.29.9/FacialAge/BNav_EC2/DepthDuration/MX_fS_VE_MTurk/MX_fS_HTML.html#272,272,1488,742,1536,864,1-12-2024,21-38-57,31,VR_target_stimuli/s7_1.3x_1.5_256_BC.png,125,1.3x,1.5,0.5,5160,125,meters,jsons/MX_seq48_2_VE125_flipped.json,473850,844143,30,Woman
31,535207,final-intermixed-textured,v2,jsons/MX_seq48_2_VE125_flipped.json,http://54.235.29.9/FacialAge/BNav_EC2/DepthDuration/MX_fS_VE_MTurk/MX_fS_HTML.html#272,272,1488,742,1536,864,1-12-2024,21-38-57,32,VR_target_stimuli/s20_0.75x_4.99_390_BC.png,125,0.75x,4.99,5.0,4267,125,meters,jsons/MX_seq48_2_VE125_flipped.json,473850,844143,30,Woman
32,535207,final-intermixed-textured,v2,jsons/MX_seq48_2_VE125_flipped.json,http://54.235.29.9/FacialAge/BNav_EC2/DepthDuration/MX_fS_VE_MTurk/MX_fS_HTML.html#272,272,1488,742,1536,864,1-12-2024,21-38-57,33,VR_target_stimuli/s31_1x_4.96_333_BC.png,125,1x,4.96,4.0,3838,126,meters,jsons/MX_seq48_2_VE125_flipped.json,473850,844143,30,Woman
33,535207,final-intermixed-textured,v2,jsons/MX_seq48_2_VE125_flipped.json,http://54.235.29.9/FacialAge/BNav_EC2/DepthDuration/MX_fS_VE_MTurk/MX_fS_HTML.html#272,272,1488,742,1536,864,1-12-2024,21-38-57,34,catch_stimuli/c3_BC.png,125,,,0.0,4118,125,meters,jsons/MX_seq48_2_VE125_flipped.json,473850,844143,30,Woman
34,535207,final-intermixed-textured,v2,jsons/MX_seq48_2_VE125_flipped.json,http://54.235.29.9/FacialAge/BNav_EC2/DepthDuration/MX_fS_VE_MTurk/MX_fS_HTML.html#272,272,1488,742,1536,864,1-12-2024,21-38-57,35,VR_target_stimuli/s33_0.75x_3.1_361_BC.png,125,0.75x,3.1,3.0,4614,156,meters,jsons/MX_seq48_2_VE125_flipped.json,473850,844143,30,Woman
35,535207,final-intermixed-textured,v2,jsons/MX_seq48_2_VE125_flipped.json,http://54.235.29.9/FacialAge/BNav_EC2/DepthDuration/MX_fS_VE_MTurk/MX_fS_HTML.html#272,272,1488,742,1536,864,1-12-2024,21-38-57,36,VR_target_stimuli/s52_1.3x_3.2_280_BC.png,125,1.3x,3.2,4.0,6830,125,meters,jsons/MX_seq48_2_VE125_flipped.json,473850,844143,30,Woman
36,535207,final-intermixed-textured,v2,jsons/MX_seq48_2_VE125_flipped.json,http://54.235.29.9/FacialAge/BNav_EC2/DepthDuration/MX_fS_VE_MTurk/MX_fS_HTML.html#272,272,1488,742,1536,864,1-12-2024,21-38-57,37,VR_target_stimuli/s32_1x_1.5_218.png,125,1x,1.5,2.0,4189,125,meters,jsons/MX_seq48_2_VE125_flipped.json,473850,844143,30,Woman
37,535207,final-intermixed-textured,v2,jsons/MX_seq48_2_VE125_flipped.json,http://54.235.29.9/FacialAge/BNav_EC2/DepthDuration/MX_fS_VE_MTurk/MX_fS_HTML.html#272,272,1488,742,1536,864,1-12-2024,21-38-57,38,VR_target_stimuli/s18_1x_2.25_353_BC.png,125,1x,2.25,2.0,3912,125,meters,jsons/MX_seq48_2_VE125_flipped.json,473850,844143,30,Woman
38,535207,final-intermixed-textured,v2,jsons/MX_seq48_2_VE125_flipped.json,http://54.235.29.9/FacialAge/BNav_EC2/DepthDuration/MX_fS_VE_MTurk/MX_fS_HTML.html#272,272,1488,742,1536,864,1-12-2024,21-38-57,39,VR_target_stimuli/s39_0.75x_1_205.png,125,0.75x,1.0,2.0,4594,125,meters,jsons/MX_seq48_2_VE125_flipped.json,473850,844143,30,Woman
39,535207,final-intermixed-textured,v2,jsons/MX_seq48_2_VE125_flipped.json,http://54.235.29.9/FacialAge/BNav_EC2/DepthDuration/MX_fS_VE_MTurk/MX_fS_HTML.html#272,272,1488,742,1536,864,1-12-2024,21-38-57,40,VR_target_stimuli/s51_1.3x_3.64_479.png,125,1.3x,3.64,2.5,4844,125,meters,jsons/MX_seq48_2_VE125_flipped.json,473850,844143,30,Woman
40,535207,final-intermixed-textured,v2,jsons/MX_seq48_2_VE125_flipped.json,http://54.235.29.9/FacialAge/BNav_EC2/DepthDuration/MX_fS_VE_MTurk/MX_fS_HTML.html#272,272,1488,742,1536,864,1-12-2024,21-38-57,41,VR_target_stimuli/s43_0.75x_2.2_348_BC.png,125,0.75x,2.2,2.0,5005,124,meters,jsons/MX_seq48_2_VE125_flipped.json,473850,844143,30,Woman
41,535207,final-intermixed-textured,v2,jsons/MX_seq48_2_VE125_flipped.json,http://54.235.29.9/FacialAge/BNav_EC2/DepthDuration/MX_fS_VE_MTurk/MX_fS_HTML.html#272,272,1488,742,1536,864,1-12-2024,21-38-57,42,VR_target_stimuli/s24_1x_3.3_349.png,125,1x,3.3,4.0,3817,124,meters,jsons/MX_seq48_2_VE125_flipped.json,473850,844143,30,Woman
42,535207,final-intermixed-textured,v2,jsons/MX_seq48_2_VE125_flipped.json,http://54.235.29.9/FacialAge/BNav_EC2/DepthDuration/MX_fS_VE_MTurk/MX_fS_HTML.html#272,272,1488,742,1536,864,1-12-2024,21-38-57,43,VR_target_stimuli/s10_1.3x_2.7_325_BC.png,125,1.3x,2.7,5.0,4192,126,meters,jsons/MX_seq48_2_VE125_flipped.json,473850,844143,30,Woman
43,535207,final-intermixed-textured,v2,jsons/MX_seq48_2_VE125_flipped.json,http://54.235.29.9/FacialAge/BNav_EC2/DepthDuration/MX_fS_VE_MTurk/MX_fS_HTML.html#272,272,1488,742,1536,864,1-12-2024,21-38-57,44,VR_target_stimuli/s36_1x_4.1_423_BC.png,125,1x,4.1,5.5,7358,156,meters,jsons/MX_seq48_2_VE125_flipped.json,473850,844143,30,Woman
44,535207,final-intermixed-textured,v2,jsons/MX_seq48_2_VE125_flipped.json,http://54.235.29.9/FacialAge/BNav_EC2/DepthDuration/MX_fS_VE_MTurk/MX_fS_HTML.html#272,272,1488,742,1536,864,1-12-2024,21-38-57,45,catch_stimuli/c4_BC.png,125,,,0.0,4232,141,meters,jsons/MX_seq48_2_VE125_flipped.json,473850,844143,30,Woman
45,535207,final-intermixed-textured,v2,jsons/MX_seq48_2_VE125_flipped.json,http://54.235.29.9/FacialAge/BNav_EC2/DepthDuration/MX_fS_VE_MTurk/MX_fS_HTML.html#272,272,1488,742,1536,864,1-12-2024,21-38-57,46,VR_target_stimuli/s40_0.75x_1.2_308.png,125,0.75x,1.2,1.0,6208,125,meters,jsons/MX_seq48_2_VE125_flipped.json,473850,844143,30,Woman
46,535207,final-intermixed-textured,v2,jsons/MX_seq48_2_VE125_flipped.json,http://54.235.29.9/FacialAge/BNav_EC2/DepthDuration/MX_fS_VE_MTurk/MX_fS_HTML.html#272,272,1488,742,1536,864,1-12-2024,21-38-57,47,VR_target_stimuli/s41_1.3x_2.1_294.png,125,1.3x,2.1,1.2,8379,125,meters,jsons/MX_seq48_2_VE125_flipped.json,473850,844143,30,Woman
47,535207,final-intermixed-textured,v2,jsons/MX_seq48_2_VE125_flipped.json,http://54.235.29.9/FacialAge/BNav_EC2/DepthDuration/MX_fS_VE_MTurk/MX_fS_HTML.html#272,272,1488,742,1536,864,1-12-2024,21-38-57,48,VR_target_stimuli/s45_1.3x_3.5_377.png,125,1.3x,3.5,3.0,8072,125,meters,jsons/MX_seq48_2_VE125_flipped.json,473850,844143,30,Woman
48,535207,final-intermixed-textured,v2,jsons/MX_seq48_2_VE125_flipped.json,http://54.235.29.9/FacialAge/BNav_EC2/DepthDuration/MX_fS_VE_MTurk/MX_fS_HTML.html#272,272,1488,742,1536,864,1-12-2024,21-38-57,49,VR_target_stimuli/s23_1x_3.65_353.png,125,1x,3.65,3.0,4416,134,meters,jsons/MX_seq48_2_VE125_flipped.json,473850,844143,30,Woman
49,535207,final-intermixed-textured,v2,jsons/MX_seq48_2_VE125_flipped.json,http://54.235.29.9/FacialAge/BNav_EC2/DepthDuration/MX_fS_VE_MTurk/MX_fS_HTML.html#272,272,1488,742,1536,864,1-12-2024,21-38-57,50,VR_target_stimuli/s26_0.75x_4_430.png,125,0.75x,4.0,6.0,4211,125,meters,jsons/MX_seq48_2_VE125_flipped.json,473850,844143,30,Woman
50,535207,final-intermixed-textured,v2,jsons/MX_seq48_2_VE125_flipped.json,http://54.235.29.9/FacialAge/BNav_EC2/DepthDuration/MX_fS_VE_MTurk/MX_fS_HTML.html#272,272,1488,742,1536,864,1-12-2024,21-38-57,51,VR_target_stimuli/s12_1x_3.1_372_BC.png,125,1x,3.1,2.0,5382,123,meters,jsons/MX_seq48_2_VE125_flipped.json,473850,844143,30,Woman
51,535207,final-intermixed-textured,v2,jsons/MX_seq48_2_VE125_flipped.json,http://54.235.29.9/FacialAge/BNav_EC2/DepthDuration/MX_fS_VE_MTurk/MX_fS_HTML.html#272,272,1488,742,1536,864,1-12-2024,21-38-57,52,VR_target_stimuli/s30_1.3x_2.3_337_BC.png,125,1.3x,2.3,2.0,4964,125,meters,jsons/MX_seq48_2_VE125_flipped.json,473850,844143,30,Woman
52,535207,final-intermixed-textured,v2,jsons/MX_seq48_2_VE125_flipped.json,http://54.235.29.9/FacialAge/BNav_EC2/DepthDuration/MX_fS_VE_MTurk/MX_fS_HTML.html#272,272,1488,742,1536,864,1-12-2024,21-38-57,53,catch_stimuli/c5_BC.png,125,,,0.0,4643,124,meters,jsons/MX_seq48_2_VE125_flipped.json,473850,844143,30,Woman
53,535207,final-intermixed-textured,v2,jsons/MX_seq48_2_VE125_flipped.json,http://54.235.29.9/FacialAge/BNav_EC2/DepthDuration/MX_fS_VE_MTurk/MX_fS_HTML.html#272,272,1488,742,1536,864,1-12-2024,21-38-57,54,VR_target_stimuli/s16_0.75x_1_217_BC.png,125,0.75x,1.0,0.5,4119,111,meters,jsons/MX_seq48_2_VE125_flipped.json,473850,844143,30,Woman
54,535207,final-intermixed-textured,v2,jsons/MX_seq48_2_VE125_flipped.json,http://54.235.29.9/FacialAge/BNav_EC2/DepthDuration/MX_fS_VE_MTurk/MX_fS_HTML.html#272,272,1488,742,1536,864,1-12-2024,21-38-57,55,VR_target_stimuli/s17_1.3x_1.8_300.png,125,1.3x,1.8,1.0,5965,118,meters,jsons/MX_seq48_2_VE125_flipped.json,473850,844143,30,Woman
55,535207,final-intermixed-textured,v2,jsons/MX_seq48_2_VE125_flipped.json,http://54.235.29.9/FacialAge/BNav_EC2/DepthDuration/MX_fS_VE_MTurk/MX_fS_HTML.html#272,272,1488,742,1536,864,1-12-2024,21-38-57,56,VR_target_stimuli/s5_1x_4_378_BC.png,125,1x,4.0,3.0,4024,110,meters,jsons/MX_seq48_2_VE125_flipped.json,473850,844143,30,Woman
56,535207,final-intermixed-textured,v2,jsons/MX_seq48_2_VE125_flipped.json,http://54.235.29.9/FacialAge/BNav_EC2/DepthDuration/MX_fS_VE_MTurk/MX_fS_HTML.html#272,272,1488,742,1536,864,1-12-2024,21-38-57,57,VR_target_stimuli/s37_0.75x_3.3_567.png,125,0.75x,3.3,0.0,3859,125,meters,jsons/MX_seq48_2_VE125_flipped.json,473850,844143,30,Woman
57,535207,final-intermixed-textured,v2,jsons/MX_seq48_2_VE125_flipped.json,http://54.235.29.9/FacialAge/BNav_EC2/DepthDuration/MX_fS_VE_MTurk/MX_fS_HTML.html#272,272,1488,742,1536,864,1-12-2024,21-38-57,58,VR_target_stimuli/s46_0.75x_2.42_343_BC.png,125,0.75x,2.42,3.0,5635,140,meters,jsons/MX_seq48_2_VE125_flipped.json,473850,844143,30,Woman
58,535207,final-intermixed-textured,v2,jsons/MX_seq48_2_VE125_flipped.json,http://54.235.29.9/FacialAge/BNav_EC2/DepthDuration/MX_fS_VE_MTurk/MX_fS_HTML.html#272,272,1488,742,1536,864,1-12-2024,21-38-57,59,VR_target_stimuli/s22_1.3x_4.29_364_BC.png,125,1.3x,4.29,4.0,8750,124,meters,jsons/MX_seq48_2_VE125_flipped.json,473850,844143,30,Woman
59,535207,final-intermixed-textured,v2,jsons/MX_seq48_2_VE125_flipped.json,http://54.235.29.9/FacialAge/BNav_EC2/DepthDuration/MX_fS_VE_MTurk/MX_fS_HTML.html#272,272,1488,742,1536,864,1-12-2024,21-38-57,60,VR_target_stimuli/s42_1x_3.2_303.png,125,1x,3.2,0.0,4523,124,meters,jsons/MX_seq48_2_VE125_flipped.json,473850,844143,30,Woman
