,subjID,experimentName,versionName,sequenceName,url,selected_row,windowWidth,windowHeight,screenWidth,screenHeight,startDate,startTime,trial,stimulus,duration,scale,actual_depth,depth_estimate,trial_RT,log_sceneDuration,unitSelection,seq_filepath,experimentTime,totalTime,age,gender
0,540574,final-intermixed-textured,v2,jsons/MX_seq15_1_VE125.json,http://54.235.29.9/FacialAge/BNav_EC2/DepthDuration/MX_fS_VE_MTurk/MX_fS_HTML.html#244,244,1920,1080,1920,1080,1-12-2024,17-27-11,1,VR_target_stimuli/s8_1.3x_3.1_345.png,125,1.3x,3.1,0.0,6522,125,meters,jsons/MX_seq15_1_VE125.json,240399,501818,34,Woman
1,540574,final-intermixed-textured,v2,jsons/MX_seq15_1_VE125.json,http://54.235.29.9/FacialAge/BNav_EC2/DepthDuration/MX_fS_VE_MTurk/MX_fS_HTML.html#244,244,1920,1080,1920,1080,1-12-2024,17-27-11,2,VR_target_stimuli/s27_0.75x_1.76_243.png,125,0.75x,1.76,0.0,2987,125,meters,jsons/MX_seq15_1_VE125.json,240399,501818,34,Woman
2,540574,final-intermixed-textured,v2,jsons/MX_seq15_1_VE125.json,http://54.235.29.9/FacialAge/BNav_EC2/DepthDuration/MX_fS_VE_MTurk/MX_fS_HTML.html#244,244,1920,1080,1920,1080,1-12-2024,17-27-11,3,VR_target_stimuli/s15_1x_4.2_390.png,125,1x,4.2,0.0,2347,126,meters,jsons/MX_seq15_1_VE125.json,240399,501818,34,Woman
3,540574,final-intermixed-textured,v2,jsons/MX_seq15_1_VE125.json,http://54.235.29.9/FacialAge/BNav_EC2/DepthDuration/MX_fS_VE_MTurk/MX_fS_HTML.html#244,244,1920,1080,1920,1080,1-12-2024,17-27-11,4,VR_target_stimuli/s4_0.75x_1.4_301_BC.png,125,0.75x,1.4,0.0,2283,126,meters,jsons/MX_seq15_1_VE125.json,240399,501818,34,Woman
4,540574,final-intermixed-textured,v2,jsons/MX_seq15_1_VE125.json,http://54.235.29.9/FacialAge/BNav_EC2/DepthDuration/MX_fS_VE_MTurk/MX_fS_HTML.html#244,244,1920,1080,1920,1080,1-12-2024,17-27-11,5,VR_target_stimuli/s35_1.3x_2_338_BC.png,125,1.3x,2.0,0.0,5963,127,meters,jsons/MX_seq15_1_VE125.json,240399,501818,34,Woman
5,540574,final-intermixed-textured,v2,jsons/MX_seq15_1_VE125.json,http://54.235.29.9/FacialAge/BNav_EC2/DepthDuration/MX_fS_VE_MTurk/MX_fS_HTML.html#244,244,1920,1080,1920,1080,1-12-2024,17-27-11,6,VR_target_stimuli/s49_1x_4.67_341_BC.png,125,1x,4.67,0.0,2179,126,meters,jsons/MX_seq15_1_VE125.json,240399,501818,34,Woman
6,540574,final-intermixed-textured,v2,jsons/MX_seq15_1_VE125.json,http://54.235.29.9/FacialAge/BNav_EC2/DepthDuration/MX_fS_VE_MTurk/MX_fS_HTML.html#244,244,1920,1080,1920,1080,1-12-2024,17-27-11,7,catch_stimuli/c0.png,125,,,0.0,2011,126,meters,jsons/MX_seq15_1_VE125.json,240399,501818,34,Woman
7,540574,final-intermixed-textured,v2,jsons/MX_seq15_1_VE125.json,http://54.235.29.9/FacialAge/BNav_EC2/DepthDuration/MX_fS_VE_MTurk/MX_fS_HTML.html#244,244,1920,1080,1920,1080,1-12-2024,17-27-11,8,VR_target_stimuli/s7_1x_1.5_255.png,125,1x,1.5,0.0,3843,126,meters,jsons/MX_seq15_1_VE125.json,240399,501818,34,Woman
8,540574,final-intermixed-textured,v2,jsons/MX_seq15_1_VE125.json,http://54.235.29.9/FacialAge/BNav_EC2/DepthDuration/MX_fS_VE_MTurk/MX_fS_HTML.html#244,244,1920,1080,1920,1080,1-12-2024,17-27-11,9,VR_target_stimuli/s20_0.75x_4.99_390.png,125,0.75x,4.99,0.0,1994,125,meters,jsons/MX_seq15_1_VE125.json,240399,501818,34,Woman
9,540574,final-intermixed-textured,v2,jsons/MX_seq15_1_VE125.json,http://54.235.29.9/FacialAge/BNav_EC2/DepthDuration/MX_fS_VE_MTurk/MX_fS_HTML.html#244,244,1920,1080,1920,1080,1-12-2024,17-27-11,10,VR_target_stimuli/s31_1.3x_4.96_342.png,125,1.3x,4.96,0.0,1908,126,meters,jsons/MX_seq15_1_VE125.json,240399,501818,34,Woman
10,540574,final-intermixed-textured,v2,jsons/MX_seq15_1_VE125.json,http://54.235.29.9/FacialAge/BNav_EC2/DepthDuration/MX_fS_VE_MTurk/MX_fS_HTML.html#244,244,1920,1080,1920,1080,1-12-2024,17-27-11,11,VR_target_stimuli/s33_0.75x_3.1_361_BC.png,125,0.75x,3.1,0.0,1820,125,meters,jsons/MX_seq15_1_VE125.json,240399,501818,34,Woman
11,540574,final-intermixed-textured,v2,jsons/MX_seq15_1_VE125.json,http://54.235.29.9/FacialAge/BNav_EC2/DepthDuration/MX_fS_VE_MTurk/MX_fS_HTML.html#244,244,1920,1080,1920,1080,1-12-2024,17-27-11,12,VR_target_stimuli/s52_1x_3.2_275_BC.png,125,1x,3.2,0.0,2770,125,meters,jsons/MX_seq15_1_VE125.json,240399,501818,34,Woman
12,540574,final-intermixed-textured,v2,jsons/MX_seq15_1_VE125.json,http://54.235.29.9/FacialAge/BNav_EC2/DepthDuration/MX_fS_VE_MTurk/MX_fS_HTML.html#244,244,1920,1080,1920,1080,1-12-2024,17-27-11,13,VR_target_stimuli/s32_1.3x_1.5_224_BC.png,125,1.3x,1.5,0.0,6371,125,meters,jsons/MX_seq15_1_VE125.json,240399,501818,34,Woman
13,540574,final-intermixed-textured,v2,jsons/MX_seq15_1_VE125.json,http://54.235.29.9/FacialAge/BNav_EC2/DepthDuration/MX_fS_VE_MTurk/MX_fS_HTML.html#244,244,1920,1080,1920,1080,1-12-2024,17-27-11,14,VR_target_stimuli/s18_1x_2.25_353_BC.png,125,1x,2.25,3.0,7306,127,meters,jsons/MX_seq15_1_VE125.json,240399,501818,34,Woman
14,540574,final-intermixed-textured,v2,jsons/MX_seq15_1_VE125.json,http://54.235.29.9/FacialAge/BNav_EC2/DepthDuration/MX_fS_VE_MTurk/MX_fS_HTML.html#244,244,1920,1080,1920,1080,1-12-2024,17-27-11,15,VR_target_stimuli/s39_0.75x_1_205_BC.png,125,0.75x,1.0,2.0,4082,124,meters,jsons/MX_seq15_1_VE125.json,240399,501818,34,Woman
15,540574,final-intermixed-textured,v2,jsons/MX_seq15_1_VE125.json,http://54.235.29.9/FacialAge/BNav_EC2/DepthDuration/MX_fS_VE_MTurk/MX_fS_HTML.html#244,244,1920,1080,1920,1080,1-12-2024,17-27-11,16,VR_target_stimuli/s51_1.3x_3.64_479.png,125,1.3x,3.64,2.0,4307,125,meters,jsons/MX_seq15_1_VE125.json,240399,501818,34,Woman
16,540574,final-intermixed-textured,v2,jsons/MX_seq15_1_VE125.json,http://54.235.29.9/FacialAge/BNav_EC2/DepthDuration/MX_fS_VE_MTurk/MX_fS_HTML.html#244,244,1920,1080,1920,1080,1-12-2024,17-27-11,17,catch_stimuli/c1.png,125,,,1.5,5556,125,meters,jsons/MX_seq15_1_VE125.json,240399,501818,34,Woman
17,540574,final-intermixed-textured,v2,jsons/MX_seq15_1_VE125.json,http://54.235.29.9/FacialAge/BNav_EC2/DepthDuration/MX_fS_VE_MTurk/MX_fS_HTML.html#244,244,1920,1080,1920,1080,1-12-2024,17-27-11,18,VR_target_stimuli/s43_1.3x_2.2_363_BC.png,125,1.3x,2.2,1.0,10011,126,meters,jsons/MX_seq15_1_VE125.json,240399,501818,34,Woman
18,540574,final-intermixed-textured,v2,jsons/MX_seq15_1_VE125.json,http://54.235.29.9/FacialAge/BNav_EC2/DepthDuration/MX_fS_VE_MTurk/MX_fS_HTML.html#244,244,1920,1080,1920,1080,1-12-2024,17-27-11,19,VR_target_stimuli/s24_1x_3.3_349.png,125,1x,3.3,2.0,2170,125,meters,jsons/MX_seq15_1_VE125.json,240399,501818,34,Woman
19,540574,final-intermixed-textured,v2,jsons/MX_seq15_1_VE125.json,http://54.235.29.9/FacialAge/BNav_EC2/DepthDuration/MX_fS_VE_MTurk/MX_fS_HTML.html#244,244,1920,1080,1920,1080,1-12-2024,17-27-11,20,VR_target_stimuli/s10_0.75x_2.7_321.png,125,0.75x,2.7,2.0,1955,126,meters,jsons/MX_seq15_1_VE125.json,240399,501818,34,Woman
20,540574,final-intermixed-textured,v2,jsons/MX_seq15_1_VE125.json,http://54.235.29.9/FacialAge/BNav_EC2/DepthDuration/MX_fS_VE_MTurk/MX_fS_HTML.html#244,244,1920,1080,1920,1080,1-12-2024,17-27-11,21,VR_target_stimuli/s36_1x_4.1_423_BC.png,125,1x,4.1,2.0,2050,125,meters,jsons/MX_seq15_1_VE125.json,240399,501818,34,Woman
21,540574,final-intermixed-textured,v2,jsons/MX_seq15_1_VE125.json,http://54.235.29.9/FacialAge/BNav_EC2/DepthDuration/MX_fS_VE_MTurk/MX_fS_HTML.html#244,244,1920,1080,1920,1080,1-12-2024,17-27-11,22,VR_target_stimuli/s40_1.3x_1.2_332_BC.png,125,1.3x,1.2,2.0,2012,126,meters,jsons/MX_seq15_1_VE125.json,240399,501818,34,Woman
22,540574,final-intermixed-textured,v2,jsons/MX_seq15_1_VE125.json,http://54.235.29.9/FacialAge/BNav_EC2/DepthDuration/MX_fS_VE_MTurk/MX_fS_HTML.html#244,244,1920,1080,1920,1080,1-12-2024,17-27-11,23,VR_target_stimuli/s41_0.75x_2.1_281.png,125,0.75x,2.1,1.0,3138,125,meters,jsons/MX_seq15_1_VE125.json,240399,501818,34,Woman
23,540574,final-intermixed-textured,v2,jsons/MX_seq15_1_VE125.json,http://54.235.29.9/FacialAge/BNav_EC2/DepthDuration/MX_fS_VE_MTurk/MX_fS_HTML.html#244,244,1920,1080,1920,1080,1-12-2024,17-27-11,24,VR_target_stimuli/s45_1.3x_3.5_377.png,125,1.3x,3.5,2.0,2275,126,meters,jsons/MX_seq15_1_VE125.json,240399,501818,34,Woman
24,540574,final-intermixed-textured,v2,jsons/MX_seq15_1_VE125.json,http://54.235.29.9/FacialAge/BNav_EC2/DepthDuration/MX_fS_VE_MTurk/MX_fS_HTML.html#244,244,1920,1080,1920,1080,1-12-2024,17-27-11,25,VR_target_stimuli/s23_1x_3.65_353.png,125,1x,3.65,2.0,3115,126,meters,jsons/MX_seq15_1_VE125.json,240399,501818,34,Woman
25,540574,final-intermixed-textured,v2,jsons/MX_seq15_1_VE125.json,http://54.235.29.9/FacialAge/BNav_EC2/DepthDuration/MX_fS_VE_MTurk/MX_fS_HTML.html#244,244,1920,1080,1920,1080,1-12-2024,17-27-11,26,catch_stimuli/c2.png,125,,,1.0,1716,126,meters,jsons/MX_seq15_1_VE125.json,240399,501818,34,Woman
26,540574,final-intermixed-textured,v2,jsons/MX_seq15_1_VE125.json,http://54.235.29.9/FacialAge/BNav_EC2/DepthDuration/MX_fS_VE_MTurk/MX_fS_HTML.html#244,244,1920,1080,1920,1080,1-12-2024,17-27-11,27,VR_target_stimuli/s26_0.75x_4_430_BC.png,125,0.75x,4.0,2.0,1748,125,meters,jsons/MX_seq15_1_VE125.json,240399,501818,34,Woman
27,540574,final-intermixed-textured,v2,jsons/MX_seq15_1_VE125.json,http://54.235.29.9/FacialAge/BNav_EC2/DepthDuration/MX_fS_VE_MTurk/MX_fS_HTML.html#244,244,1920,1080,1920,1080,1-12-2024,17-27-11,28,VR_target_stimuli/s12_0.75x_3.1_364.png,125,0.75x,3.1,2.0,2139,126,meters,jsons/MX_seq15_1_VE125.json,240399,501818,34,Woman
28,540574,final-intermixed-textured,v2,jsons/MX_seq15_1_VE125.json,http://54.235.29.9/FacialAge/BNav_EC2/DepthDuration/MX_fS_VE_MTurk/MX_fS_HTML.html#244,244,1920,1080,1920,1080,1-12-2024,17-27-11,29,VR_target_stimuli/s30_1.3x_2.3_337.png,125,1.3x,2.3,2.0,1914,124,meters,jsons/MX_seq15_1_VE125.json,240399,501818,34,Woman
29,540574,final-intermixed-textured,v2,jsons/MX_seq15_1_VE125.json,http://54.235.29.9/FacialAge/BNav_EC2/DepthDuration/MX_fS_VE_MTurk/MX_fS_HTML.html#244,244,1920,1080,1920,1080,1-12-2024,17-27-11,30,VR_target_stimuli/s16_1x_1_219_BC.png,125,1x,1.0,2.0,1764,125,meters,jsons/MX_seq15_1_VE125.json,240399,501818,34,Woman
30,540574,final-intermixed-textured,v2,jsons/MX_seq15_1_VE125.json,http://54.235.29.9/FacialAge/BNav_EC2/DepthDuration/MX_fS_VE_MTurk/MX_fS_HTML.html#244,244,1920,1080,1920,1080,1-12-2024,17-27-11,31,VR_target_stimuli/s17_0.75x_1.8_285_BC.png,125,0.75x,1.8,1.0,4322,125,meters,jsons/MX_seq15_1_VE125.json,240399,501818,34,Woman
31,540574,final-intermixed-textured,v2,jsons/MX_seq15_1_VE125.json,http://54.235.29.9/FacialAge/BNav_EC2/DepthDuration/MX_fS_VE_MTurk/MX_fS_HTML.html#244,244,1920,1080,1920,1080,1-12-2024,17-27-11,32,VR_target_stimuli/s5_1x_4_378.png,125,1x,4.0,1.0,1907,125,meters,jsons/MX_seq15_1_VE125.json,240399,501818,34,Woman
32,540574,final-intermixed-textured,v2,jsons/MX_seq15_1_VE125.json,http://54.235.29.9/FacialAge/BNav_EC2/DepthDuration/MX_fS_VE_MTurk/MX_fS_HTML.html#244,244,1920,1080,1920,1080,1-12-2024,17-27-11,33,VR_target_stimuli/s37_1.3x_3.3_555_BC.png,125,1.3x,3.3,2.0,2306,126,meters,jsons/MX_seq15_1_VE125.json,240399,501818,34,Woman
33,540574,final-intermixed-textured,v2,jsons/MX_seq15_1_VE125.json,http://54.235.29.9/FacialAge/BNav_EC2/DepthDuration/MX_fS_VE_MTurk/MX_fS_HTML.html#244,244,1920,1080,1920,1080,1-12-2024,17-27-11,34,catch_stimuli/c3.png,125,,,1.0,1747,126,meters,jsons/MX_seq15_1_VE125.json,240399,501818,34,Woman
34,540574,final-intermixed-textured,v2,jsons/MX_seq15_1_VE125.json,http://54.235.29.9/FacialAge/BNav_EC2/DepthDuration/MX_fS_VE_MTurk/MX_fS_HTML.html#244,244,1920,1080,1920,1080,1-12-2024,17-27-11,35,VR_target_stimuli/s46_1x_2.42_348.png,125,1x,2.42,2.0,1811,125,meters,jsons/MX_seq15_1_VE125.json,240399,501818,34,Woman
35,540574,final-intermixed-textured,v2,jsons/MX_seq15_1_VE125.json,http://54.235.29.9/FacialAge/BNav_EC2/DepthDuration/MX_fS_VE_MTurk/MX_fS_HTML.html#244,244,1920,1080,1920,1080,1-12-2024,17-27-11,36,VR_target_stimuli/s22_0.75x_4.29_348.png,125,0.75x,4.29,1.0,1755,127,meters,jsons/MX_seq15_1_VE125.json,240399,501818,34,Woman
36,540574,final-intermixed-textured,v2,jsons/MX_seq15_1_VE125.json,http://54.235.29.9/FacialAge/BNav_EC2/DepthDuration/MX_fS_VE_MTurk/MX_fS_HTML.html#244,244,1920,1080,1920,1080,1-12-2024,17-27-11,37,VR_target_stimuli/s42_1.3x_3.2_305_BC.png,125,1.3x,3.2,1.0,1923,126,meters,jsons/MX_seq15_1_VE125.json,240399,501818,34,Woman
37,540574,final-intermixed-textured,v2,jsons/MX_seq15_1_VE125.json,http://54.235.29.9/FacialAge/BNav_EC2/DepthDuration/MX_fS_VE_MTurk/MX_fS_HTML.html#244,244,1920,1080,1920,1080,1-12-2024,17-27-11,38,VR_target_stimuli/s25_1.3x_1.4_299.png,125,1.3x,1.4,1.0,2027,126,meters,jsons/MX_seq15_1_VE125.json,240399,501818,34,Woman
38,540574,final-intermixed-textured,v2,jsons/MX_seq15_1_VE125.json,http://54.235.29.9/FacialAge/BNav_EC2/DepthDuration/MX_fS_VE_MTurk/MX_fS_HTML.html#244,244,1920,1080,1920,1080,1-12-2024,17-27-11,39,VR_target_stimuli/s50_1x_4.53_518_BC.png,125,1x,4.53,0.0,3700,126,meters,jsons/MX_seq15_1_VE125.json,240399,501818,34,Woman
39,540574,final-intermixed-textured,v2,jsons/MX_seq15_1_VE125.json,http://54.235.29.9/FacialAge/BNav_EC2/DepthDuration/MX_fS_VE_MTurk/MX_fS_HTML.html#244,244,1920,1080,1920,1080,1-12-2024,17-27-11,40,VR_target_stimuli/s53_0.75x_1.6_403_BC.png,125,0.75x,1.6,2.0,2627,125,meters,jsons/MX_seq15_1_VE125.json,240399,501818,34,Woman
40,540574,final-intermixed-textured,v2,jsons/MX_seq15_1_VE125.json,http://54.235.29.9/FacialAge/BNav_EC2/DepthDuration/MX_fS_VE_MTurk/MX_fS_HTML.html#244,244,1920,1080,1920,1080,1-12-2024,17-27-11,41,VR_target_stimuli/s38_1x_3.55_353.png,125,1x,3.55,1.0,1666,125,meters,jsons/MX_seq15_1_VE125.json,240399,501818,34,Woman
41,540574,final-intermixed-textured,v2,jsons/MX_seq15_1_VE125.json,http://54.235.29.9/FacialAge/BNav_EC2/DepthDuration/MX_fS_VE_MTurk/MX_fS_HTML.html#244,244,1920,1080,1920,1080,1-12-2024,17-27-11,42,VR_target_stimuli/s9_1.3x_1.2_276_BC.png,125,1.3x,1.2,1.0,3235,126,meters,jsons/MX_seq15_1_VE125.json,240399,501818,34,Woman
42,540574,final-intermixed-textured,v2,jsons/MX_seq15_1_VE125.json,http://54.235.29.9/FacialAge/BNav_EC2/DepthDuration/MX_fS_VE_MTurk/MX_fS_HTML.html#244,244,1920,1080,1920,1080,1-12-2024,17-27-11,43,VR_target_stimuli/s44_0.75x_4.4_314.png,125,0.75x,4.4,1.0,2164,125,meters,jsons/MX_seq15_1_VE125.json,240399,501818,34,Woman
43,540574,final-intermixed-textured,v2,jsons/MX_seq15_1_VE125.json,http://54.235.29.9/FacialAge/BNav_EC2/DepthDuration/MX_fS_VE_MTurk/MX_fS_HTML.html#244,244,1920,1080,1920,1080,1-12-2024,17-27-11,44,VR_target_stimuli/s3_1.3x_5_390.png,125,1.3x,5.0,2.0,40241,125,meters,jsons/MX_seq15_1_VE125.json,240399,501818,34,Woman
44,540574,final-intermixed-textured,v2,jsons/MX_seq15_1_VE125.json,http://54.235.29.9/FacialAge/BNav_EC2/DepthDuration/MX_fS_VE_MTurk/MX_fS_HTML.html#244,244,1920,1080,1920,1080,1-12-2024,17-27-11,45,catch_stimuli/c4.png,125,,,1.0,1715,125,meters,jsons/MX_seq15_1_VE125.json,240399,501818,34,Woman
45,540574,final-intermixed-textured,v2,jsons/MX_seq15_1_VE125.json,http://54.235.29.9/FacialAge/BNav_EC2/DepthDuration/MX_fS_VE_MTurk/MX_fS_HTML.html#244,244,1920,1080,1920,1080,1-12-2024,17-27-11,46,VR_target_stimuli/s1_1x_1.7_262_BC.png,125,1x,1.7,1.0,2156,125,meters,jsons/MX_seq15_1_VE125.json,240399,501818,34,Woman
46,540574,final-intermixed-textured,v2,jsons/MX_seq15_1_VE125.json,http://54.235.29.9/FacialAge/BNav_EC2/DepthDuration/MX_fS_VE_MTurk/MX_fS_HTML.html#244,244,1920,1080,1920,1080,1-12-2024,17-27-11,47,VR_target_stimuli/s11_0.75x_5_359_BC.png,125,0.75x,5.0,1.0,2515,125,meters,jsons/MX_seq15_1_VE125.json,240399,501818,34,Woman
47,540574,final-intermixed-textured,v2,jsons/MX_seq15_1_VE125.json,http://54.235.29.9/FacialAge/BNav_EC2/DepthDuration/MX_fS_VE_MTurk/MX_fS_HTML.html#244,244,1920,1080,1920,1080,1-12-2024,17-27-11,48,VR_target_stimuli/s2_0.75x_2.7_384_BC.png,125,0.75x,2.7,2.0,2011,125,meters,jsons/MX_seq15_1_VE125.json,240399,501818,34,Woman
48,540574,final-intermixed-textured,v2,jsons/MX_seq15_1_VE125.json,http://54.235.29.9/FacialAge/BNav_EC2/DepthDuration/MX_fS_VE_MTurk/MX_fS_HTML.html#244,244,1920,1080,1920,1080,1-12-2024,17-27-11,49,VR_target_stimuli/s6_1.3x_2.1_298_BC.png,125,1.3x,2.1,0.0,3682,126,meters,jsons/MX_seq15_1_VE125.json,240399,501818,34,Woman
49,540574,final-intermixed-textured,v2,jsons/MX_seq15_1_VE125.json,http://54.235.29.9/FacialAge/BNav_EC2/DepthDuration/MX_fS_VE_MTurk/MX_fS_HTML.html#244,244,1920,1080,1920,1080,1-12-2024,17-27-11,50,VR_target_stimuli/s0_1x_2.6_351.png,125,1x,2.6,2.0,2627,125,meters,jsons/MX_seq15_1_VE125.json,240399,501818,34,Woman
50,540574,final-intermixed-textured,v2,jsons/MX_seq15_1_VE125.json,http://54.235.29.9/FacialAge/BNav_EC2/DepthDuration/MX_fS_VE_MTurk/MX_fS_HTML.html#244,244,1920,1080,1920,1080,1-12-2024,17-27-11,51,VR_target_stimuli/s34_1.3x_2.8_294.png,125,1.3x,2.8,1.0,1906,126,meters,jsons/MX_seq15_1_VE125.json,240399,501818,34,Woman
51,540574,final-intermixed-textured,v2,jsons/MX_seq15_1_VE125.json,http://54.235.29.9/FacialAge/BNav_EC2/DepthDuration/MX_fS_VE_MTurk/MX_fS_HTML.html#244,244,1920,1080,1920,1080,1-12-2024,17-27-11,52,VR_target_stimuli/s13_0.75x_2.4_308.png,125,0.75x,2.4,1.0,2121,125,meters,jsons/MX_seq15_1_VE125.json,240399,501818,34,Woman
52,540574,final-intermixed-textured,v2,jsons/MX_seq15_1_VE125.json,http://54.235.29.9/FacialAge/BNav_EC2/DepthDuration/MX_fS_VE_MTurk/MX_fS_HTML.html#244,244,1920,1080,1920,1080,1-12-2024,17-27-11,53,catch_stimuli/c5.png,125,,,1.0,1669,124,meters,jsons/MX_seq15_1_VE125.json,240399,501818,34,Woman
53,540574,final-intermixed-textured,v2,jsons/MX_seq15_1_VE125.json,http://54.235.29.9/FacialAge/BNav_EC2/DepthDuration/MX_fS_VE_MTurk/MX_fS_HTML.html#244,244,1920,1080,1920,1080,1-12-2024,17-27-11,54,VR_target_stimuli/s14_1x_ 3.83_357_BC.png,125,1x,3.83,1.0,1683,126,meters,jsons/MX_seq15_1_VE125.json,240399,501818,34,Woman
54,540574,final-intermixed-textured,v2,jsons/MX_seq15_1_VE125.json,http://54.235.29.9/FacialAge/BNav_EC2/DepthDuration/MX_fS_VE_MTurk/MX_fS_HTML.html#244,244,1920,1080,1920,1080,1-12-2024,17-27-11,55,VR_target_stimuli/s47_0.75x_3.45_366.png,125,0.75x,3.45,0.0,4147,127,meters,jsons/MX_seq15_1_VE125.json,240399,501818,34,Woman
55,540574,final-intermixed-textured,v2,jsons/MX_seq15_1_VE125.json,http://54.235.29.9/FacialAge/BNav_EC2/DepthDuration/MX_fS_VE_MTurk/MX_fS_HTML.html#244,244,1920,1080,1920,1080,1-12-2024,17-27-11,56,VR_target_stimuli/s29_1.3x_1.3_253_BC.png,125,1.3x,1.3,0.0,3051,125,meters,jsons/MX_seq15_1_VE125.json,240399,501818,34,Woman
56,540574,final-intermixed-textured,v2,jsons/MX_seq15_1_VE125.json,http://54.235.29.9/FacialAge/BNav_EC2/DepthDuration/MX_fS_VE_MTurk/MX_fS_HTML.html#244,244,1920,1080,1920,1080,1-12-2024,17-27-11,57,VR_target_stimuli/s28_1x_3.2_362_BC.png,125,1x,3.2,3.0,3106,126,meters,jsons/MX_seq15_1_VE125.json,240399,501818,34,Woman
57,540574,final-intermixed-textured,v2,jsons/MX_seq15_1_VE125.json,http://54.235.29.9/FacialAge/BNav_EC2/DepthDuration/MX_fS_VE_MTurk/MX_fS_HTML.html#244,244,1920,1080,1920,1080,1-12-2024,17-27-11,58,VR_target_stimuli/s48_1x_2.55_256.png,125,1x,2.55,2.0,2739,126,meters,jsons/MX_seq15_1_VE125.json,240399,501818,34,Woman
58,540574,final-intermixed-textured,v2,jsons/MX_seq15_1_VE125.json,http://54.235.29.9/FacialAge/BNav_EC2/DepthDuration/MX_fS_VE_MTurk/MX_fS_HTML.html#244,244,1920,1080,1920,1080,1-12-2024,17-27-11,59,VR_target_stimuli/s19_0.75x_1.21_257_BC.png,125,0.75x,1.21,1.0,1826,124,meters,jsons/MX_seq15_1_VE125.json,240399,501818,34,Woman
59,540574,final-intermixed-textured,v2,jsons/MX_seq15_1_VE125.json,http://54.235.29.9/FacialAge/BNav_EC2/DepthDuration/MX_fS_VE_MTurk/MX_fS_HTML.html#244,244,1920,1080,1920,1080,1-12-2024,17-27-11,60,VR_target_stimuli/s21_1.3x_4.22_384.png,125,1.3x,4.22,2.0,1699,124,meters,jsons/MX_seq15_1_VE125.json,240399,501818,34,Woman
