,subjID,experimentName,versionName,sequenceName,url,selected_row,windowWidth,windowHeight,screenWidth,screenHeight,startDate,startTime,trial,stimulus,duration,scale,actual_depth,depth_estimate,trial_RT,log_sceneDuration,unitSelection,seq_filepath,experimentTime,totalTime,age,gender
0,568342,final-intermixed-textured,v2,jsons/MX_seq45_1_VE125.json,http://54.235.29.9/FacialAge/BNav_EC2/DepthDuration/MX_fS_VE_MTurk/MX_fS_HTML.html#108,108,1440,733,1440,900,1-12-2024,18-14-1,1,VR_target_stimuli/s46_1.3x_2.42_354_BC.png,125,1.3x,2.42,2.0,4532,127,meters,jsons/MX_seq45_1_VE125.json,213830,438140,25,Woman
1,568342,final-intermixed-textured,v2,jsons/MX_seq45_1_VE125.json,http://54.235.29.9/FacialAge/BNav_EC2/DepthDuration/MX_fS_VE_MTurk/MX_fS_HTML.html#108,108,1440,733,1440,900,1-12-2024,18-14-1,2,VR_target_stimuli/s22_0.75x_4.29_348.png,125,0.75x,4.29,4.0,3165,127,meters,jsons/MX_seq45_1_VE125.json,213830,438140,25,Woman
2,568342,final-intermixed-textured,v2,jsons/MX_seq45_1_VE125.json,http://54.235.29.9/FacialAge/BNav_EC2/DepthDuration/MX_fS_VE_MTurk/MX_fS_HTML.html#108,108,1440,733,1440,900,1-12-2024,18-14-1,3,VR_target_stimuli/s42_1x_3.2_303_BC.png,125,1x,3.2,4.0,2332,126,meters,jsons/MX_seq45_1_VE125.json,213830,438140,25,Woman
3,568342,final-intermixed-textured,v2,jsons/MX_seq45_1_VE125.json,http://54.235.29.9/FacialAge/BNav_EC2/DepthDuration/MX_fS_VE_MTurk/MX_fS_HTML.html#108,108,1440,733,1440,900,1-12-2024,18-14-1,4,VR_target_stimuli/s25_0.75x_1.4_281_BC.png,125,0.75x,1.4,6.0,2664,127,meters,jsons/MX_seq45_1_VE125.json,213830,438140,25,Woman
4,568342,final-intermixed-textured,v2,jsons/MX_seq45_1_VE125.json,http://54.235.29.9/FacialAge/BNav_EC2/DepthDuration/MX_fS_VE_MTurk/MX_fS_HTML.html#108,108,1440,733,1440,900,1-12-2024,18-14-1,5,VR_target_stimuli/s50_1.3x_4.53_518.png,125,1.3x,4.53,1.5,4181,126,meters,jsons/MX_seq45_1_VE125.json,213830,438140,25,Woman
5,568342,final-intermixed-textured,v2,jsons/MX_seq45_1_VE125.json,http://54.235.29.9/FacialAge/BNav_EC2/DepthDuration/MX_fS_VE_MTurk/MX_fS_HTML.html#108,108,1440,733,1440,900,1-12-2024,18-14-1,6,VR_target_stimuli/s53_1x_1.6_387.png,125,1x,1.6,1.0,2761,123,meters,jsons/MX_seq45_1_VE125.json,213830,438140,25,Woman
6,568342,final-intermixed-textured,v2,jsons/MX_seq45_1_VE125.json,http://54.235.29.9/FacialAge/BNav_EC2/DepthDuration/MX_fS_VE_MTurk/MX_fS_HTML.html#108,108,1440,733,1440,900,1-12-2024,18-14-1,7,catch_stimuli/c0.png,125,,,0.0,3132,126,meters,jsons/MX_seq45_1_VE125.json,213830,438140,25,Woman
7,568342,final-intermixed-textured,v2,jsons/MX_seq45_1_VE125.json,http://54.235.29.9/FacialAge/BNav_EC2/DepthDuration/MX_fS_VE_MTurk/MX_fS_HTML.html#108,108,1440,733,1440,900,1-12-2024,18-14-1,8,VR_target_stimuli/s38_1x_3.55_353.png,125,1x,3.55,3.0,2697,126,meters,jsons/MX_seq45_1_VE125.json,213830,438140,25,Woman
8,568342,final-intermixed-textured,v2,jsons/MX_seq45_1_VE125.json,http://54.235.29.9/FacialAge/BNav_EC2/DepthDuration/MX_fS_VE_MTurk/MX_fS_HTML.html#108,108,1440,733,1440,900,1-12-2024,18-14-1,9,VR_target_stimuli/s9_0.75x_1.2_260_BC.png,125,0.75x,1.2,2.0,3980,123,meters,jsons/MX_seq45_1_VE125.json,213830,438140,25,Woman
9,568342,final-intermixed-textured,v2,jsons/MX_seq45_1_VE125.json,http://54.235.29.9/FacialAge/BNav_EC2/DepthDuration/MX_fS_VE_MTurk/MX_fS_HTML.html#108,108,1440,733,1440,900,1-12-2024,18-14-1,10,VR_target_stimuli/s44_1.3x_4.4_325.png,125,1.3x,4.4,4.0,3198,126,meters,jsons/MX_seq45_1_VE125.json,213830,438140,25,Woman
10,568342,final-intermixed-textured,v2,jsons/MX_seq45_1_VE125.json,http://54.235.29.9/FacialAge/BNav_EC2/DepthDuration/MX_fS_VE_MTurk/MX_fS_HTML.html#108,108,1440,733,1440,900,1-12-2024,18-14-1,11,VR_target_stimuli/s3_0.75x_5_381.png,125,0.75x,5.0,7.0,3514,124,meters,jsons/MX_seq45_1_VE125.json,213830,438140,25,Woman
11,568342,final-intermixed-textured,v2,jsons/MX_seq45_1_VE125.json,http://54.235.29.9/FacialAge/BNav_EC2/DepthDuration/MX_fS_VE_MTurk/MX_fS_HTML.html#108,108,1440,733,1440,900,1-12-2024,18-14-1,12,VR_target_stimuli/s1_1x_1.7_262_BC.png,125,1x,1.7,2.0,3139,126,meters,jsons/MX_seq45_1_VE125.json,213830,438140,25,Woman
12,568342,final-intermixed-textured,v2,jsons/MX_seq45_1_VE125.json,http://54.235.29.9/FacialAge/BNav_EC2/DepthDuration/MX_fS_VE_MTurk/MX_fS_HTML.html#108,108,1440,733,1440,900,1-12-2024,18-14-1,13,VR_target_stimuli/s11_1.3x_5_363_BC.png,125,1.3x,5.0,5.0,2584,129,meters,jsons/MX_seq45_1_VE125.json,213830,438140,25,Woman
13,568342,final-intermixed-textured,v2,jsons/MX_seq45_1_VE125.json,http://54.235.29.9/FacialAge/BNav_EC2/DepthDuration/MX_fS_VE_MTurk/MX_fS_HTML.html#108,108,1440,733,1440,900,1-12-2024,18-14-1,14,VR_target_stimuli/s2_1x_2.7_390_BC.png,125,1x,2.7,3.0,2668,125,meters,jsons/MX_seq45_1_VE125.json,213830,438140,25,Woman
14,568342,final-intermixed-textured,v2,jsons/MX_seq45_1_VE125.json,http://54.235.29.9/FacialAge/BNav_EC2/DepthDuration/MX_fS_VE_MTurk/MX_fS_HTML.html#108,108,1440,733,1440,900,1-12-2024,18-14-1,15,VR_target_stimuli/s6_0.75x_2.1_290.png,125,0.75x,2.1,5.0,3351,126,meters,jsons/MX_seq45_1_VE125.json,213830,438140,25,Woman
15,568342,final-intermixed-textured,v2,jsons/MX_seq45_1_VE125.json,http://54.235.29.9/FacialAge/BNav_EC2/DepthDuration/MX_fS_VE_MTurk/MX_fS_HTML.html#108,108,1440,733,1440,900,1-12-2024,18-14-1,16,VR_target_stimuli/s0_1.3x_2.6_356.png,125,1.3x,2.6,3.0,2436,126,meters,jsons/MX_seq45_1_VE125.json,213830,438140,25,Woman
16,568342,final-intermixed-textured,v2,jsons/MX_seq45_1_VE125.json,http://54.235.29.9/FacialAge/BNav_EC2/DepthDuration/MX_fS_VE_MTurk/MX_fS_HTML.html#108,108,1440,733,1440,900,1-12-2024,18-14-1,17,catch_stimuli/c1.png,125,,,0.0,2679,122,meters,jsons/MX_seq45_1_VE125.json,213830,438140,25,Woman
17,568342,final-intermixed-textured,v2,jsons/MX_seq45_1_VE125.json,http://54.235.29.9/FacialAge/BNav_EC2/DepthDuration/MX_fS_VE_MTurk/MX_fS_HTML.html#108,108,1440,733,1440,900,1-12-2024,18-14-1,18,VR_target_stimuli/s34_1.3x_2.8_294_BC.png,125,1.3x,2.8,3.0,2283,126,meters,jsons/MX_seq45_1_VE125.json,213830,438140,25,Woman
18,568342,final-intermixed-textured,v2,jsons/MX_seq45_1_VE125.json,http://54.235.29.9/FacialAge/BNav_EC2/DepthDuration/MX_fS_VE_MTurk/MX_fS_HTML.html#108,108,1440,733,1440,900,1-12-2024,18-14-1,19,VR_target_stimuli/s13_1x_2.4_310.png,125,1x,2.4,2.0,3114,123,meters,jsons/MX_seq45_1_VE125.json,213830,438140,25,Woman
19,568342,final-intermixed-textured,v2,jsons/MX_seq45_1_VE125.json,http://54.235.29.9/FacialAge/BNav_EC2/DepthDuration/MX_fS_VE_MTurk/MX_fS_HTML.html#108,108,1440,733,1440,900,1-12-2024,18-14-1,20,VR_target_stimuli/s14_0.75x_3.83_355_BC.png,125,0.75x,3.83,4.0,2249,126,meters,jsons/MX_seq45_1_VE125.json,213830,438140,25,Woman
20,568342,final-intermixed-textured,v2,jsons/MX_seq45_1_VE125.json,http://54.235.29.9/FacialAge/BNav_EC2/DepthDuration/MX_fS_VE_MTurk/MX_fS_HTML.html#108,108,1440,733,1440,900,1-12-2024,18-14-1,21,VR_target_stimuli/s47_1x_3.45_370.png,125,1x,3.45,1.0,5334,125,meters,jsons/MX_seq45_1_VE125.json,213830,438140,25,Woman
21,568342,final-intermixed-textured,v2,jsons/MX_seq45_1_VE125.json,http://54.235.29.9/FacialAge/BNav_EC2/DepthDuration/MX_fS_VE_MTurk/MX_fS_HTML.html#108,108,1440,733,1440,900,1-12-2024,18-14-1,22,VR_target_stimuli/s29_1.3x_1.3_253.png,125,1.3x,1.3,1.0,2980,124,meters,jsons/MX_seq45_1_VE125.json,213830,438140,25,Woman
22,568342,final-intermixed-textured,v2,jsons/MX_seq45_1_VE125.json,http://54.235.29.9/FacialAge/BNav_EC2/DepthDuration/MX_fS_VE_MTurk/MX_fS_HTML.html#108,108,1440,733,1440,900,1-12-2024,18-14-1,23,VR_target_stimuli/s28_0.75x_3.2_357.png,125,0.75x,3.2,4.0,2349,126,meters,jsons/MX_seq45_1_VE125.json,213830,438140,25,Woman
23,568342,final-intermixed-textured,v2,jsons/MX_seq45_1_VE125.json,http://54.235.29.9/FacialAge/BNav_EC2/DepthDuration/MX_fS_VE_MTurk/MX_fS_HTML.html#108,108,1440,733,1440,900,1-12-2024,18-14-1,24,VR_target_stimuli/s48_1.3x_2.55_255_BC.png,125,1.3x,2.55,2.0,3066,126,meters,jsons/MX_seq45_1_VE125.json,213830,438140,25,Woman
24,568342,final-intermixed-textured,v2,jsons/MX_seq45_1_VE125.json,http://54.235.29.9/FacialAge/BNav_EC2/DepthDuration/MX_fS_VE_MTurk/MX_fS_HTML.html#108,108,1440,733,1440,900,1-12-2024,18-14-1,25,VR_target_stimuli/s19_1x_1.21_263_BC.png,125,1x,1.21,1.0,2580,129,meters,jsons/MX_seq45_1_VE125.json,213830,438140,25,Woman
25,568342,final-intermixed-textured,v2,jsons/MX_seq45_1_VE125.json,http://54.235.29.9/FacialAge/BNav_EC2/DepthDuration/MX_fS_VE_MTurk/MX_fS_HTML.html#108,108,1440,733,1440,900,1-12-2024,18-14-1,26,catch_stimuli/c2.png,125,,,0.0,2564,123,meters,jsons/MX_seq45_1_VE125.json,213830,438140,25,Woman
26,568342,final-intermixed-textured,v2,jsons/MX_seq45_1_VE125.json,http://54.235.29.9/FacialAge/BNav_EC2/DepthDuration/MX_fS_VE_MTurk/MX_fS_HTML.html#108,108,1440,733,1440,900,1-12-2024,18-14-1,27,VR_target_stimuli/s21_0.75x_4.22_374_BC.png,125,0.75x,4.22,7.0,2365,126,meters,jsons/MX_seq45_1_VE125.json,213830,438140,25,Woman
27,568342,final-intermixed-textured,v2,jsons/MX_seq45_1_VE125.json,http://54.235.29.9/FacialAge/BNav_EC2/DepthDuration/MX_fS_VE_MTurk/MX_fS_HTML.html#108,108,1440,733,1440,900,1-12-2024,18-14-1,28,VR_target_stimuli/s8_0.75x_3.1_325.png,125,0.75x,3.1,4.0,2746,130,meters,jsons/MX_seq45_1_VE125.json,213830,438140,25,Woman
28,568342,final-intermixed-textured,v2,jsons/MX_seq45_1_VE125.json,http://54.235.29.9/FacialAge/BNav_EC2/DepthDuration/MX_fS_VE_MTurk/MX_fS_HTML.html#108,108,1440,733,1440,900,1-12-2024,18-14-1,29,VR_target_stimuli/s27_1.3x_1.76_250.png,125,1.3x,1.76,3.0,2768,125,meters,jsons/MX_seq45_1_VE125.json,213830,438140,25,Woman
29,568342,final-intermixed-textured,v2,jsons/MX_seq45_1_VE125.json,http://54.235.29.9/FacialAge/BNav_EC2/DepthDuration/MX_fS_VE_MTurk/MX_fS_HTML.html#108,108,1440,733,1440,900,1-12-2024,18-14-1,30,VR_target_stimuli/s15_1x_4.2_390.png,125,1x,4.2,3.0,3362,123,meters,jsons/MX_seq45_1_VE125.json,213830,438140,25,Woman
30,568342,final-intermixed-textured,v2,jsons/MX_seq45_1_VE125.json,http://54.235.29.9/FacialAge/BNav_EC2/DepthDuration/MX_fS_VE_MTurk/MX_fS_HTML.html#108,108,1440,733,1440,900,1-12-2024,18-14-1,31,VR_target_stimuli/s4_0.75x_1.4_301_BC.png,125,0.75x,1.4,1.0,2578,121,meters,jsons/MX_seq45_1_VE125.json,213830,438140,25,Woman
31,568342,final-intermixed-textured,v2,jsons/MX_seq45_1_VE125.json,http://54.235.29.9/FacialAge/BNav_EC2/DepthDuration/MX_fS_VE_MTurk/MX_fS_HTML.html#108,108,1440,733,1440,900,1-12-2024,18-14-1,32,VR_target_stimuli/s35_1x_2_331_BC.png,125,1x,2.0,1.0,2745,121,meters,jsons/MX_seq45_1_VE125.json,213830,438140,25,Woman
32,568342,final-intermixed-textured,v2,jsons/MX_seq45_1_VE125.json,http://54.235.29.9/FacialAge/BNav_EC2/DepthDuration/MX_fS_VE_MTurk/MX_fS_HTML.html#108,108,1440,733,1440,900,1-12-2024,18-14-1,33,VR_target_stimuli/s49_1.3x_4.67_354_BC.png,125,1.3x,4.67,3.0,3374,123,meters,jsons/MX_seq45_1_VE125.json,213830,438140,25,Woman
33,568342,final-intermixed-textured,v2,jsons/MX_seq45_1_VE125.json,http://54.235.29.9/FacialAge/BNav_EC2/DepthDuration/MX_fS_VE_MTurk/MX_fS_HTML.html#108,108,1440,733,1440,900,1-12-2024,18-14-1,34,catch_stimuli/c3.png,125,,,0.0,2933,123,meters,jsons/MX_seq45_1_VE125.json,213830,438140,25,Woman
34,568342,final-intermixed-textured,v2,jsons/MX_seq45_1_VE125.json,http://54.235.29.9/FacialAge/BNav_EC2/DepthDuration/MX_fS_VE_MTurk/MX_fS_HTML.html#108,108,1440,733,1440,900,1-12-2024,18-14-1,35,VR_target_stimuli/s7_1x_1.5_255.png,125,1x,1.5,3.0,3612,123,meters,jsons/MX_seq45_1_VE125.json,213830,438140,25,Woman
35,568342,final-intermixed-textured,v2,jsons/MX_seq45_1_VE125.json,http://54.235.29.9/FacialAge/BNav_EC2/DepthDuration/MX_fS_VE_MTurk/MX_fS_HTML.html#108,108,1440,733,1440,900,1-12-2024,18-14-1,36,VR_target_stimuli/s20_0.75x_4.99_390.png,125,0.75x,4.99,2.0,4027,121,meters,jsons/MX_seq45_1_VE125.json,213830,438140,25,Woman
36,568342,final-intermixed-textured,v2,jsons/MX_seq45_1_VE125.json,http://54.235.29.9/FacialAge/BNav_EC2/DepthDuration/MX_fS_VE_MTurk/MX_fS_HTML.html#108,108,1440,733,1440,900,1-12-2024,18-14-1,37,VR_target_stimuli/s31_1.3x_4.96_342_BC.png,125,1.3x,4.96,3.0,2745,122,meters,jsons/MX_seq45_1_VE125.json,213830,438140,25,Woman
37,568342,final-intermixed-textured,v2,jsons/MX_seq45_1_VE125.json,http://54.235.29.9/FacialAge/BNav_EC2/DepthDuration/MX_fS_VE_MTurk/MX_fS_HTML.html#108,108,1440,733,1440,900,1-12-2024,18-14-1,38,VR_target_stimuli/s33_1.3x_3.1_378.png,125,1.3x,3.1,4.0,4214,122,meters,jsons/MX_seq45_1_VE125.json,213830,438140,25,Woman
38,568342,final-intermixed-textured,v2,jsons/MX_seq45_1_VE125.json,http://54.235.29.9/FacialAge/BNav_EC2/DepthDuration/MX_fS_VE_MTurk/MX_fS_HTML.html#108,108,1440,733,1440,900,1-12-2024,18-14-1,39,VR_target_stimuli/s52_1x_3.2_275_BC.png,125,1x,3.2,3.0,3279,126,meters,jsons/MX_seq45_1_VE125.json,213830,438140,25,Woman
39,568342,final-intermixed-textured,v2,jsons/MX_seq45_1_VE125.json,http://54.235.29.9/FacialAge/BNav_EC2/DepthDuration/MX_fS_VE_MTurk/MX_fS_HTML.html#108,108,1440,733,1440,900,1-12-2024,18-14-1,40,VR_target_stimuli/s32_0.75x_1.5_213_BC.png,125,0.75x,1.5,3.0,3198,124,meters,jsons/MX_seq45_1_VE125.json,213830,438140,25,Woman
40,568342,final-intermixed-textured,v2,jsons/MX_seq45_1_VE125.json,http://54.235.29.9/FacialAge/BNav_EC2/DepthDuration/MX_fS_VE_MTurk/MX_fS_HTML.html#108,108,1440,733,1440,900,1-12-2024,18-14-1,41,VR_target_stimuli/s18_1x_2.25_353.png,125,1x,2.25,2.0,4565,126,meters,jsons/MX_seq45_1_VE125.json,213830,438140,25,Woman
41,568342,final-intermixed-textured,v2,jsons/MX_seq45_1_VE125.json,http://54.235.29.9/FacialAge/BNav_EC2/DepthDuration/MX_fS_VE_MTurk/MX_fS_HTML.html#108,108,1440,733,1440,900,1-12-2024,18-14-1,42,VR_target_stimuli/s39_1.3x_1_208_BC.png,125,1.3x,1.0,1.0,2845,123,meters,jsons/MX_seq45_1_VE125.json,213830,438140,25,Woman
42,568342,final-intermixed-textured,v2,jsons/MX_seq45_1_VE125.json,http://54.235.29.9/FacialAge/BNav_EC2/DepthDuration/MX_fS_VE_MTurk/MX_fS_HTML.html#108,108,1440,733,1440,900,1-12-2024,18-14-1,43,VR_target_stimuli/s51_0.75x_3.64_460.png,125,0.75x,3.64,3.0,3617,126,meters,jsons/MX_seq45_1_VE125.json,213830,438140,25,Woman
43,568342,final-intermixed-textured,v2,jsons/MX_seq45_1_VE125.json,http://54.235.29.9/FacialAge/BNav_EC2/DepthDuration/MX_fS_VE_MTurk/MX_fS_HTML.html#108,108,1440,733,1440,900,1-12-2024,18-14-1,44,VR_target_stimuli/s43_1.3x_2.2_363.png,125,1.3x,2.2,3.0,2529,126,meters,jsons/MX_seq45_1_VE125.json,213830,438140,25,Woman
44,568342,final-intermixed-textured,v2,jsons/MX_seq45_1_VE125.json,http://54.235.29.9/FacialAge/BNav_EC2/DepthDuration/MX_fS_VE_MTurk/MX_fS_HTML.html#108,108,1440,733,1440,900,1-12-2024,18-14-1,45,catch_stimuli/c4.png,125,,,0.0,2783,124,meters,jsons/MX_seq45_1_VE125.json,213830,438140,25,Woman
45,568342,final-intermixed-textured,v2,jsons/MX_seq45_1_VE125.json,http://54.235.29.9/FacialAge/BNav_EC2/DepthDuration/MX_fS_VE_MTurk/MX_fS_HTML.html#108,108,1440,733,1440,900,1-12-2024,18-14-1,46,VR_target_stimuli/s24_1x_3.3_349_BC.png,125,1x,3.3,3.0,2815,125,meters,jsons/MX_seq45_1_VE125.json,213830,438140,25,Woman
46,568342,final-intermixed-textured,v2,jsons/MX_seq45_1_VE125.json,http://54.235.29.9/FacialAge/BNav_EC2/DepthDuration/MX_fS_VE_MTurk/MX_fS_HTML.html#108,108,1440,733,1440,900,1-12-2024,18-14-1,47,VR_target_stimuli/s10_0.75x_2.7_321_BC.png,125,0.75x,2.7,4.0,2467,123,meters,jsons/MX_seq45_1_VE125.json,213830,438140,25,Woman
47,568342,final-intermixed-textured,v2,jsons/MX_seq45_1_VE125.json,http://54.235.29.9/FacialAge/BNav_EC2/DepthDuration/MX_fS_VE_MTurk/MX_fS_HTML.html#108,108,1440,733,1440,900,1-12-2024,18-14-1,48,VR_target_stimuli/s36_0.75x_4.1_407_BC.png,125,0.75x,4.1,3.0,4095,122,meters,jsons/MX_seq45_1_VE125.json,213830,438140,25,Woman
48,568342,final-intermixed-textured,v2,jsons/MX_seq45_1_VE125.json,http://54.235.29.9/FacialAge/BNav_EC2/DepthDuration/MX_fS_VE_MTurk/MX_fS_HTML.html#108,108,1440,733,1440,900,1-12-2024,18-14-1,49,VR_target_stimuli/s40_1.3x_1.2_332_BC.png,125,1.3x,1.2,2.0,2279,123,meters,jsons/MX_seq45_1_VE125.json,213830,438140,25,Woman
49,568342,final-intermixed-textured,v2,jsons/MX_seq45_1_VE125.json,http://54.235.29.9/FacialAge/BNav_EC2/DepthDuration/MX_fS_VE_MTurk/MX_fS_HTML.html#108,108,1440,733,1440,900,1-12-2024,18-14-1,50,VR_target_stimuli/s41_1x_2.1_286.png,125,1x,2.1,3.0,3582,126,meters,jsons/MX_seq45_1_VE125.json,213830,438140,25,Woman
50,568342,final-intermixed-textured,v2,jsons/MX_seq45_1_VE125.json,http://54.235.29.9/FacialAge/BNav_EC2/DepthDuration/MX_fS_VE_MTurk/MX_fS_HTML.html#108,108,1440,733,1440,900,1-12-2024,18-14-1,51,VR_target_stimuli/s45_1.3x_3.5_377.png,125,1.3x,3.5,2.0,2682,125,meters,jsons/MX_seq45_1_VE125.json,213830,438140,25,Woman
51,568342,final-intermixed-textured,v2,jsons/MX_seq45_1_VE125.json,http://54.235.29.9/FacialAge/BNav_EC2/DepthDuration/MX_fS_VE_MTurk/MX_fS_HTML.html#108,108,1440,733,1440,900,1-12-2024,18-14-1,52,VR_target_stimuli/s23_0.75x_3.65_351.png,125,0.75x,3.65,4.0,2732,125,meters,jsons/MX_seq45_1_VE125.json,213830,438140,25,Woman
52,568342,final-intermixed-textured,v2,jsons/MX_seq45_1_VE125.json,http://54.235.29.9/FacialAge/BNav_EC2/DepthDuration/MX_fS_VE_MTurk/MX_fS_HTML.html#108,108,1440,733,1440,900,1-12-2024,18-14-1,53,catch_stimuli/c5.png,125,,,0.0,2578,122,meters,jsons/MX_seq45_1_VE125.json,213830,438140,25,Woman
53,568342,final-intermixed-textured,v2,jsons/MX_seq45_1_VE125.json,http://54.235.29.9/FacialAge/BNav_EC2/DepthDuration/MX_fS_VE_MTurk/MX_fS_HTML.html#108,108,1440,733,1440,900,1-12-2024,18-14-1,54,VR_target_stimuli/s26_1x_4_433_BC.png,125,1x,4.0,6.0,3960,126,meters,jsons/MX_seq45_1_VE125.json,213830,438140,25,Woman
54,568342,final-intermixed-textured,v2,jsons/MX_seq45_1_VE125.json,http://54.235.29.9/FacialAge/BNav_EC2/DepthDuration/MX_fS_VE_MTurk/MX_fS_HTML.html#108,108,1440,733,1440,900,1-12-2024,18-14-1,55,VR_target_stimuli/s12_0.75x_3.1_364_BC.png,125,0.75x,3.1,5.0,3099,124,meters,jsons/MX_seq45_1_VE125.json,213830,438140,25,Woman
55,568342,final-intermixed-textured,v2,jsons/MX_seq45_1_VE125.json,http://54.235.29.9/FacialAge/BNav_EC2/DepthDuration/MX_fS_VE_MTurk/MX_fS_HTML.html#108,108,1440,733,1440,900,1-12-2024,18-14-1,56,VR_target_stimuli/s30_1.3x_2.3_337.png,125,1.3x,2.3,4.0,2718,128,meters,jsons/MX_seq45_1_VE125.json,213830,438140,25,Woman
56,568342,final-intermixed-textured,v2,jsons/MX_seq45_1_VE125.json,http://54.235.29.9/FacialAge/BNav_EC2/DepthDuration/MX_fS_VE_MTurk/MX_fS_HTML.html#108,108,1440,733,1440,900,1-12-2024,18-14-1,57,VR_target_stimuli/s16_1x_1_219.png,125,1x,1.0,2.0,3349,127,meters,jsons/MX_seq45_1_VE125.json,213830,438140,25,Woman
57,568342,final-intermixed-textured,v2,jsons/MX_seq45_1_VE125.json,http://54.235.29.9/FacialAge/BNav_EC2/DepthDuration/MX_fS_VE_MTurk/MX_fS_HTML.html#108,108,1440,733,1440,900,1-12-2024,18-14-1,58,VR_target_stimuli/s17_1x_1.8_291_BC.png,125,1x,1.8,2.0,2728,124,meters,jsons/MX_seq45_1_VE125.json,213830,438140,25,Woman
58,568342,final-intermixed-textured,v2,jsons/MX_seq45_1_VE125.json,http://54.235.29.9/FacialAge/BNav_EC2/DepthDuration/MX_fS_VE_MTurk/MX_fS_HTML.html#108,108,1440,733,1440,900,1-12-2024,18-14-1,59,VR_target_stimuli/s5_0.75x_4_375.png,125,0.75x,4.0,4.0,2330,123,meters,jsons/MX_seq45_1_VE125.json,213830,438140,25,Woman
59,568342,final-intermixed-textured,v2,jsons/MX_seq45_1_VE125.json,http://54.235.29.9/FacialAge/BNav_EC2/DepthDuration/MX_fS_VE_MTurk/MX_fS_HTML.html#108,108,1440,733,1440,900,1-12-2024,18-14-1,60,VR_target_stimuli/s37_1.3x_3.3_555_BC.png,125,1.3x,3.3,1.0,2428,122,meters,jsons/MX_seq45_1_VE125.json,213830,438140,25,Woman
