,subjID,experimentName,versionName,sequenceName,url,selected_row,windowWidth,windowHeight,screenWidth,screenHeight,startDate,startTime,trial,stimulus,duration,scale,actual_depth,depth_estimate,trial_RT,log_sceneDuration,unitSelection,seq_filepath,experimentTime,totalTime,age,gender
0,588237,final-intermixed-textured,v2,jsons/MX_seq33_2_VE125.json,http://54.235.29.9/FacialAge/BNav_EC2/DepthDuration/MX_fS_VE_MTurk/MX_fS_HTML.html#213,213,1920,1080,1920,1080,1-12-2024,20-37-2,1,VR_target_stimuli/s36_1x_4.1_423_BC.png,125,1x,4.1,2.0,3259,122,meters,jsons/MX_seq33_2_VE125.json,375758,604236,25,Woman
1,588237,final-intermixed-textured,v2,jsons/MX_seq33_2_VE125.json,http://54.235.29.9/FacialAge/BNav_EC2/DepthDuration/MX_fS_VE_MTurk/MX_fS_HTML.html#213,213,1920,1080,1920,1080,1-12-2024,20-37-2,2,VR_target_stimuli/s40_1.3x_1.2_332.png,125,1.3x,1.2,1.0,4142,125,meters,jsons/MX_seq33_2_VE125.json,375758,604236,25,Woman
2,588237,final-intermixed-textured,v2,jsons/MX_seq33_2_VE125.json,http://54.235.29.9/FacialAge/BNav_EC2/DepthDuration/MX_fS_VE_MTurk/MX_fS_HTML.html#213,213,1920,1080,1920,1080,1-12-2024,20-37-2,3,VR_target_stimuli/s41_0.75x_2.1_281.png,125,0.75x,2.1,1.5,4001,121,meters,jsons/MX_seq33_2_VE125.json,375758,604236,25,Woman
3,588237,final-intermixed-textured,v2,jsons/MX_seq33_2_VE125.json,http://54.235.29.9/FacialAge/BNav_EC2/DepthDuration/MX_fS_VE_MTurk/MX_fS_HTML.html#213,213,1920,1080,1920,1080,1-12-2024,20-37-2,4,VR_target_stimuli/s45_1.3x_3.5_377_BC.png,125,1.3x,3.5,1.5,6320,137,meters,jsons/MX_seq33_2_VE125.json,375758,604236,25,Woman
4,588237,final-intermixed-textured,v2,jsons/MX_seq33_2_VE125.json,http://54.235.29.9/FacialAge/BNav_EC2/DepthDuration/MX_fS_VE_MTurk/MX_fS_HTML.html#213,213,1920,1080,1920,1080,1-12-2024,20-37-2,5,VR_target_stimuli/s23_1x_3.65_353.png,125,1x,3.65,1.0,4426,121,meters,jsons/MX_seq33_2_VE125.json,375758,604236,25,Woman
5,588237,final-intermixed-textured,v2,jsons/MX_seq33_2_VE125.json,http://54.235.29.9/FacialAge/BNav_EC2/DepthDuration/MX_fS_VE_MTurk/MX_fS_HTML.html#213,213,1920,1080,1920,1080,1-12-2024,20-37-2,6,VR_target_stimuli/s26_0.75x_4_430_BC.png,125,0.75x,4.0,2.0,7051,122,meters,jsons/MX_seq33_2_VE125.json,375758,604236,25,Woman
6,588237,final-intermixed-textured,v2,jsons/MX_seq33_2_VE125.json,http://54.235.29.9/FacialAge/BNav_EC2/DepthDuration/MX_fS_VE_MTurk/MX_fS_HTML.html#213,213,1920,1080,1920,1080,1-12-2024,20-37-2,7,catch_stimuli/c0.png,125,,,0.0,4756,122,meters,jsons/MX_seq33_2_VE125.json,375758,604236,25,Woman
7,588237,final-intermixed-textured,v2,jsons/MX_seq33_2_VE125.json,http://54.235.29.9/FacialAge/BNav_EC2/DepthDuration/MX_fS_VE_MTurk/MX_fS_HTML.html#213,213,1920,1080,1920,1080,1-12-2024,20-37-2,8,VR_target_stimuli/s12_0.75x_3.1_364_BC.png,125,0.75x,3.1,1.5,4292,122,meters,jsons/MX_seq33_2_VE125.json,375758,604236,25,Woman
8,588237,final-intermixed-textured,v2,jsons/MX_seq33_2_VE125.json,http://54.235.29.9/FacialAge/BNav_EC2/DepthDuration/MX_fS_VE_MTurk/MX_fS_HTML.html#213,213,1920,1080,1920,1080,1-12-2024,20-37-2,9,VR_target_stimuli/s30_1.3x_2.3_337_BC.png,125,1.3x,2.3,1.7,9191,123,meters,jsons/MX_seq33_2_VE125.json,375758,604236,25,Woman
9,588237,final-intermixed-textured,v2,jsons/MX_seq33_2_VE125.json,http://54.235.29.9/FacialAge/BNav_EC2/DepthDuration/MX_fS_VE_MTurk/MX_fS_HTML.html#213,213,1920,1080,1920,1080,1-12-2024,20-37-2,10,VR_target_stimuli/s16_1x_1_219.png,125,1x,1.0,1.0,2879,139,meters,jsons/MX_seq33_2_VE125.json,375758,604236,25,Woman
10,588237,final-intermixed-textured,v2,jsons/MX_seq33_2_VE125.json,http://54.235.29.9/FacialAge/BNav_EC2/DepthDuration/MX_fS_VE_MTurk/MX_fS_HTML.html#213,213,1920,1080,1920,1080,1-12-2024,20-37-2,11,VR_target_stimuli/s17_1.3x_1.8_300.png,125,1.3x,1.8,1.0,4874,122,meters,jsons/MX_seq33_2_VE125.json,375758,604236,25,Woman
11,588237,final-intermixed-textured,v2,jsons/MX_seq33_2_VE125.json,http://54.235.29.9/FacialAge/BNav_EC2/DepthDuration/MX_fS_VE_MTurk/MX_fS_HTML.html#213,213,1920,1080,1920,1080,1-12-2024,20-37-2,12,VR_target_stimuli/s5_0.75x_4_375.png,125,0.75x,4.0,3.0,5163,122,meters,jsons/MX_seq33_2_VE125.json,375758,604236,25,Woman
12,588237,final-intermixed-textured,v2,jsons/MX_seq33_2_VE125.json,http://54.235.29.9/FacialAge/BNav_EC2/DepthDuration/MX_fS_VE_MTurk/MX_fS_HTML.html#213,213,1920,1080,1920,1080,1-12-2024,20-37-2,13,VR_target_stimuli/s37_1x_3.3_563_BC.png,125,1x,3.3,1.8,10869,122,meters,jsons/MX_seq33_2_VE125.json,375758,604236,25,Woman
13,588237,final-intermixed-textured,v2,jsons/MX_seq33_2_VE125.json,http://54.235.29.9/FacialAge/BNav_EC2/DepthDuration/MX_fS_VE_MTurk/MX_fS_HTML.html#213,213,1920,1080,1920,1080,1-12-2024,20-37-2,14,VR_target_stimuli/s46_0.75x_2.42_343_BC.png,125,0.75x,2.42,1.4,5878,122,meters,jsons/MX_seq33_2_VE125.json,375758,604236,25,Woman
14,588237,final-intermixed-textured,v2,jsons/MX_seq33_2_VE125.json,http://54.235.29.9/FacialAge/BNav_EC2/DepthDuration/MX_fS_VE_MTurk/MX_fS_HTML.html#213,213,1920,1080,1920,1080,1-12-2024,20-37-2,15,VR_target_stimuli/s22_1.3x_4.29_364.png,125,1.3x,4.29,2.0,4801,122,meters,jsons/MX_seq33_2_VE125.json,375758,604236,25,Woman
15,588237,final-intermixed-textured,v2,jsons/MX_seq33_2_VE125.json,http://54.235.29.9/FacialAge/BNav_EC2/DepthDuration/MX_fS_VE_MTurk/MX_fS_HTML.html#213,213,1920,1080,1920,1080,1-12-2024,20-37-2,16,VR_target_stimuli/s42_1x_3.2_303_BC.png,125,1x,3.2,2.5,5720,122,meters,jsons/MX_seq33_2_VE125.json,375758,604236,25,Woman
16,588237,final-intermixed-textured,v2,jsons/MX_seq33_2_VE125.json,http://54.235.29.9/FacialAge/BNav_EC2/DepthDuration/MX_fS_VE_MTurk/MX_fS_HTML.html#213,213,1920,1080,1920,1080,1-12-2024,20-37-2,17,catch_stimuli/c1.png,125,,,0.0,5048,122,meters,jsons/MX_seq33_2_VE125.json,375758,604236,25,Woman
17,588237,final-intermixed-textured,v2,jsons/MX_seq33_2_VE125.json,http://54.235.29.9/FacialAge/BNav_EC2/DepthDuration/MX_fS_VE_MTurk/MX_fS_HTML.html#213,213,1920,1080,1920,1080,1-12-2024,20-37-2,18,VR_target_stimuli/s25_1x_1.4_290.png,125,1x,1.4,1.0,3814,121,meters,jsons/MX_seq33_2_VE125.json,375758,604236,25,Woman
18,588237,final-intermixed-textured,v2,jsons/MX_seq33_2_VE125.json,http://54.235.29.9/FacialAge/BNav_EC2/DepthDuration/MX_fS_VE_MTurk/MX_fS_HTML.html#213,213,1920,1080,1920,1080,1-12-2024,20-37-2,19,VR_target_stimuli/s50_0.75x_4.53_517.png,125,0.75x,4.53,1.5,4786,131,meters,jsons/MX_seq33_2_VE125.json,375758,604236,25,Woman
19,588237,final-intermixed-textured,v2,jsons/MX_seq33_2_VE125.json,http://54.235.29.9/FacialAge/BNav_EC2/DepthDuration/MX_fS_VE_MTurk/MX_fS_HTML.html#213,213,1920,1080,1920,1080,1-12-2024,20-37-2,20,VR_target_stimuli/s53_1.3x_1.6_355_BC.png,125,1.3x,1.6,1.0,4490,123,meters,jsons/MX_seq33_2_VE125.json,375758,604236,25,Woman
20,588237,final-intermixed-textured,v2,jsons/MX_seq33_2_VE125.json,http://54.235.29.9/FacialAge/BNav_EC2/DepthDuration/MX_fS_VE_MTurk/MX_fS_HTML.html#213,213,1920,1080,1920,1080,1-12-2024,20-37-2,21,VR_target_stimuli/s38_0.75x_3.55_346_BC.png,125,0.75x,3.55,2.5,9261,122,meters,jsons/MX_seq33_2_VE125.json,375758,604236,25,Woman
21,588237,final-intermixed-textured,v2,jsons/MX_seq33_2_VE125.json,http://54.235.29.9/FacialAge/BNav_EC2/DepthDuration/MX_fS_VE_MTurk/MX_fS_HTML.html#213,213,1920,1080,1920,1080,1-12-2024,20-37-2,22,VR_target_stimuli/s9_1x_1.2_263.png,125,1x,1.2,1.0,7983,122,meters,jsons/MX_seq33_2_VE125.json,375758,604236,25,Woman
22,588237,final-intermixed-textured,v2,jsons/MX_seq33_2_VE125.json,http://54.235.29.9/FacialAge/BNav_EC2/DepthDuration/MX_fS_VE_MTurk/MX_fS_HTML.html#213,213,1920,1080,1920,1080,1-12-2024,20-37-2,23,VR_target_stimuli/s44_1.3x_4.4_325.png,125,1.3x,4.4,3.0,3765,138,meters,jsons/MX_seq33_2_VE125.json,375758,604236,25,Woman
23,588237,final-intermixed-textured,v2,jsons/MX_seq33_2_VE125.json,http://54.235.29.9/FacialAge/BNav_EC2/DepthDuration/MX_fS_VE_MTurk/MX_fS_HTML.html#213,213,1920,1080,1920,1080,1-12-2024,20-37-2,24,VR_target_stimuli/s3_1x_5_385_BC.png,125,1x,5.0,2.0,5880,122,meters,jsons/MX_seq33_2_VE125.json,375758,604236,25,Woman
24,588237,final-intermixed-textured,v2,jsons/MX_seq33_2_VE125.json,http://54.235.29.9/FacialAge/BNav_EC2/DepthDuration/MX_fS_VE_MTurk/MX_fS_HTML.html#213,213,1920,1080,1920,1080,1-12-2024,20-37-2,25,VR_target_stimuli/s1_0.75x_1.7_265.png,125,0.75x,1.7,2.0,7480,122,meters,jsons/MX_seq33_2_VE125.json,375758,604236,25,Woman
25,588237,final-intermixed-textured,v2,jsons/MX_seq33_2_VE125.json,http://54.235.29.9/FacialAge/BNav_EC2/DepthDuration/MX_fS_VE_MTurk/MX_fS_HTML.html#213,213,1920,1080,1920,1080,1-12-2024,20-37-2,26,catch_stimuli/c2.png,125,,,0.0,4262,137,meters,jsons/MX_seq33_2_VE125.json,375758,604236,25,Woman
26,588237,final-intermixed-textured,v2,jsons/MX_seq33_2_VE125.json,http://54.235.29.9/FacialAge/BNav_EC2/DepthDuration/MX_fS_VE_MTurk/MX_fS_HTML.html#213,213,1920,1080,1920,1080,1-12-2024,20-37-2,27,VR_target_stimuli/s11_1.3x_5_363_BC.png,125,1.3x,5.0,2.0,2822,122,meters,jsons/MX_seq33_2_VE125.json,375758,604236,25,Woman
27,588237,final-intermixed-textured,v2,jsons/MX_seq33_2_VE125.json,http://54.235.29.9/FacialAge/BNav_EC2/DepthDuration/MX_fS_VE_MTurk/MX_fS_HTML.html#213,213,1920,1080,1920,1080,1-12-2024,20-37-2,28,VR_target_stimuli/s2_1.3x_2.7_397.png,125,1.3x,2.7,0.8,5028,122,meters,jsons/MX_seq33_2_VE125.json,375758,604236,25,Woman
28,588237,final-intermixed-textured,v2,jsons/MX_seq33_2_VE125.json,http://54.235.29.9/FacialAge/BNav_EC2/DepthDuration/MX_fS_VE_MTurk/MX_fS_HTML.html#213,213,1920,1080,1920,1080,1-12-2024,20-37-2,29,VR_target_stimuli/s6_1x_2.1_293_BC.png,125,1x,2.1,1.0,5400,122,meters,jsons/MX_seq33_2_VE125.json,375758,604236,25,Woman
29,588237,final-intermixed-textured,v2,jsons/MX_seq33_2_VE125.json,http://54.235.29.9/FacialAge/BNav_EC2/DepthDuration/MX_fS_VE_MTurk/MX_fS_HTML.html#213,213,1920,1080,1920,1080,1-12-2024,20-37-2,30,VR_target_stimuli/s0_0.75x_2.6_345_BC.png,125,0.75x,2.6,1.5,6122,138,meters,jsons/MX_seq33_2_VE125.json,375758,604236,25,Woman
30,588237,final-intermixed-textured,v2,jsons/MX_seq33_2_VE125.json,http://54.235.29.9/FacialAge/BNav_EC2/DepthDuration/MX_fS_VE_MTurk/MX_fS_HTML.html#213,213,1920,1080,1920,1080,1-12-2024,20-37-2,31,VR_target_stimuli/s34_1.3x_2.8_294_BC.png,125,1.3x,2.8,2.0,5742,123,meters,jsons/MX_seq33_2_VE125.json,375758,604236,25,Woman
31,588237,final-intermixed-textured,v2,jsons/MX_seq33_2_VE125.json,http://54.235.29.9/FacialAge/BNav_EC2/DepthDuration/MX_fS_VE_MTurk/MX_fS_HTML.html#213,213,1920,1080,1920,1080,1-12-2024,20-37-2,32,VR_target_stimuli/s13_0.75x_2.4_308.png,125,0.75x,2.4,2.0,8226,123,meters,jsons/MX_seq33_2_VE125.json,375758,604236,25,Woman
32,588237,final-intermixed-textured,v2,jsons/MX_seq33_2_VE125.json,http://54.235.29.9/FacialAge/BNav_EC2/DepthDuration/MX_fS_VE_MTurk/MX_fS_HTML.html#213,213,1920,1080,1920,1080,1-12-2024,20-37-2,33,VR_target_stimuli/s14_1x_ 3.83_357.png,125,1x,3.83,2.5,8258,122,meters,jsons/MX_seq33_2_VE125.json,375758,604236,25,Woman
33,588237,final-intermixed-textured,v2,jsons/MX_seq33_2_VE125.json,http://54.235.29.9/FacialAge/BNav_EC2/DepthDuration/MX_fS_VE_MTurk/MX_fS_HTML.html#213,213,1920,1080,1920,1080,1-12-2024,20-37-2,34,catch_stimuli/c3.png,125,,,0.0,3496,122,meters,jsons/MX_seq33_2_VE125.json,375758,604236,25,Woman
34,588237,final-intermixed-textured,v2,jsons/MX_seq33_2_VE125.json,http://54.235.29.9/FacialAge/BNav_EC2/DepthDuration/MX_fS_VE_MTurk/MX_fS_HTML.html#213,213,1920,1080,1920,1080,1-12-2024,20-37-2,35,VR_target_stimuli/s47_0.75x_3.45_366_BC.png,125,0.75x,3.45,1.8,9013,123,meters,jsons/MX_seq33_2_VE125.json,375758,604236,25,Woman
35,588237,final-intermixed-textured,v2,jsons/MX_seq33_2_VE125.json,http://54.235.29.9/FacialAge/BNav_EC2/DepthDuration/MX_fS_VE_MTurk/MX_fS_HTML.html#213,213,1920,1080,1920,1080,1-12-2024,20-37-2,36,VR_target_stimuli/s29_1.3x_1.3_253.png,125,1.3x,1.3,0.5,6492,137,meters,jsons/MX_seq33_2_VE125.json,375758,604236,25,Woman
36,588237,final-intermixed-textured,v2,jsons/MX_seq33_2_VE125.json,http://54.235.29.9/FacialAge/BNav_EC2/DepthDuration/MX_fS_VE_MTurk/MX_fS_HTML.html#213,213,1920,1080,1920,1080,1-12-2024,20-37-2,37,VR_target_stimuli/s28_1x_3.2_362.png,125,1x,3.2,2.0,3497,122,meters,jsons/MX_seq33_2_VE125.json,375758,604236,25,Woman
37,588237,final-intermixed-textured,v2,jsons/MX_seq33_2_VE125.json,http://54.235.29.9/FacialAge/BNav_EC2/DepthDuration/MX_fS_VE_MTurk/MX_fS_HTML.html#213,213,1920,1080,1920,1080,1-12-2024,20-37-2,38,VR_target_stimuli/s48_1x_2.55_256_BC.png,125,1x,2.55,1.5,6038,122,meters,jsons/MX_seq33_2_VE125.json,375758,604236,25,Woman
38,588237,final-intermixed-textured,v2,jsons/MX_seq33_2_VE125.json,http://54.235.29.9/FacialAge/BNav_EC2/DepthDuration/MX_fS_VE_MTurk/MX_fS_HTML.html#213,213,1920,1080,1920,1080,1-12-2024,20-37-2,39,VR_target_stimuli/s19_0.75x_1.21_257.png,125,0.75x,1.21,1.5,7799,122,meters,jsons/MX_seq33_2_VE125.json,375758,604236,25,Woman
39,588237,final-intermixed-textured,v2,jsons/MX_seq33_2_VE125.json,http://54.235.29.9/FacialAge/BNav_EC2/DepthDuration/MX_fS_VE_MTurk/MX_fS_HTML.html#213,213,1920,1080,1920,1080,1-12-2024,20-37-2,40,VR_target_stimuli/s21_1.3x_4.22_384_BC.png,125,1.3x,4.22,3.0,4587,122,meters,jsons/MX_seq33_2_VE125.json,375758,604236,25,Woman
40,588237,final-intermixed-textured,v2,jsons/MX_seq33_2_VE125.json,http://54.235.29.9/FacialAge/BNav_EC2/DepthDuration/MX_fS_VE_MTurk/MX_fS_HTML.html#213,213,1920,1080,1920,1080,1-12-2024,20-37-2,41,VR_target_stimuli/s8_0.75x_3.1_325.png,125,0.75x,3.1,4.0,10530,132,meters,jsons/MX_seq33_2_VE125.json,375758,604236,25,Woman
41,588237,final-intermixed-textured,v2,jsons/MX_seq33_2_VE125.json,http://54.235.29.9/FacialAge/BNav_EC2/DepthDuration/MX_fS_VE_MTurk/MX_fS_HTML.html#213,213,1920,1080,1920,1080,1-12-2024,20-37-2,42,VR_target_stimuli/s27_1x_1.76_248_BC.png,125,1x,1.76,3.0,4954,132,meters,jsons/MX_seq33_2_VE125.json,375758,604236,25,Woman
42,588237,final-intermixed-textured,v2,jsons/MX_seq33_2_VE125.json,http://54.235.29.9/FacialAge/BNav_EC2/DepthDuration/MX_fS_VE_MTurk/MX_fS_HTML.html#213,213,1920,1080,1920,1080,1-12-2024,20-37-2,43,VR_target_stimuli/s15_1.3x_4.2_389.png,125,1.3x,4.2,4.0,4871,129,meters,jsons/MX_seq33_2_VE125.json,375758,604236,25,Woman
43,588237,final-intermixed-textured,v2,jsons/MX_seq33_2_VE125.json,http://54.235.29.9/FacialAge/BNav_EC2/DepthDuration/MX_fS_VE_MTurk/MX_fS_HTML.html#213,213,1920,1080,1920,1080,1-12-2024,20-37-2,44,VR_target_stimuli/s4_1x_1.4_313.png,125,1x,1.4,2.0,6846,123,meters,jsons/MX_seq33_2_VE125.json,375758,604236,25,Woman
44,588237,final-intermixed-textured,v2,jsons/MX_seq33_2_VE125.json,http://54.235.29.9/FacialAge/BNav_EC2/DepthDuration/MX_fS_VE_MTurk/MX_fS_HTML.html#213,213,1920,1080,1920,1080,1-12-2024,20-37-2,45,catch_stimuli/c4.png,125,,,0.0,3444,123,meters,jsons/MX_seq33_2_VE125.json,375758,604236,25,Woman
45,588237,final-intermixed-textured,v2,jsons/MX_seq33_2_VE125.json,http://54.235.29.9/FacialAge/BNav_EC2/DepthDuration/MX_fS_VE_MTurk/MX_fS_HTML.html#213,213,1920,1080,1920,1080,1-12-2024,20-37-2,46,VR_target_stimuli/s35_0.75x_2_323_BC.png,125,0.75x,2.0,1.5,4230,122,meters,jsons/MX_seq33_2_VE125.json,375758,604236,25,Woman
46,588237,final-intermixed-textured,v2,jsons/MX_seq33_2_VE125.json,http://54.235.29.9/FacialAge/BNav_EC2/DepthDuration/MX_fS_VE_MTurk/MX_fS_HTML.html#213,213,1920,1080,1920,1080,1-12-2024,20-37-2,47,VR_target_stimuli/s49_1.3x_4.67_354_BC.png,125,1.3x,4.67,3.5,7071,138,meters,jsons/MX_seq33_2_VE125.json,375758,604236,25,Woman
47,588237,final-intermixed-textured,v2,jsons/MX_seq33_2_VE125.json,http://54.235.29.9/FacialAge/BNav_EC2/DepthDuration/MX_fS_VE_MTurk/MX_fS_HTML.html#213,213,1920,1080,1920,1080,1-12-2024,20-37-2,48,VR_target_stimuli/s7_1.3x_1.5_256.png,125,1.3x,1.5,1.5,3773,122,meters,jsons/MX_seq33_2_VE125.json,375758,604236,25,Woman
48,588237,final-intermixed-textured,v2,jsons/MX_seq33_2_VE125.json,http://54.235.29.9/FacialAge/BNav_EC2/DepthDuration/MX_fS_VE_MTurk/MX_fS_HTML.html#213,213,1920,1080,1920,1080,1-12-2024,20-37-2,49,VR_target_stimuli/s20_1x_4.99_398_BC.png,125,1x,4.99,4.5,11892,122,meters,jsons/MX_seq33_2_VE125.json,375758,604236,25,Woman
49,588237,final-intermixed-textured,v2,jsons/MX_seq33_2_VE125.json,http://54.235.29.9/FacialAge/BNav_EC2/DepthDuration/MX_fS_VE_MTurk/MX_fS_HTML.html#213,213,1920,1080,1920,1080,1-12-2024,20-37-2,50,VR_target_stimuli/s31_0.75x_4.96_329.png,125,0.75x,4.96,1.5,6386,122,meters,jsons/MX_seq33_2_VE125.json,375758,604236,25,Woman
50,588237,final-intermixed-textured,v2,jsons/MX_seq33_2_VE125.json,http://54.235.29.9/FacialAge/BNav_EC2/DepthDuration/MX_fS_VE_MTurk/MX_fS_HTML.html#213,213,1920,1080,1920,1080,1-12-2024,20-37-2,51,VR_target_stimuli/s33_1x_3.1_366.png,125,1x,3.1,2.0,7111,121,meters,jsons/MX_seq33_2_VE125.json,375758,604236,25,Woman
51,588237,final-intermixed-textured,v2,jsons/MX_seq33_2_VE125.json,http://54.235.29.9/FacialAge/BNav_EC2/DepthDuration/MX_fS_VE_MTurk/MX_fS_HTML.html#213,213,1920,1080,1920,1080,1-12-2024,20-37-2,52,VR_target_stimuli/s52_1.3x_3.2_280_BC.png,125,1.3x,3.2,2.0,5782,122,meters,jsons/MX_seq33_2_VE125.json,375758,604236,25,Woman
52,588237,final-intermixed-textured,v2,jsons/MX_seq33_2_VE125.json,http://54.235.29.9/FacialAge/BNav_EC2/DepthDuration/MX_fS_VE_MTurk/MX_fS_HTML.html#213,213,1920,1080,1920,1080,1-12-2024,20-37-2,53,catch_stimuli/c5.png,125,,,0.0,3922,123,meters,jsons/MX_seq33_2_VE125.json,375758,604236,25,Woman
53,588237,final-intermixed-textured,v2,jsons/MX_seq33_2_VE125.json,http://54.235.29.9/FacialAge/BNav_EC2/DepthDuration/MX_fS_VE_MTurk/MX_fS_HTML.html#213,213,1920,1080,1920,1080,1-12-2024,20-37-2,54,VR_target_stimuli/s32_0.75x_1.5_213_BC.png,125,0.75x,1.5,1.5,5247,123,meters,jsons/MX_seq33_2_VE125.json,375758,604236,25,Woman
54,588237,final-intermixed-textured,v2,jsons/MX_seq33_2_VE125.json,http://54.235.29.9/FacialAge/BNav_EC2/DepthDuration/MX_fS_VE_MTurk/MX_fS_HTML.html#213,213,1920,1080,1920,1080,1-12-2024,20-37-2,55,VR_target_stimuli/s18_1.3x_2.25_368_BC.png,125,1.3x,2.25,1.0,3623,136,meters,jsons/MX_seq33_2_VE125.json,375758,604236,25,Woman
55,588237,final-intermixed-textured,v2,jsons/MX_seq33_2_VE125.json,http://54.235.29.9/FacialAge/BNav_EC2/DepthDuration/MX_fS_VE_MTurk/MX_fS_HTML.html#213,213,1920,1080,1920,1080,1-12-2024,20-37-2,56,VR_target_stimuli/s39_1x_1_207_BC.png,125,1x,1.0,0.5,4324,122,meters,jsons/MX_seq33_2_VE125.json,375758,604236,25,Woman
56,588237,final-intermixed-textured,v2,jsons/MX_seq33_2_VE125.json,http://54.235.29.9/FacialAge/BNav_EC2/DepthDuration/MX_fS_VE_MTurk/MX_fS_HTML.html#213,213,1920,1080,1920,1080,1-12-2024,20-37-2,57,VR_target_stimuli/s51_0.75x_3.64_460_BC.png,125,0.75x,3.64,1.8,11008,122,meters,jsons/MX_seq33_2_VE125.json,375758,604236,25,Woman
57,588237,final-intermixed-textured,v2,jsons/MX_seq33_2_VE125.json,http://54.235.29.9/FacialAge/BNav_EC2/DepthDuration/MX_fS_VE_MTurk/MX_fS_HTML.html#213,213,1920,1080,1920,1080,1-12-2024,20-37-2,58,VR_target_stimuli/s43_0.75x_2.2_348.png,125,0.75x,2.2,2.0,3366,137,meters,jsons/MX_seq33_2_VE125.json,375758,604236,25,Woman
58,588237,final-intermixed-textured,v2,jsons/MX_seq33_2_VE125.json,http://54.235.29.9/FacialAge/BNav_EC2/DepthDuration/MX_fS_VE_MTurk/MX_fS_HTML.html#213,213,1920,1080,1920,1080,1-12-2024,20-37-2,59,VR_target_stimuli/s24_1.3x_3.3_352.png,125,1.3x,3.3,1.5,3232,137,meters,jsons/MX_seq33_2_VE125.json,375758,604236,25,Woman
59,588237,final-intermixed-textured,v2,jsons/MX_seq33_2_VE125.json,http://54.235.29.9/FacialAge/BNav_EC2/DepthDuration/MX_fS_VE_MTurk/MX_fS_HTML.html#213,213,1920,1080,1920,1080,1-12-2024,20-37-2,60,VR_target_stimuli/s10_1x_2.7_324.png,125,1x,2.7,2.3,6792,136,meters,jsons/MX_seq33_2_VE125.json,375758,604236,25,Woman
