,subjID,experimentName,versionName,sequenceName,url,selected_row,windowWidth,windowHeight,screenWidth,screenHeight,startDate,startTime,trial,stimulus,duration,scale,actual_depth,depth_estimate,trial_RT,log_sceneDuration,unitSelection,seq_filepath,experimentTime,totalTime,age,gender
0,620101,final-intermixed-textured,v2,jsons/MX_seq35_2_VE125.json,http://54.235.29.9/FacialAge/BNav_EC2/DepthDuration/MX_fS_VE_MTurk/MX_fS_HTML.html#180,180,1745,835,1920,1080,1-12-2024,19-36-56,1,VR_target_stimuli/s41_1x_2.1_286_BC.png,125,1x,2.1,5,8366,126,feet,jsons/MX_seq35_2_VE125.json,305978,472632,49,Man
1,620101,final-intermixed-textured,v2,jsons/MX_seq35_2_VE125.json,http://54.235.29.9/FacialAge/BNav_EC2/DepthDuration/MX_fS_VE_MTurk/MX_fS_HTML.html#180,180,1745,835,1920,1080,1-12-2024,19-36-56,2,VR_target_stimuli/s45_1.3x_3.5_377.png,125,1.3x,3.5,8,7770,123,feet,jsons/MX_seq35_2_VE125.json,305978,472632,49,Man
2,620101,final-intermixed-textured,v2,jsons/MX_seq35_2_VE125.json,http://54.235.29.9/FacialAge/BNav_EC2/DepthDuration/MX_fS_VE_MTurk/MX_fS_HTML.html#180,180,1745,835,1920,1080,1-12-2024,19-36-56,3,VR_target_stimuli/s23_0.75x_3.65_351_BC.png,125,0.75x,3.65,4,4372,123,feet,jsons/MX_seq35_2_VE125.json,305978,472632,49,Man
3,620101,final-intermixed-textured,v2,jsons/MX_seq35_2_VE125.json,http://54.235.29.9/FacialAge/BNav_EC2/DepthDuration/MX_fS_VE_MTurk/MX_fS_HTML.html#180,180,1745,835,1920,1080,1-12-2024,19-36-56,4,VR_target_stimuli/s26_1.3x_4_441_BC.png,125,1.3x,4.0,7,8701,124,feet,jsons/MX_seq35_2_VE125.json,305978,472632,49,Man
4,620101,final-intermixed-textured,v2,jsons/MX_seq35_2_VE125.json,http://54.235.29.9/FacialAge/BNav_EC2/DepthDuration/MX_fS_VE_MTurk/MX_fS_HTML.html#180,180,1745,835,1920,1080,1-12-2024,19-36-56,5,VR_target_stimuli/s12_1x_3.1_372.png,125,1x,3.1,0,5821,124,feet,jsons/MX_seq35_2_VE125.json,305978,472632,49,Man
5,620101,final-intermixed-textured,v2,jsons/MX_seq35_2_VE125.json,http://54.235.29.9/FacialAge/BNav_EC2/DepthDuration/MX_fS_VE_MTurk/MX_fS_HTML.html#180,180,1745,835,1920,1080,1-12-2024,19-36-56,6,VR_target_stimuli/s30_0.75x_2.3_332.png,125,0.75x,2.3,0,5039,127,feet,jsons/MX_seq35_2_VE125.json,305978,472632,49,Man
6,620101,final-intermixed-textured,v2,jsons/MX_seq35_2_VE125.json,http://54.235.29.9/FacialAge/BNav_EC2/DepthDuration/MX_fS_VE_MTurk/MX_fS_HTML.html#180,180,1745,835,1920,1080,1-12-2024,19-36-56,7,catch_stimuli/c0.png,125,,,0,3658,125,feet,jsons/MX_seq35_2_VE125.json,305978,472632,49,Man
7,620101,final-intermixed-textured,v2,jsons/MX_seq35_2_VE125.json,http://54.235.29.9/FacialAge/BNav_EC2/DepthDuration/MX_fS_VE_MTurk/MX_fS_HTML.html#180,180,1745,835,1920,1080,1-12-2024,19-36-56,8,VR_target_stimuli/s16_0.75x_1_217_BC.png,125,0.75x,1.0,0,6204,125,feet,jsons/MX_seq35_2_VE125.json,305978,472632,49,Man
8,620101,final-intermixed-textured,v2,jsons/MX_seq35_2_VE125.json,http://54.235.29.9/FacialAge/BNav_EC2/DepthDuration/MX_fS_VE_MTurk/MX_fS_HTML.html#180,180,1745,835,1920,1080,1-12-2024,19-36-56,9,VR_target_stimuli/s17_1.3x_1.8_300.png,125,1.3x,1.8,8,6166,126,feet,jsons/MX_seq35_2_VE125.json,305978,472632,49,Man
9,620101,final-intermixed-textured,v2,jsons/MX_seq35_2_VE125.json,http://54.235.29.9/FacialAge/BNav_EC2/DepthDuration/MX_fS_VE_MTurk/MX_fS_HTML.html#180,180,1745,835,1920,1080,1-12-2024,19-36-56,10,VR_target_stimuli/s5_1x_4_378.png,125,1x,4.0,12,4640,125,feet,jsons/MX_seq35_2_VE125.json,305978,472632,49,Man
10,620101,final-intermixed-textured,v2,jsons/MX_seq35_2_VE125.json,http://54.235.29.9/FacialAge/BNav_EC2/DepthDuration/MX_fS_VE_MTurk/MX_fS_HTML.html#180,180,1745,835,1920,1080,1-12-2024,19-36-56,11,VR_target_stimuli/s37_1.3x_3.3_555_BC.png,125,1.3x,3.3,10,5501,128,feet,jsons/MX_seq35_2_VE125.json,305978,472632,49,Man
11,620101,final-intermixed-textured,v2,jsons/MX_seq35_2_VE125.json,http://54.235.29.9/FacialAge/BNav_EC2/DepthDuration/MX_fS_VE_MTurk/MX_fS_HTML.html#180,180,1745,835,1920,1080,1-12-2024,19-36-56,12,VR_target_stimuli/s46_0.75x_2.42_343.png,125,0.75x,2.42,6,4263,126,feet,jsons/MX_seq35_2_VE125.json,305978,472632,49,Man
12,620101,final-intermixed-textured,v2,jsons/MX_seq35_2_VE125.json,http://54.235.29.9/FacialAge/BNav_EC2/DepthDuration/MX_fS_VE_MTurk/MX_fS_HTML.html#180,180,1745,835,1920,1080,1-12-2024,19-36-56,13,VR_target_stimuli/s22_1x_4.29_354_BC.png,125,1x,4.29,9,5027,125,feet,jsons/MX_seq35_2_VE125.json,305978,472632,49,Man
13,620101,final-intermixed-textured,v2,jsons/MX_seq35_2_VE125.json,http://54.235.29.9/FacialAge/BNav_EC2/DepthDuration/MX_fS_VE_MTurk/MX_fS_HTML.html#180,180,1745,835,1920,1080,1-12-2024,19-36-56,14,VR_target_stimuli/s42_0.75x_3.2_301.png,125,0.75x,3.2,7,6066,125,feet,jsons/MX_seq35_2_VE125.json,305978,472632,49,Man
14,620101,final-intermixed-textured,v2,jsons/MX_seq35_2_VE125.json,http://54.235.29.9/FacialAge/BNav_EC2/DepthDuration/MX_fS_VE_MTurk/MX_fS_HTML.html#180,180,1745,835,1920,1080,1-12-2024,19-36-56,15,VR_target_stimuli/s25_1.3x_1.4_299_BC.png,125,1.3x,1.4,0,5016,124,feet,jsons/MX_seq35_2_VE125.json,305978,472632,49,Man
15,620101,final-intermixed-textured,v2,jsons/MX_seq35_2_VE125.json,http://54.235.29.9/FacialAge/BNav_EC2/DepthDuration/MX_fS_VE_MTurk/MX_fS_HTML.html#180,180,1745,835,1920,1080,1-12-2024,19-36-56,16,VR_target_stimuli/s50_1x_4.53_518.png,125,1x,4.53,6,5218,125,feet,jsons/MX_seq35_2_VE125.json,305978,472632,49,Man
16,620101,final-intermixed-textured,v2,jsons/MX_seq35_2_VE125.json,http://54.235.29.9/FacialAge/BNav_EC2/DepthDuration/MX_fS_VE_MTurk/MX_fS_HTML.html#180,180,1745,835,1920,1080,1-12-2024,19-36-56,17,catch_stimuli/c1.png,125,,,0,3182,123,feet,jsons/MX_seq35_2_VE125.json,305978,472632,49,Man
17,620101,final-intermixed-textured,v2,jsons/MX_seq35_2_VE125.json,http://54.235.29.9/FacialAge/BNav_EC2/DepthDuration/MX_fS_VE_MTurk/MX_fS_HTML.html#180,180,1745,835,1920,1080,1-12-2024,19-36-56,18,VR_target_stimuli/s53_1x_1.6_387_BC.png,125,1x,1.6,5,4742,122,feet,jsons/MX_seq35_2_VE125.json,305978,472632,49,Man
18,620101,final-intermixed-textured,v2,jsons/MX_seq35_2_VE125.json,http://54.235.29.9/FacialAge/BNav_EC2/DepthDuration/MX_fS_VE_MTurk/MX_fS_HTML.html#180,180,1745,835,1920,1080,1-12-2024,19-36-56,19,VR_target_stimuli/s38_0.75x_3.55_346_BC.png,125,0.75x,3.55,8,7219,126,feet,jsons/MX_seq35_2_VE125.json,305978,472632,49,Man
19,620101,final-intermixed-textured,v2,jsons/MX_seq35_2_VE125.json,http://54.235.29.9/FacialAge/BNav_EC2/DepthDuration/MX_fS_VE_MTurk/MX_fS_HTML.html#180,180,1745,835,1920,1080,1-12-2024,19-36-56,20,VR_target_stimuli/s9_1.3x_1.2_276.png,125,1.3x,1.2,5,4753,127,feet,jsons/MX_seq35_2_VE125.json,305978,472632,49,Man
20,620101,final-intermixed-textured,v2,jsons/MX_seq35_2_VE125.json,http://54.235.29.9/FacialAge/BNav_EC2/DepthDuration/MX_fS_VE_MTurk/MX_fS_HTML.html#180,180,1745,835,1920,1080,1-12-2024,19-36-56,21,VR_target_stimuli/s44_0.75x_4.4_314_BC.png,125,0.75x,4.4,9,4276,126,feet,jsons/MX_seq35_2_VE125.json,305978,472632,49,Man
21,620101,final-intermixed-textured,v2,jsons/MX_seq35_2_VE125.json,http://54.235.29.9/FacialAge/BNav_EC2/DepthDuration/MX_fS_VE_MTurk/MX_fS_HTML.html#180,180,1745,835,1920,1080,1-12-2024,19-36-56,22,VR_target_stimuli/s3_1x_5_385.png,125,1x,5.0,12,3870,124,feet,jsons/MX_seq35_2_VE125.json,305978,472632,49,Man
22,620101,final-intermixed-textured,v2,jsons/MX_seq35_2_VE125.json,http://54.235.29.9/FacialAge/BNav_EC2/DepthDuration/MX_fS_VE_MTurk/MX_fS_HTML.html#180,180,1745,835,1920,1080,1-12-2024,19-36-56,23,VR_target_stimuli/s1_1.3x_1.7_261.png,125,1.3x,1.7,7,6053,123,feet,jsons/MX_seq35_2_VE125.json,305978,472632,49,Man
23,620101,final-intermixed-textured,v2,jsons/MX_seq35_2_VE125.json,http://54.235.29.9/FacialAge/BNav_EC2/DepthDuration/MX_fS_VE_MTurk/MX_fS_HTML.html#180,180,1745,835,1920,1080,1-12-2024,19-36-56,24,VR_target_stimuli/s11_1x_5_361_BC.png,125,1x,5.0,9,5793,126,feet,jsons/MX_seq35_2_VE125.json,305978,472632,49,Man
24,620101,final-intermixed-textured,v2,jsons/MX_seq35_2_VE125.json,http://54.235.29.9/FacialAge/BNav_EC2/DepthDuration/MX_fS_VE_MTurk/MX_fS_HTML.html#180,180,1745,835,1920,1080,1-12-2024,19-36-56,25,VR_target_stimuli/s2_0.75x_2.7_384.png,125,0.75x,2.7,6,4070,125,feet,jsons/MX_seq35_2_VE125.json,305978,472632,49,Man
25,620101,final-intermixed-textured,v2,jsons/MX_seq35_2_VE125.json,http://54.235.29.9/FacialAge/BNav_EC2/DepthDuration/MX_fS_VE_MTurk/MX_fS_HTML.html#180,180,1745,835,1920,1080,1-12-2024,19-36-56,26,catch_stimuli/c2.png,125,,,6,4345,118,feet,jsons/MX_seq35_2_VE125.json,305978,472632,49,Man
26,620101,final-intermixed-textured,v2,jsons/MX_seq35_2_VE125.json,http://54.235.29.9/FacialAge/BNav_EC2/DepthDuration/MX_fS_VE_MTurk/MX_fS_HTML.html#180,180,1745,835,1920,1080,1-12-2024,19-36-56,27,VR_target_stimuli/s6_1.3x_2.1_298_BC.png,125,1.3x,2.1,7,6383,125,feet,jsons/MX_seq35_2_VE125.json,305978,472632,49,Man
27,620101,final-intermixed-textured,v2,jsons/MX_seq35_2_VE125.json,http://54.235.29.9/FacialAge/BNav_EC2/DepthDuration/MX_fS_VE_MTurk/MX_fS_HTML.html#180,180,1745,835,1920,1080,1-12-2024,19-36-56,28,VR_target_stimuli/s0_1.3x_2.6_356.png,125,1.3x,2.6,0,3734,125,feet,jsons/MX_seq35_2_VE125.json,305978,472632,49,Man
28,620101,final-intermixed-textured,v2,jsons/MX_seq35_2_VE125.json,http://54.235.29.9/FacialAge/BNav_EC2/DepthDuration/MX_fS_VE_MTurk/MX_fS_HTML.html#180,180,1745,835,1920,1080,1-12-2024,19-36-56,29,VR_target_stimuli/s34_1x_2.8_283.png,125,1x,2.8,8,4277,123,feet,jsons/MX_seq35_2_VE125.json,305978,472632,49,Man
29,620101,final-intermixed-textured,v2,jsons/MX_seq35_2_VE125.json,http://54.235.29.9/FacialAge/BNav_EC2/DepthDuration/MX_fS_VE_MTurk/MX_fS_HTML.html#180,180,1745,835,1920,1080,1-12-2024,19-36-56,30,VR_target_stimuli/s13_0.75x_2.4_308.png,125,0.75x,2.4,0,4391,126,feet,jsons/MX_seq35_2_VE125.json,305978,472632,49,Man
30,620101,final-intermixed-textured,v2,jsons/MX_seq35_2_VE125.json,http://54.235.29.9/FacialAge/BNav_EC2/DepthDuration/MX_fS_VE_MTurk/MX_fS_HTML.html#180,180,1745,835,1920,1080,1-12-2024,19-36-56,31,VR_target_stimuli/s14_1.3x_3.83_359_BC.png,125,1.3x,3.83,8,5093,127,feet,jsons/MX_seq35_2_VE125.json,305978,472632,49,Man
31,620101,final-intermixed-textured,v2,jsons/MX_seq35_2_VE125.json,http://54.235.29.9/FacialAge/BNav_EC2/DepthDuration/MX_fS_VE_MTurk/MX_fS_HTML.html#180,180,1745,835,1920,1080,1-12-2024,19-36-56,32,VR_target_stimuli/s47_0.75x_3.45_366_BC.png,125,0.75x,3.45,6,3604,126,feet,jsons/MX_seq35_2_VE125.json,305978,472632,49,Man
32,620101,final-intermixed-textured,v2,jsons/MX_seq35_2_VE125.json,http://54.235.29.9/FacialAge/BNav_EC2/DepthDuration/MX_fS_VE_MTurk/MX_fS_HTML.html#180,180,1745,835,1920,1080,1-12-2024,19-36-56,33,VR_target_stimuli/s29_1x_1.3_250_BC.png,125,1x,1.3,4,3480,124,feet,jsons/MX_seq35_2_VE125.json,305978,472632,49,Man
33,620101,final-intermixed-textured,v2,jsons/MX_seq35_2_VE125.json,http://54.235.29.9/FacialAge/BNav_EC2/DepthDuration/MX_fS_VE_MTurk/MX_fS_HTML.html#180,180,1745,835,1920,1080,1-12-2024,19-36-56,34,catch_stimuli/c3.png,125,,,0,7003,124,feet,jsons/MX_seq35_2_VE125.json,305978,472632,49,Man
34,620101,final-intermixed-textured,v2,jsons/MX_seq35_2_VE125.json,http://54.235.29.9/FacialAge/BNav_EC2/DepthDuration/MX_fS_VE_MTurk/MX_fS_HTML.html#180,180,1745,835,1920,1080,1-12-2024,19-36-56,35,VR_target_stimuli/s28_0.75x_3.2_357_BC.png,125,0.75x,3.2,8,3020,123,feet,jsons/MX_seq35_2_VE125.json,305978,472632,49,Man
35,620101,final-intermixed-textured,v2,jsons/MX_seq35_2_VE125.json,http://54.235.29.9/FacialAge/BNav_EC2/DepthDuration/MX_fS_VE_MTurk/MX_fS_HTML.html#180,180,1745,835,1920,1080,1-12-2024,19-36-56,36,VR_target_stimuli/s48_1.3x_2.55_255.png,125,1.3x,2.55,6,5014,125,feet,jsons/MX_seq35_2_VE125.json,305978,472632,49,Man
36,620101,final-intermixed-textured,v2,jsons/MX_seq35_2_VE125.json,http://54.235.29.9/FacialAge/BNav_EC2/DepthDuration/MX_fS_VE_MTurk/MX_fS_HTML.html#180,180,1745,835,1920,1080,1-12-2024,19-36-56,37,VR_target_stimuli/s19_1x_1.21_263.png,125,1x,1.21,4,4181,121,feet,jsons/MX_seq35_2_VE125.json,305978,472632,49,Man
37,620101,final-intermixed-textured,v2,jsons/MX_seq35_2_VE125.json,http://54.235.29.9/FacialAge/BNav_EC2/DepthDuration/MX_fS_VE_MTurk/MX_fS_HTML.html#180,180,1745,835,1920,1080,1-12-2024,19-36-56,38,VR_target_stimuli/s21_1x_4.22_379_BC.png,125,1x,4.22,5,3939,125,feet,jsons/MX_seq35_2_VE125.json,305978,472632,49,Man
38,620101,final-intermixed-textured,v2,jsons/MX_seq35_2_VE125.json,http://54.235.29.9/FacialAge/BNav_EC2/DepthDuration/MX_fS_VE_MTurk/MX_fS_HTML.html#180,180,1745,835,1920,1080,1-12-2024,19-36-56,39,VR_target_stimuli/s8_0.75x_3.1_325.png,125,0.75x,3.1,6,3783,114,feet,jsons/MX_seq35_2_VE125.json,305978,472632,49,Man
39,620101,final-intermixed-textured,v2,jsons/MX_seq35_2_VE125.json,http://54.235.29.9/FacialAge/BNav_EC2/DepthDuration/MX_fS_VE_MTurk/MX_fS_HTML.html#180,180,1745,835,1920,1080,1-12-2024,19-36-56,40,VR_target_stimuli/s27_1.3x_1.76_250_BC.png,125,1.3x,1.76,8,2992,125,feet,jsons/MX_seq35_2_VE125.json,305978,472632,49,Man
40,620101,final-intermixed-textured,v2,jsons/MX_seq35_2_VE125.json,http://54.235.29.9/FacialAge/BNav_EC2/DepthDuration/MX_fS_VE_MTurk/MX_fS_HTML.html#180,180,1745,835,1920,1080,1-12-2024,19-36-56,41,VR_target_stimuli/s15_0.75x_4.2_388_BC.png,125,0.75x,4.2,10,4458,124,feet,jsons/MX_seq35_2_VE125.json,305978,472632,49,Man
41,620101,final-intermixed-textured,v2,jsons/MX_seq35_2_VE125.json,http://54.235.29.9/FacialAge/BNav_EC2/DepthDuration/MX_fS_VE_MTurk/MX_fS_HTML.html#180,180,1745,835,1920,1080,1-12-2024,19-36-56,42,VR_target_stimuli/s4_1x_1.4_313.png,125,1x,1.4,8,3376,126,feet,jsons/MX_seq35_2_VE125.json,305978,472632,49,Man
42,620101,final-intermixed-textured,v2,jsons/MX_seq35_2_VE125.json,http://54.235.29.9/FacialAge/BNav_EC2/DepthDuration/MX_fS_VE_MTurk/MX_fS_HTML.html#180,180,1745,835,1920,1080,1-12-2024,19-36-56,43,VR_target_stimuli/s35_1.3x_2_338_BC.png,125,1.3x,2.0,7,3761,125,feet,jsons/MX_seq35_2_VE125.json,305978,472632,49,Man
43,620101,final-intermixed-textured,v2,jsons/MX_seq35_2_VE125.json,http://54.235.29.9/FacialAge/BNav_EC2/DepthDuration/MX_fS_VE_MTurk/MX_fS_HTML.html#180,180,1745,835,1920,1080,1-12-2024,19-36-56,44,VR_target_stimuli/s49_1x_4.67_341_BC.png,125,1x,4.67,11,4001,123,feet,jsons/MX_seq35_2_VE125.json,305978,472632,49,Man
44,620101,final-intermixed-textured,v2,jsons/MX_seq35_2_VE125.json,http://54.235.29.9/FacialAge/BNav_EC2/DepthDuration/MX_fS_VE_MTurk/MX_fS_HTML.html#180,180,1745,835,1920,1080,1-12-2024,19-36-56,45,catch_stimuli/c4.png,125,,,6,4340,119,feet,jsons/MX_seq35_2_VE125.json,305978,472632,49,Man
45,620101,final-intermixed-textured,v2,jsons/MX_seq35_2_VE125.json,http://54.235.29.9/FacialAge/BNav_EC2/DepthDuration/MX_fS_VE_MTurk/MX_fS_HTML.html#180,180,1745,835,1920,1080,1-12-2024,19-36-56,46,VR_target_stimuli/s7_0.75x_1.5_253.png,125,0.75x,1.5,0,3953,125,feet,jsons/MX_seq35_2_VE125.json,305978,472632,49,Man
46,620101,final-intermixed-textured,v2,jsons/MX_seq35_2_VE125.json,http://54.235.29.9/FacialAge/BNav_EC2/DepthDuration/MX_fS_VE_MTurk/MX_fS_HTML.html#180,180,1745,835,1920,1080,1-12-2024,19-36-56,47,VR_target_stimuli/s20_1.3x_4.99_412.png,125,1.3x,4.99,8,4640,126,feet,jsons/MX_seq35_2_VE125.json,305978,472632,49,Man
47,620101,final-intermixed-textured,v2,jsons/MX_seq35_2_VE125.json,http://54.235.29.9/FacialAge/BNav_EC2/DepthDuration/MX_fS_VE_MTurk/MX_fS_HTML.html#180,180,1745,835,1920,1080,1-12-2024,19-36-56,48,VR_target_stimuli/s31_1.3x_4.96_342.png,125,1.3x,4.96,7,5335,122,feet,jsons/MX_seq35_2_VE125.json,305978,472632,49,Man
48,620101,final-intermixed-textured,v2,jsons/MX_seq35_2_VE125.json,http://54.235.29.9/FacialAge/BNav_EC2/DepthDuration/MX_fS_VE_MTurk/MX_fS_HTML.html#180,180,1745,835,1920,1080,1-12-2024,19-36-56,49,VR_target_stimuli/s33_1x_3.1_366_BC.png,125,1x,3.1,6,3412,127,feet,jsons/MX_seq35_2_VE125.json,305978,472632,49,Man
49,620101,final-intermixed-textured,v2,jsons/MX_seq35_2_VE125.json,http://54.235.29.9/FacialAge/BNav_EC2/DepthDuration/MX_fS_VE_MTurk/MX_fS_HTML.html#180,180,1745,835,1920,1080,1-12-2024,19-36-56,50,VR_target_stimuli/s52_0.75x_3.2_270.png,125,0.75x,3.2,7,3319,125,feet,jsons/MX_seq35_2_VE125.json,305978,472632,49,Man
50,620101,final-intermixed-textured,v2,jsons/MX_seq35_2_VE125.json,http://54.235.29.9/FacialAge/BNav_EC2/DepthDuration/MX_fS_VE_MTurk/MX_fS_HTML.html#180,180,1745,835,1920,1080,1-12-2024,19-36-56,51,VR_target_stimuli/s32_1x_1.5_218.png,125,1x,1.5,8,4917,121,feet,jsons/MX_seq35_2_VE125.json,305978,472632,49,Man
51,620101,final-intermixed-textured,v2,jsons/MX_seq35_2_VE125.json,http://54.235.29.9/FacialAge/BNav_EC2/DepthDuration/MX_fS_VE_MTurk/MX_fS_HTML.html#180,180,1745,835,1920,1080,1-12-2024,19-36-56,52,VR_target_stimuli/s18_1.3x_2.25_368_BC.png,125,1.3x,2.25,9,3086,126,feet,jsons/MX_seq35_2_VE125.json,305978,472632,49,Man
52,620101,final-intermixed-textured,v2,jsons/MX_seq35_2_VE125.json,http://54.235.29.9/FacialAge/BNav_EC2/DepthDuration/MX_fS_VE_MTurk/MX_fS_HTML.html#180,180,1745,835,1920,1080,1-12-2024,19-36-56,53,catch_stimuli/c5.png,125,,,0,3619,124,feet,jsons/MX_seq35_2_VE125.json,305978,472632,49,Man
53,620101,final-intermixed-textured,v2,jsons/MX_seq35_2_VE125.json,http://54.235.29.9/FacialAge/BNav_EC2/DepthDuration/MX_fS_VE_MTurk/MX_fS_HTML.html#180,180,1745,835,1920,1080,1-12-2024,19-36-56,54,VR_target_stimuli/s39_0.75x_1_205_BC.png,125,0.75x,1.0,4,4400,124,feet,jsons/MX_seq35_2_VE125.json,305978,472632,49,Man
54,620101,final-intermixed-textured,v2,jsons/MX_seq35_2_VE125.json,http://54.235.29.9/FacialAge/BNav_EC2/DepthDuration/MX_fS_VE_MTurk/MX_fS_HTML.html#180,180,1745,835,1920,1080,1-12-2024,19-36-56,55,VR_target_stimuli/s51_1.3x_3.64_479.png,125,1.3x,3.64,6,3142,124,feet,jsons/MX_seq35_2_VE125.json,305978,472632,49,Man
55,620101,final-intermixed-textured,v2,jsons/MX_seq35_2_VE125.json,http://54.235.29.9/FacialAge/BNav_EC2/DepthDuration/MX_fS_VE_MTurk/MX_fS_HTML.html#180,180,1745,835,1920,1080,1-12-2024,19-36-56,56,VR_target_stimuli/s43_1x_2.2_354_BC.png,125,1x,2.2,0,2775,125,feet,jsons/MX_seq35_2_VE125.json,305978,472632,49,Man
56,620101,final-intermixed-textured,v2,jsons/MX_seq35_2_VE125.json,http://54.235.29.9/FacialAge/BNav_EC2/DepthDuration/MX_fS_VE_MTurk/MX_fS_HTML.html#180,180,1745,835,1920,1080,1-12-2024,19-36-56,57,VR_target_stimuli/s24_0.75x_3.3_344_BC.png,125,0.75x,3.3,8,3029,121,feet,jsons/MX_seq35_2_VE125.json,305978,472632,49,Man
57,620101,final-intermixed-textured,v2,jsons/MX_seq35_2_VE125.json,http://54.235.29.9/FacialAge/BNav_EC2/DepthDuration/MX_fS_VE_MTurk/MX_fS_HTML.html#180,180,1745,835,1920,1080,1-12-2024,19-36-56,58,VR_target_stimuli/s10_0.75x_2.7_321.png,125,0.75x,2.7,9,2801,124,feet,jsons/MX_seq35_2_VE125.json,305978,472632,49,Man
58,620101,final-intermixed-textured,v2,jsons/MX_seq35_2_VE125.json,http://54.235.29.9/FacialAge/BNav_EC2/DepthDuration/MX_fS_VE_MTurk/MX_fS_HTML.html#180,180,1745,835,1920,1080,1-12-2024,19-36-56,59,VR_target_stimuli/s36_1.3x_4.1_442_BC.png,125,1.3x,4.1,0,3224,130,feet,jsons/MX_seq35_2_VE125.json,305978,472632,49,Man
59,620101,final-intermixed-textured,v2,jsons/MX_seq35_2_VE125.json,http://54.235.29.9/FacialAge/BNav_EC2/DepthDuration/MX_fS_VE_MTurk/MX_fS_HTML.html#180,180,1745,835,1920,1080,1-12-2024,19-36-56,60,VR_target_stimuli/s40_1x_1.2_319.png,125,1x,1.2,0,2846,111,feet,jsons/MX_seq35_2_VE125.json,305978,472632,49,Man
