,subjID,experimentName,versionName,sequenceName,url,selected_row,windowWidth,windowHeight,screenWidth,screenHeight,startDate,startTime,trial,stimulus,duration,scale,actual_depth,depth_estimate,trial_RT,log_sceneDuration,unitSelection,seq_filepath,experimentTime,totalTime,age,gender
0,628935,final-intermixed-textured,v2,jsons/MX_seq17_1_VE125_flipped.json,http://54.235.29.9/FacialAge/BNav_EC2/DepthDuration/MX_fS_VE_MTurk/MX_fS_HTML.html#62,62,1366,617,1366,768,1-13-2024,13-32-39,1,VR_target_stimuli/s15_1.3x_4.2_389_BC.png,125,1.3x,4.2,0.0,4556,125,meters,jsons/MX_seq17_1_VE125_flipped.json,340974,883989,30,Man
1,628935,final-intermixed-textured,v2,jsons/MX_seq17_1_VE125_flipped.json,http://54.235.29.9/FacialAge/BNav_EC2/DepthDuration/MX_fS_VE_MTurk/MX_fS_HTML.html#62,62,1366,617,1366,768,1-13-2024,13-32-39,2,VR_target_stimuli/s4_0.75x_1.4_301.png,125,0.75x,1.4,4.0,11899,123,meters,jsons/MX_seq17_1_VE125_flipped.json,340974,883989,30,Man
2,628935,final-intermixed-textured,v2,jsons/MX_seq17_1_VE125_flipped.json,http://54.235.29.9/FacialAge/BNav_EC2/DepthDuration/MX_fS_VE_MTurk/MX_fS_HTML.html#62,62,1366,617,1366,768,1-13-2024,13-32-39,3,VR_target_stimuli/s35_1x_2_331.png,125,1x,2.0,0.0,3906,125,meters,jsons/MX_seq17_1_VE125_flipped.json,340974,883989,30,Man
3,628935,final-intermixed-textured,v2,jsons/MX_seq17_1_VE125_flipped.json,http://54.235.29.9/FacialAge/BNav_EC2/DepthDuration/MX_fS_VE_MTurk/MX_fS_HTML.html#62,62,1366,617,1366,768,1-13-2024,13-32-39,4,VR_target_stimuli/s49_0.75x_4.67_328_BC.png,125,0.75x,4.67,0.0,4166,124,meters,jsons/MX_seq17_1_VE125_flipped.json,340974,883989,30,Man
4,628935,final-intermixed-textured,v2,jsons/MX_seq17_1_VE125_flipped.json,http://54.235.29.9/FacialAge/BNav_EC2/DepthDuration/MX_fS_VE_MTurk/MX_fS_HTML.html#62,62,1366,617,1366,768,1-13-2024,13-32-39,5,VR_target_stimuli/s7_1.3x_1.5_256.png,125,1.3x,1.5,0.0,3634,126,meters,jsons/MX_seq17_1_VE125_flipped.json,340974,883989,30,Man
5,628935,final-intermixed-textured,v2,jsons/MX_seq17_1_VE125_flipped.json,http://54.235.29.9/FacialAge/BNav_EC2/DepthDuration/MX_fS_VE_MTurk/MX_fS_HTML.html#62,62,1366,617,1366,768,1-13-2024,13-32-39,6,VR_target_stimuli/s20_1x_4.99_398_BC.png,125,1x,4.99,0.0,3292,125,meters,jsons/MX_seq17_1_VE125_flipped.json,340974,883989,30,Man
6,628935,final-intermixed-textured,v2,jsons/MX_seq17_1_VE125_flipped.json,http://54.235.29.9/FacialAge/BNav_EC2/DepthDuration/MX_fS_VE_MTurk/MX_fS_HTML.html#62,62,1366,617,1366,768,1-13-2024,13-32-39,7,catch_stimuli/c0_BC.png,125,,,4.0,9929,124,meters,jsons/MX_seq17_1_VE125_flipped.json,340974,883989,30,Man
7,628935,final-intermixed-textured,v2,jsons/MX_seq17_1_VE125_flipped.json,http://54.235.29.9/FacialAge/BNav_EC2/DepthDuration/MX_fS_VE_MTurk/MX_fS_HTML.html#62,62,1366,617,1366,768,1-13-2024,13-32-39,8,VR_target_stimuli/s31_1x_4.96_333.png,125,1x,4.96,4.6,12588,124,meters,jsons/MX_seq17_1_VE125_flipped.json,340974,883989,30,Man
8,628935,final-intermixed-textured,v2,jsons/MX_seq17_1_VE125_flipped.json,http://54.235.29.9/FacialAge/BNav_EC2/DepthDuration/MX_fS_VE_MTurk/MX_fS_HTML.html#62,62,1366,617,1366,768,1-13-2024,13-32-39,9,VR_target_stimuli/s33_0.75x_3.1_361.png,125,0.75x,3.1,0.0,4733,124,meters,jsons/MX_seq17_1_VE125_flipped.json,340974,883989,30,Man
9,628935,final-intermixed-textured,v2,jsons/MX_seq17_1_VE125_flipped.json,http://54.235.29.9/FacialAge/BNav_EC2/DepthDuration/MX_fS_VE_MTurk/MX_fS_HTML.html#62,62,1366,617,1366,768,1-13-2024,13-32-39,10,VR_target_stimuli/s52_1.3x_3.2_280_BC.png,125,1.3x,3.2,0.0,3309,124,meters,jsons/MX_seq17_1_VE125_flipped.json,340974,883989,30,Man
10,628935,final-intermixed-textured,v2,jsons/MX_seq17_1_VE125_flipped.json,http://54.235.29.9/FacialAge/BNav_EC2/DepthDuration/MX_fS_VE_MTurk/MX_fS_HTML.html#62,62,1366,617,1366,768,1-13-2024,13-32-39,11,VR_target_stimuli/s32_0.75x_1.5_213_BC.png,125,0.75x,1.5,0.0,3328,126,meters,jsons/MX_seq17_1_VE125_flipped.json,340974,883989,30,Man
11,628935,final-intermixed-textured,v2,jsons/MX_seq17_1_VE125_flipped.json,http://54.235.29.9/FacialAge/BNav_EC2/DepthDuration/MX_fS_VE_MTurk/MX_fS_HTML.html#62,62,1366,617,1366,768,1-13-2024,13-32-39,12,VR_target_stimuli/s18_1x_2.25_353_BC.png,125,1x,2.25,3.5,8647,122,meters,jsons/MX_seq17_1_VE125_flipped.json,340974,883989,30,Man
12,628935,final-intermixed-textured,v2,jsons/MX_seq17_1_VE125_flipped.json,http://54.235.29.9/FacialAge/BNav_EC2/DepthDuration/MX_fS_VE_MTurk/MX_fS_HTML.html#62,62,1366,617,1366,768,1-13-2024,13-32-39,13,VR_target_stimuli/s39_1.3x_1_208.png,125,1.3x,1.0,0.0,3901,124,meters,jsons/MX_seq17_1_VE125_flipped.json,340974,883989,30,Man
13,628935,final-intermixed-textured,v2,jsons/MX_seq17_1_VE125_flipped.json,http://54.235.29.9/FacialAge/BNav_EC2/DepthDuration/MX_fS_VE_MTurk/MX_fS_HTML.html#62,62,1366,617,1366,768,1-13-2024,13-32-39,14,VR_target_stimuli/s51_1x_3.64_461_BC.png,125,1x,3.64,0.0,3607,125,meters,jsons/MX_seq17_1_VE125_flipped.json,340974,883989,30,Man
14,628935,final-intermixed-textured,v2,jsons/MX_seq17_1_VE125_flipped.json,http://54.235.29.9/FacialAge/BNav_EC2/DepthDuration/MX_fS_VE_MTurk/MX_fS_HTML.html#62,62,1366,617,1366,768,1-13-2024,13-32-39,15,VR_target_stimuli/s43_0.75x_2.2_348_BC.png,125,0.75x,2.2,0.0,3298,123,meters,jsons/MX_seq17_1_VE125_flipped.json,340974,883989,30,Man
15,628935,final-intermixed-textured,v2,jsons/MX_seq17_1_VE125_flipped.json,http://54.235.29.9/FacialAge/BNav_EC2/DepthDuration/MX_fS_VE_MTurk/MX_fS_HTML.html#62,62,1366,617,1366,768,1-13-2024,13-32-39,16,VR_target_stimuli/s24_1.3x_3.3_352_BC.png,125,1.3x,3.3,0.0,3362,125,meters,jsons/MX_seq17_1_VE125_flipped.json,340974,883989,30,Man
16,628935,final-intermixed-textured,v2,jsons/MX_seq17_1_VE125_flipped.json,http://54.235.29.9/FacialAge/BNav_EC2/DepthDuration/MX_fS_VE_MTurk/MX_fS_HTML.html#62,62,1366,617,1366,768,1-13-2024,13-32-39,17,catch_stimuli/c1_BC.png,125,,,4.5,6041,123,meters,jsons/MX_seq17_1_VE125_flipped.json,340974,883989,30,Man
17,628935,final-intermixed-textured,v2,jsons/MX_seq17_1_VE125_flipped.json,http://54.235.29.9/FacialAge/BNav_EC2/DepthDuration/MX_fS_VE_MTurk/MX_fS_HTML.html#62,62,1366,617,1366,768,1-13-2024,13-32-39,18,VR_target_stimuli/s10_1.3x_2.7_325.png,125,1.3x,2.7,0.0,3844,123,meters,jsons/MX_seq17_1_VE125_flipped.json,340974,883989,30,Man
18,628935,final-intermixed-textured,v2,jsons/MX_seq17_1_VE125_flipped.json,http://54.235.29.9/FacialAge/BNav_EC2/DepthDuration/MX_fS_VE_MTurk/MX_fS_HTML.html#62,62,1366,617,1366,768,1-13-2024,13-32-39,19,VR_target_stimuli/s36_1x_4.1_423.png,125,1x,4.1,0.0,3929,124,meters,jsons/MX_seq17_1_VE125_flipped.json,340974,883989,30,Man
19,628935,final-intermixed-textured,v2,jsons/MX_seq17_1_VE125_flipped.json,http://54.235.29.9/FacialAge/BNav_EC2/DepthDuration/MX_fS_VE_MTurk/MX_fS_HTML.html#62,62,1366,617,1366,768,1-13-2024,13-32-39,20,VR_target_stimuli/s40_0.75x_1.2_308.png,125,0.75x,1.2,0.0,3227,125,meters,jsons/MX_seq17_1_VE125_flipped.json,340974,883989,30,Man
20,628935,final-intermixed-textured,v2,jsons/MX_seq17_1_VE125_flipped.json,http://54.235.29.9/FacialAge/BNav_EC2/DepthDuration/MX_fS_VE_MTurk/MX_fS_HTML.html#62,62,1366,617,1366,768,1-13-2024,13-32-39,21,VR_target_stimuli/s41_1x_2.1_286_BC.png,125,1x,2.1,0.0,3362,125,meters,jsons/MX_seq17_1_VE125_flipped.json,340974,883989,30,Man
21,628935,final-intermixed-textured,v2,jsons/MX_seq17_1_VE125_flipped.json,http://54.235.29.9/FacialAge/BNav_EC2/DepthDuration/MX_fS_VE_MTurk/MX_fS_HTML.html#62,62,1366,617,1366,768,1-13-2024,13-32-39,22,VR_target_stimuli/s45_1.3x_3.5_377.png,125,1.3x,3.5,0.0,4746,123,meters,jsons/MX_seq17_1_VE125_flipped.json,340974,883989,30,Man
22,628935,final-intermixed-textured,v2,jsons/MX_seq17_1_VE125_flipped.json,http://54.235.29.9/FacialAge/BNav_EC2/DepthDuration/MX_fS_VE_MTurk/MX_fS_HTML.html#62,62,1366,617,1366,768,1-13-2024,13-32-39,23,VR_target_stimuli/s23_0.75x_3.65_351_BC.png,125,0.75x,3.65,0.0,3714,124,meters,jsons/MX_seq17_1_VE125_flipped.json,340974,883989,30,Man
23,628935,final-intermixed-textured,v2,jsons/MX_seq17_1_VE125_flipped.json,http://54.235.29.9/FacialAge/BNav_EC2/DepthDuration/MX_fS_VE_MTurk/MX_fS_HTML.html#62,62,1366,617,1366,768,1-13-2024,13-32-39,24,VR_target_stimuli/s26_1.3x_4_441_BC.png,125,1.3x,4.0,0.0,3546,123,meters,jsons/MX_seq17_1_VE125_flipped.json,340974,883989,30,Man
24,628935,final-intermixed-textured,v2,jsons/MX_seq17_1_VE125_flipped.json,http://54.235.29.9/FacialAge/BNav_EC2/DepthDuration/MX_fS_VE_MTurk/MX_fS_HTML.html#62,62,1366,617,1366,768,1-13-2024,13-32-39,25,VR_target_stimuli/s12_1x_3.1_372.png,125,1x,3.1,0.0,3781,125,meters,jsons/MX_seq17_1_VE125_flipped.json,340974,883989,30,Man
25,628935,final-intermixed-textured,v2,jsons/MX_seq17_1_VE125_flipped.json,http://54.235.29.9/FacialAge/BNav_EC2/DepthDuration/MX_fS_VE_MTurk/MX_fS_HTML.html#62,62,1366,617,1366,768,1-13-2024,13-32-39,26,catch_stimuli/c2_BC.png,125,,,3.0,9876,123,meters,jsons/MX_seq17_1_VE125_flipped.json,340974,883989,30,Man
26,628935,final-intermixed-textured,v2,jsons/MX_seq17_1_VE125_flipped.json,http://54.235.29.9/FacialAge/BNav_EC2/DepthDuration/MX_fS_VE_MTurk/MX_fS_HTML.html#62,62,1366,617,1366,768,1-13-2024,13-32-39,27,VR_target_stimuli/s30_0.75x_2.3_332.png,125,0.75x,2.3,0.0,3558,124,meters,jsons/MX_seq17_1_VE125_flipped.json,340974,883989,30,Man
27,628935,final-intermixed-textured,v2,jsons/MX_seq17_1_VE125_flipped.json,http://54.235.29.9/FacialAge/BNav_EC2/DepthDuration/MX_fS_VE_MTurk/MX_fS_HTML.html#62,62,1366,617,1366,768,1-13-2024,13-32-39,28,VR_target_stimuli/s16_0.75x_1_217_BC.png,125,0.75x,1.0,0.0,4356,123,meters,jsons/MX_seq17_1_VE125_flipped.json,340974,883989,30,Man
28,628935,final-intermixed-textured,v2,jsons/MX_seq17_1_VE125_flipped.json,http://54.235.29.9/FacialAge/BNav_EC2/DepthDuration/MX_fS_VE_MTurk/MX_fS_HTML.html#62,62,1366,617,1366,768,1-13-2024,13-32-39,29,VR_target_stimuli/s17_1.3x_1.8_300_BC.png,125,1.3x,1.8,0.0,3078,124,meters,jsons/MX_seq17_1_VE125_flipped.json,340974,883989,30,Man
29,628935,final-intermixed-textured,v2,jsons/MX_seq17_1_VE125_flipped.json,http://54.235.29.9/FacialAge/BNav_EC2/DepthDuration/MX_fS_VE_MTurk/MX_fS_HTML.html#62,62,1366,617,1366,768,1-13-2024,13-32-39,30,VR_target_stimuli/s5_1x_4_378_BC.png,125,1x,4.0,4.0,9479,124,meters,jsons/MX_seq17_1_VE125_flipped.json,340974,883989,30,Man
30,628935,final-intermixed-textured,v2,jsons/MX_seq17_1_VE125_flipped.json,http://54.235.29.9/FacialAge/BNav_EC2/DepthDuration/MX_fS_VE_MTurk/MX_fS_HTML.html#62,62,1366,617,1366,768,1-13-2024,13-32-39,31,VR_target_stimuli/s37_0.75x_3.3_567.png,125,0.75x,3.3,2.8,15831,126,meters,jsons/MX_seq17_1_VE125_flipped.json,340974,883989,30,Man
31,628935,final-intermixed-textured,v2,jsons/MX_seq17_1_VE125_flipped.json,http://54.235.29.9/FacialAge/BNav_EC2/DepthDuration/MX_fS_VE_MTurk/MX_fS_HTML.html#62,62,1366,617,1366,768,1-13-2024,13-32-39,32,VR_target_stimuli/s46_1x_2.42_348.png,125,1x,2.42,0.0,3279,123,meters,jsons/MX_seq17_1_VE125_flipped.json,340974,883989,30,Man
32,628935,final-intermixed-textured,v2,jsons/MX_seq17_1_VE125_flipped.json,http://54.235.29.9/FacialAge/BNav_EC2/DepthDuration/MX_fS_VE_MTurk/MX_fS_HTML.html#62,62,1366,617,1366,768,1-13-2024,13-32-39,33,VR_target_stimuli/s22_1.3x_4.29_364.png,125,1.3x,4.29,0.0,3168,123,meters,jsons/MX_seq17_1_VE125_flipped.json,340974,883989,30,Man
33,628935,final-intermixed-textured,v2,jsons/MX_seq17_1_VE125_flipped.json,http://54.235.29.9/FacialAge/BNav_EC2/DepthDuration/MX_fS_VE_MTurk/MX_fS_HTML.html#62,62,1366,617,1366,768,1-13-2024,13-32-39,34,catch_stimuli/c3_BC.png,125,,,1.0,6598,124,meters,jsons/MX_seq17_1_VE125_flipped.json,340974,883989,30,Man
34,628935,final-intermixed-textured,v2,jsons/MX_seq17_1_VE125_flipped.json,http://54.235.29.9/FacialAge/BNav_EC2/DepthDuration/MX_fS_VE_MTurk/MX_fS_HTML.html#62,62,1366,617,1366,768,1-13-2024,13-32-39,35,VR_target_stimuli/s42_1x_3.2_303_BC.png,125,1x,3.2,0.0,3592,126,meters,jsons/MX_seq17_1_VE125_flipped.json,340974,883989,30,Man
35,628935,final-intermixed-textured,v2,jsons/MX_seq17_1_VE125_flipped.json,http://54.235.29.9/FacialAge/BNav_EC2/DepthDuration/MX_fS_VE_MTurk/MX_fS_HTML.html#62,62,1366,617,1366,768,1-13-2024,13-32-39,36,VR_target_stimuli/s25_0.75x_1.4_281.png,125,0.75x,1.4,0.0,3323,124,meters,jsons/MX_seq17_1_VE125_flipped.json,340974,883989,30,Man
36,628935,final-intermixed-textured,v2,jsons/MX_seq17_1_VE125_flipped.json,http://54.235.29.9/FacialAge/BNav_EC2/DepthDuration/MX_fS_VE_MTurk/MX_fS_HTML.html#62,62,1366,617,1366,768,1-13-2024,13-32-39,37,VR_target_stimuli/s50_1.3x_4.53_518.png,125,1.3x,4.53,3.2,7349,124,meters,jsons/MX_seq17_1_VE125_flipped.json,340974,883989,30,Man
37,628935,final-intermixed-textured,v2,jsons/MX_seq17_1_VE125_flipped.json,http://54.235.29.9/FacialAge/BNav_EC2/DepthDuration/MX_fS_VE_MTurk/MX_fS_HTML.html#62,62,1366,617,1366,768,1-13-2024,13-32-39,38,VR_target_stimuli/s53_1.3x_1.6_355_BC.png,125,1.3x,1.6,0.0,3423,127,meters,jsons/MX_seq17_1_VE125_flipped.json,340974,883989,30,Man
38,628935,final-intermixed-textured,v2,jsons/MX_seq17_1_VE125_flipped.json,http://54.235.29.9/FacialAge/BNav_EC2/DepthDuration/MX_fS_VE_MTurk/MX_fS_HTML.html#62,62,1366,617,1366,768,1-13-2024,13-32-39,39,VR_target_stimuli/s38_1x_3.55_353.png,125,1x,3.55,0.0,3316,117,meters,jsons/MX_seq17_1_VE125_flipped.json,340974,883989,30,Man
39,628935,final-intermixed-textured,v2,jsons/MX_seq17_1_VE125_flipped.json,http://54.235.29.9/FacialAge/BNav_EC2/DepthDuration/MX_fS_VE_MTurk/MX_fS_HTML.html#62,62,1366,617,1366,768,1-13-2024,13-32-39,40,VR_target_stimuli/s9_0.75x_1.2_260_BC.png,125,0.75x,1.2,0.0,3136,125,meters,jsons/MX_seq17_1_VE125_flipped.json,340974,883989,30,Man
40,628935,final-intermixed-textured,v2,jsons/MX_seq17_1_VE125_flipped.json,http://54.235.29.9/FacialAge/BNav_EC2/DepthDuration/MX_fS_VE_MTurk/MX_fS_HTML.html#62,62,1366,617,1366,768,1-13-2024,13-32-39,41,VR_target_stimuli/s44_1x_4.4_317.png,125,1x,4.4,0.0,3371,125,meters,jsons/MX_seq17_1_VE125_flipped.json,340974,883989,30,Man
41,628935,final-intermixed-textured,v2,jsons/MX_seq17_1_VE125_flipped.json,http://54.235.29.9/FacialAge/BNav_EC2/DepthDuration/MX_fS_VE_MTurk/MX_fS_HTML.html#62,62,1366,617,1366,768,1-13-2024,13-32-39,42,VR_target_stimuli/s3_1.3x_5_390.png,125,1.3x,5.0,0.0,4291,126,meters,jsons/MX_seq17_1_VE125_flipped.json,340974,883989,30,Man
42,628935,final-intermixed-textured,v2,jsons/MX_seq17_1_VE125_flipped.json,http://54.235.29.9/FacialAge/BNav_EC2/DepthDuration/MX_fS_VE_MTurk/MX_fS_HTML.html#62,62,1366,617,1366,768,1-13-2024,13-32-39,43,VR_target_stimuli/s1_0.75x_1.7_265.png,125,0.75x,1.7,0.0,3952,124,meters,jsons/MX_seq17_1_VE125_flipped.json,340974,883989,30,Man
43,628935,final-intermixed-textured,v2,jsons/MX_seq17_1_VE125_flipped.json,http://54.235.29.9/FacialAge/BNav_EC2/DepthDuration/MX_fS_VE_MTurk/MX_fS_HTML.html#62,62,1366,617,1366,768,1-13-2024,13-32-39,44,VR_target_stimuli/s11_1.3x_5_363_BC.png,125,1.3x,5.0,4.8,6360,124,meters,jsons/MX_seq17_1_VE125_flipped.json,340974,883989,30,Man
44,628935,final-intermixed-textured,v2,jsons/MX_seq17_1_VE125_flipped.json,http://54.235.29.9/FacialAge/BNav_EC2/DepthDuration/MX_fS_VE_MTurk/MX_fS_HTML.html#62,62,1366,617,1366,768,1-13-2024,13-32-39,45,catch_stimuli/c4_BC.png,125,,,3.0,5208,116,meters,jsons/MX_seq17_1_VE125_flipped.json,340974,883989,30,Man
45,628935,final-intermixed-textured,v2,jsons/MX_seq17_1_VE125_flipped.json,http://54.235.29.9/FacialAge/BNav_EC2/DepthDuration/MX_fS_VE_MTurk/MX_fS_HTML.html#62,62,1366,617,1366,768,1-13-2024,13-32-39,46,VR_target_stimuli/s2_1x_2.7_390_BC.png,125,1x,2.7,0.0,3125,125,meters,jsons/MX_seq17_1_VE125_flipped.json,340974,883989,30,Man
46,628935,final-intermixed-textured,v2,jsons/MX_seq17_1_VE125_flipped.json,http://54.235.29.9/FacialAge/BNav_EC2/DepthDuration/MX_fS_VE_MTurk/MX_fS_HTML.html#62,62,1366,617,1366,768,1-13-2024,13-32-39,47,VR_target_stimuli/s6_0.75x_2.1_290_BC.png,125,0.75x,2.1,3.3,10930,125,meters,jsons/MX_seq17_1_VE125_flipped.json,340974,883989,30,Man
47,628935,final-intermixed-textured,v2,jsons/MX_seq17_1_VE125_flipped.json,http://54.235.29.9/FacialAge/BNav_EC2/DepthDuration/MX_fS_VE_MTurk/MX_fS_HTML.html#62,62,1366,617,1366,768,1-13-2024,13-32-39,48,VR_target_stimuli/s0_0.75x_2.6_345_BC.png,125,0.75x,2.6,0.0,3498,124,meters,jsons/MX_seq17_1_VE125_flipped.json,340974,883989,30,Man
48,628935,final-intermixed-textured,v2,jsons/MX_seq17_1_VE125_flipped.json,http://54.235.29.9/FacialAge/BNav_EC2/DepthDuration/MX_fS_VE_MTurk/MX_fS_HTML.html#62,62,1366,617,1366,768,1-13-2024,13-32-39,49,VR_target_stimuli/s34_1.3x_2.8_294_BC.png,125,1.3x,2.8,0.0,3139,125,meters,jsons/MX_seq17_1_VE125_flipped.json,340974,883989,30,Man
49,628935,final-intermixed-textured,v2,jsons/MX_seq17_1_VE125_flipped.json,http://54.235.29.9/FacialAge/BNav_EC2/DepthDuration/MX_fS_VE_MTurk/MX_fS_HTML.html#62,62,1366,617,1366,768,1-13-2024,13-32-39,50,VR_target_stimuli/s13_1x_2.4_310_BC.png,125,1x,2.4,0.0,3195,125,meters,jsons/MX_seq17_1_VE125_flipped.json,340974,883989,30,Man
50,628935,final-intermixed-textured,v2,jsons/MX_seq17_1_VE125_flipped.json,http://54.235.29.9/FacialAge/BNav_EC2/DepthDuration/MX_fS_VE_MTurk/MX_fS_HTML.html#62,62,1366,617,1366,768,1-13-2024,13-32-39,51,VR_target_stimuli/s14_1.3x_3.83_359.png,125,1.3x,3.83,0.0,4979,123,meters,jsons/MX_seq17_1_VE125_flipped.json,340974,883989,30,Man
51,628935,final-intermixed-textured,v2,jsons/MX_seq17_1_VE125_flipped.json,http://54.235.29.9/FacialAge/BNav_EC2/DepthDuration/MX_fS_VE_MTurk/MX_fS_HTML.html#62,62,1366,617,1366,768,1-13-2024,13-32-39,52,VR_target_stimuli/s47_0.75x_3.45_366.png,125,0.75x,3.45,0.0,3166,123,meters,jsons/MX_seq17_1_VE125_flipped.json,340974,883989,30,Man
52,628935,final-intermixed-textured,v2,jsons/MX_seq17_1_VE125_flipped.json,http://54.235.29.9/FacialAge/BNav_EC2/DepthDuration/MX_fS_VE_MTurk/MX_fS_HTML.html#62,62,1366,617,1366,768,1-13-2024,13-32-39,53,catch_stimuli/c5_BC.png,125,,,2.5,5813,123,meters,jsons/MX_seq17_1_VE125_flipped.json,340974,883989,30,Man
53,628935,final-intermixed-textured,v2,jsons/MX_seq17_1_VE125_flipped.json,http://54.235.29.9/FacialAge/BNav_EC2/DepthDuration/MX_fS_VE_MTurk/MX_fS_HTML.html#62,62,1366,617,1366,768,1-13-2024,13-32-39,54,VR_target_stimuli/s29_1x_1.3_250.png,125,1x,1.3,0.0,11092,124,meters,jsons/MX_seq17_1_VE125_flipped.json,340974,883989,30,Man
54,628935,final-intermixed-textured,v2,jsons/MX_seq17_1_VE125_flipped.json,http://54.235.29.9/FacialAge/BNav_EC2/DepthDuration/MX_fS_VE_MTurk/MX_fS_HTML.html#62,62,1366,617,1366,768,1-13-2024,13-32-39,55,VR_target_stimuli/s28_0.75x_3.2_357.png,125,0.75x,3.2,0.0,4645,124,meters,jsons/MX_seq17_1_VE125_flipped.json,340974,883989,30,Man
55,628935,final-intermixed-textured,v2,jsons/MX_seq17_1_VE125_flipped.json,http://54.235.29.9/FacialAge/BNav_EC2/DepthDuration/MX_fS_VE_MTurk/MX_fS_HTML.html#62,62,1366,617,1366,768,1-13-2024,13-32-39,56,VR_target_stimuli/s48_1.3x_2.55_255.png,125,1.3x,2.55,4.0,9143,122,meters,jsons/MX_seq17_1_VE125_flipped.json,340974,883989,30,Man
56,628935,final-intermixed-textured,v2,jsons/MX_seq17_1_VE125_flipped.json,http://54.235.29.9/FacialAge/BNav_EC2/DepthDuration/MX_fS_VE_MTurk/MX_fS_HTML.html#62,62,1366,617,1366,768,1-13-2024,13-32-39,57,VR_target_stimuli/s19_1x_1.21_263.png,125,1x,1.21,0.0,4791,123,meters,jsons/MX_seq17_1_VE125_flipped.json,340974,883989,30,Man
57,628935,final-intermixed-textured,v2,jsons/MX_seq17_1_VE125_flipped.json,http://54.235.29.9/FacialAge/BNav_EC2/DepthDuration/MX_fS_VE_MTurk/MX_fS_HTML.html#62,62,1366,617,1366,768,1-13-2024,13-32-39,58,VR_target_stimuli/s21_1x_4.22_379_BC.png,125,1x,4.22,0.0,3667,125,meters,jsons/MX_seq17_1_VE125_flipped.json,340974,883989,30,Man
58,628935,final-intermixed-textured,v2,jsons/MX_seq17_1_VE125_flipped.json,http://54.235.29.9/FacialAge/BNav_EC2/DepthDuration/MX_fS_VE_MTurk/MX_fS_HTML.html#62,62,1366,617,1366,768,1-13-2024,13-32-39,59,VR_target_stimuli/s8_0.75x_3.1_325_BC.png,125,0.75x,3.1,0.0,3401,125,meters,jsons/MX_seq17_1_VE125_flipped.json,340974,883989,30,Man
59,628935,final-intermixed-textured,v2,jsons/MX_seq17_1_VE125_flipped.json,http://54.235.29.9/FacialAge/BNav_EC2/DepthDuration/MX_fS_VE_MTurk/MX_fS_HTML.html#62,62,1366,617,1366,768,1-13-2024,13-32-39,60,VR_target_stimuli/s27_1.3x_1.76_250_BC.png,125,1.3x,1.76,4.0,4817,123,meters,jsons/MX_seq17_1_VE125_flipped.json,340974,883989,30,Man
