,subjID,experimentName,versionName,sequenceName,url,selected_row,windowWidth,windowHeight,screenWidth,screenHeight,startDate,startTime,trial,stimulus,duration,scale,actual_depth,depth_estimate,trial_RT,log_sceneDuration,unitSelection,seq_filepath,experimentTime,totalTime,age,gender
0,631731,final-intermixed-textured,v2,jsons/MX_seq32_2_VE125.json,http://54.235.29.9/FacialAge/BNav_EC2/DepthDuration/MX_fS_VE_MTurk/MX_fS_HTML.html#183,183,1280,720,1280,720,1-13-2024,12-34-1,1,VR_target_stimuli/s10_1x_2.7_324.png,125,1x,2.7,5.0,4543,132,meters,jsons/MX_seq32_2_VE125.json,177462,360367,22,Woman
1,631731,final-intermixed-textured,v2,jsons/MX_seq32_2_VE125.json,http://54.235.29.9/FacialAge/BNav_EC2/DepthDuration/MX_fS_VE_MTurk/MX_fS_HTML.html#183,183,1280,720,1280,720,1-13-2024,12-34-1,2,VR_target_stimuli/s36_1.3x_4.1_442.png,125,1.3x,4.1,3.0,2326,124,meters,jsons/MX_seq32_2_VE125.json,177462,360367,22,Woman
2,631731,final-intermixed-textured,v2,jsons/MX_seq32_2_VE125.json,http://54.235.29.9/FacialAge/BNav_EC2/DepthDuration/MX_fS_VE_MTurk/MX_fS_HTML.html#183,183,1280,720,1280,720,1-13-2024,12-34-1,3,VR_target_stimuli/s40_0.75x_1.2_308.png,125,0.75x,1.2,1.0,2295,128,meters,jsons/MX_seq32_2_VE125.json,177462,360367,22,Woman
3,631731,final-intermixed-textured,v2,jsons/MX_seq32_2_VE125.json,http://54.235.29.9/FacialAge/BNav_EC2/DepthDuration/MX_fS_VE_MTurk/MX_fS_HTML.html#183,183,1280,720,1280,720,1-13-2024,12-34-1,4,VR_target_stimuli/s41_1.3x_2.1_294_BC.png,125,1.3x,2.1,3.0,2050,130,meters,jsons/MX_seq32_2_VE125.json,177462,360367,22,Woman
4,631731,final-intermixed-textured,v2,jsons/MX_seq32_2_VE125.json,http://54.235.29.9/FacialAge/BNav_EC2/DepthDuration/MX_fS_VE_MTurk/MX_fS_HTML.html#183,183,1280,720,1280,720,1-13-2024,12-34-1,5,VR_target_stimuli/s45_1x_3.5_368_BC.png,125,1x,3.5,2.0,4034,128,meters,jsons/MX_seq32_2_VE125.json,177462,360367,22,Woman
5,631731,final-intermixed-textured,v2,jsons/MX_seq32_2_VE125.json,http://54.235.29.9/FacialAge/BNav_EC2/DepthDuration/MX_fS_VE_MTurk/MX_fS_HTML.html#183,183,1280,720,1280,720,1-13-2024,12-34-1,6,VR_target_stimuli/s23_0.75x_3.65_351_BC.png,125,0.75x,3.65,3.0,2197,131,meters,jsons/MX_seq32_2_VE125.json,177462,360367,22,Woman
6,631731,final-intermixed-textured,v2,jsons/MX_seq32_2_VE125.json,http://54.235.29.9/FacialAge/BNav_EC2/DepthDuration/MX_fS_VE_MTurk/MX_fS_HTML.html#183,183,1280,720,1280,720,1-13-2024,12-34-1,7,catch_stimuli/c0.png,125,,,3.0,2660,110,meters,jsons/MX_seq32_2_VE125.json,177462,360367,22,Woman
7,631731,final-intermixed-textured,v2,jsons/MX_seq32_2_VE125.json,http://54.235.29.9/FacialAge/BNav_EC2/DepthDuration/MX_fS_VE_MTurk/MX_fS_HTML.html#183,183,1280,720,1280,720,1-13-2024,12-34-1,8,VR_target_stimuli/s26_0.75x_4_430.png,125,0.75x,4.0,3.0,2061,125,meters,jsons/MX_seq32_2_VE125.json,177462,360367,22,Woman
8,631731,final-intermixed-textured,v2,jsons/MX_seq32_2_VE125.json,http://54.235.29.9/FacialAge/BNav_EC2/DepthDuration/MX_fS_VE_MTurk/MX_fS_HTML.html#183,183,1280,720,1280,720,1-13-2024,12-34-1,9,VR_target_stimuli/s12_1.3x_3.1_375_BC.png,125,1.3x,3.1,3.0,1750,123,meters,jsons/MX_seq32_2_VE125.json,177462,360367,22,Woman
9,631731,final-intermixed-textured,v2,jsons/MX_seq32_2_VE125.json,http://54.235.29.9/FacialAge/BNav_EC2/DepthDuration/MX_fS_VE_MTurk/MX_fS_HTML.html#183,183,1280,720,1280,720,1-13-2024,12-34-1,10,VR_target_stimuli/s30_1x_2.3_334.png,125,1x,2.3,3.0,1653,110,meters,jsons/MX_seq32_2_VE125.json,177462,360367,22,Woman
10,631731,final-intermixed-textured,v2,jsons/MX_seq32_2_VE125.json,http://54.235.29.9/FacialAge/BNav_EC2/DepthDuration/MX_fS_VE_MTurk/MX_fS_HTML.html#183,183,1280,720,1280,720,1-13-2024,12-34-1,11,VR_target_stimuli/s16_1.3x_1_223.png,125,1.3x,1.0,1.0,2047,127,meters,jsons/MX_seq32_2_VE125.json,177462,360367,22,Woman
11,631731,final-intermixed-textured,v2,jsons/MX_seq32_2_VE125.json,http://54.235.29.9/FacialAge/BNav_EC2/DepthDuration/MX_fS_VE_MTurk/MX_fS_HTML.html#183,183,1280,720,1280,720,1-13-2024,12-34-1,12,VR_target_stimuli/s17_0.75x_1.8_285_BC.png,125,0.75x,1.8,3.0,2545,133,meters,jsons/MX_seq32_2_VE125.json,177462,360367,22,Woman
12,631731,final-intermixed-textured,v2,jsons/MX_seq32_2_VE125.json,http://54.235.29.9/FacialAge/BNav_EC2/DepthDuration/MX_fS_VE_MTurk/MX_fS_HTML.html#183,183,1280,720,1280,720,1-13-2024,12-34-1,13,VR_target_stimuli/s5_1x_4_378_BC.png,125,1x,4.0,2.0,2076,124,meters,jsons/MX_seq32_2_VE125.json,177462,360367,22,Woman
13,631731,final-intermixed-textured,v2,jsons/MX_seq32_2_VE125.json,http://54.235.29.9/FacialAge/BNav_EC2/DepthDuration/MX_fS_VE_MTurk/MX_fS_HTML.html#183,183,1280,720,1280,720,1-13-2024,12-34-1,14,VR_target_stimuli/s37_0.75x_3.3_567.png,125,0.75x,3.3,3.0,1933,135,meters,jsons/MX_seq32_2_VE125.json,177462,360367,22,Woman
14,631731,final-intermixed-textured,v2,jsons/MX_seq32_2_VE125.json,http://54.235.29.9/FacialAge/BNav_EC2/DepthDuration/MX_fS_VE_MTurk/MX_fS_HTML.html#183,183,1280,720,1280,720,1-13-2024,12-34-1,15,VR_target_stimuli/s46_1.3x_2.42_354.png,125,1.3x,2.42,3.0,1625,131,meters,jsons/MX_seq32_2_VE125.json,177462,360367,22,Woman
15,631731,final-intermixed-textured,v2,jsons/MX_seq32_2_VE125.json,http://54.235.29.9/FacialAge/BNav_EC2/DepthDuration/MX_fS_VE_MTurk/MX_fS_HTML.html#183,183,1280,720,1280,720,1-13-2024,12-34-1,16,VR_target_stimuli/s22_1x_4.29_354.png,125,1x,4.29,5.0,2378,128,meters,jsons/MX_seq32_2_VE125.json,177462,360367,22,Woman
16,631731,final-intermixed-textured,v2,jsons/MX_seq32_2_VE125.json,http://54.235.29.9/FacialAge/BNav_EC2/DepthDuration/MX_fS_VE_MTurk/MX_fS_HTML.html#183,183,1280,720,1280,720,1-13-2024,12-34-1,17,catch_stimuli/c1.png,125,,,0.0,3045,125,meters,jsons/MX_seq32_2_VE125.json,177462,360367,22,Woman
17,631731,final-intermixed-textured,v2,jsons/MX_seq32_2_VE125.json,http://54.235.29.9/FacialAge/BNav_EC2/DepthDuration/MX_fS_VE_MTurk/MX_fS_HTML.html#183,183,1280,720,1280,720,1-13-2024,12-34-1,18,VR_target_stimuli/s42_1x_3.2_303_BC.png,125,1x,3.2,0.0,3663,118,meters,jsons/MX_seq32_2_VE125.json,177462,360367,22,Woman
18,631731,final-intermixed-textured,v2,jsons/MX_seq32_2_VE125.json,http://54.235.29.9/FacialAge/BNav_EC2/DepthDuration/MX_fS_VE_MTurk/MX_fS_HTML.html#183,183,1280,720,1280,720,1-13-2024,12-34-1,19,VR_target_stimuli/s25_0.75x_1.4_281_BC.png,125,0.75x,1.4,1.0,2089,127,meters,jsons/MX_seq32_2_VE125.json,177462,360367,22,Woman
19,631731,final-intermixed-textured,v2,jsons/MX_seq32_2_VE125.json,http://54.235.29.9/FacialAge/BNav_EC2/DepthDuration/MX_fS_VE_MTurk/MX_fS_HTML.html#183,183,1280,720,1280,720,1-13-2024,12-34-1,20,VR_target_stimuli/s50_1.3x_4.53_518_BC.png,125,1.3x,4.53,2.0,1913,127,meters,jsons/MX_seq32_2_VE125.json,177462,360367,22,Woman
20,631731,final-intermixed-textured,v2,jsons/MX_seq32_2_VE125.json,http://54.235.29.9/FacialAge/BNav_EC2/DepthDuration/MX_fS_VE_MTurk/MX_fS_HTML.html#183,183,1280,720,1280,720,1-13-2024,12-34-1,21,VR_target_stimuli/s53_0.75x_1.6_403.png,125,0.75x,1.6,1.0,1752,124,meters,jsons/MX_seq32_2_VE125.json,177462,360367,22,Woman
21,631731,final-intermixed-textured,v2,jsons/MX_seq32_2_VE125.json,http://54.235.29.9/FacialAge/BNav_EC2/DepthDuration/MX_fS_VE_MTurk/MX_fS_HTML.html#183,183,1280,720,1280,720,1-13-2024,12-34-1,22,VR_target_stimuli/s38_1x_3.55_353.png,125,1x,3.55,3.0,3077,118,meters,jsons/MX_seq32_2_VE125.json,177462,360367,22,Woman
22,631731,final-intermixed-textured,v2,jsons/MX_seq32_2_VE125.json,http://54.235.29.9/FacialAge/BNav_EC2/DepthDuration/MX_fS_VE_MTurk/MX_fS_HTML.html#183,183,1280,720,1280,720,1-13-2024,12-34-1,23,VR_target_stimuli/s9_1.3x_1.2_276.png,125,1.3x,1.2,0.5,7391,112,meters,jsons/MX_seq32_2_VE125.json,177462,360367,22,Woman
23,631731,final-intermixed-textured,v2,jsons/MX_seq32_2_VE125.json,http://54.235.29.9/FacialAge/BNav_EC2/DepthDuration/MX_fS_VE_MTurk/MX_fS_HTML.html#183,183,1280,720,1280,720,1-13-2024,12-34-1,24,VR_target_stimuli/s44_1x_4.4_317_BC.png,125,1x,4.4,2.0,1849,125,meters,jsons/MX_seq32_2_VE125.json,177462,360367,22,Woman
24,631731,final-intermixed-textured,v2,jsons/MX_seq32_2_VE125.json,http://54.235.29.9/FacialAge/BNav_EC2/DepthDuration/MX_fS_VE_MTurk/MX_fS_HTML.html#183,183,1280,720,1280,720,1-13-2024,12-34-1,25,VR_target_stimuli/s3_0.75x_5_381_BC.png,125,0.75x,5.0,4.0,2840,124,meters,jsons/MX_seq32_2_VE125.json,177462,360367,22,Woman
25,631731,final-intermixed-textured,v2,jsons/MX_seq32_2_VE125.json,http://54.235.29.9/FacialAge/BNav_EC2/DepthDuration/MX_fS_VE_MTurk/MX_fS_HTML.html#183,183,1280,720,1280,720,1-13-2024,12-34-1,26,catch_stimuli/c2.png,125,,,0.0,3458,115,meters,jsons/MX_seq32_2_VE125.json,177462,360367,22,Woman
26,631731,final-intermixed-textured,v2,jsons/MX_seq32_2_VE125.json,http://54.235.29.9/FacialAge/BNav_EC2/DepthDuration/MX_fS_VE_MTurk/MX_fS_HTML.html#183,183,1280,720,1280,720,1-13-2024,12-34-1,27,VR_target_stimuli/s1_1.3x_1.7_261_BC.png,125,1.3x,1.7,1.0,2148,121,meters,jsons/MX_seq32_2_VE125.json,177462,360367,22,Woman
27,631731,final-intermixed-textured,v2,jsons/MX_seq32_2_VE125.json,http://54.235.29.9/FacialAge/BNav_EC2/DepthDuration/MX_fS_VE_MTurk/MX_fS_HTML.html#183,183,1280,720,1280,720,1-13-2024,12-34-1,28,VR_target_stimuli/s11_1.3x_5_363_BC.png,125,1.3x,5.0,4.0,2291,125,meters,jsons/MX_seq32_2_VE125.json,177462,360367,22,Woman
28,631731,final-intermixed-textured,v2,jsons/MX_seq32_2_VE125.json,http://54.235.29.9/FacialAge/BNav_EC2/DepthDuration/MX_fS_VE_MTurk/MX_fS_HTML.html#183,183,1280,720,1280,720,1-13-2024,12-34-1,29,VR_target_stimuli/s2_1x_2.7_390_BC.png,125,1x,2.7,2.0,2059,139,meters,jsons/MX_seq32_2_VE125.json,177462,360367,22,Woman
29,631731,final-intermixed-textured,v2,jsons/MX_seq32_2_VE125.json,http://54.235.29.9/FacialAge/BNav_EC2/DepthDuration/MX_fS_VE_MTurk/MX_fS_HTML.html#183,183,1280,720,1280,720,1-13-2024,12-34-1,30,VR_target_stimuli/s6_0.75x_2.1_290.png,125,0.75x,2.1,2.0,1902,126,meters,jsons/MX_seq32_2_VE125.json,177462,360367,22,Woman
30,631731,final-intermixed-textured,v2,jsons/MX_seq32_2_VE125.json,http://54.235.29.9/FacialAge/BNav_EC2/DepthDuration/MX_fS_VE_MTurk/MX_fS_HTML.html#183,183,1280,720,1280,720,1-13-2024,12-34-1,31,VR_target_stimuli/s0_1.3x_2.6_356.png,125,1.3x,2.6,1.0,1966,127,meters,jsons/MX_seq32_2_VE125.json,177462,360367,22,Woman
31,631731,final-intermixed-textured,v2,jsons/MX_seq32_2_VE125.json,http://54.235.29.9/FacialAge/BNav_EC2/DepthDuration/MX_fS_VE_MTurk/MX_fS_HTML.html#183,183,1280,720,1280,720,1-13-2024,12-34-1,32,VR_target_stimuli/s34_0.75x_2.8_269_BC.png,125,0.75x,2.8,2.0,1697,125,meters,jsons/MX_seq32_2_VE125.json,177462,360367,22,Woman
32,631731,final-intermixed-textured,v2,jsons/MX_seq32_2_VE125.json,http://54.235.29.9/FacialAge/BNav_EC2/DepthDuration/MX_fS_VE_MTurk/MX_fS_HTML.html#183,183,1280,720,1280,720,1-13-2024,12-34-1,33,VR_target_stimuli/s13_1x_2.4_310.png,125,1x,2.4,2.0,1821,112,meters,jsons/MX_seq32_2_VE125.json,177462,360367,22,Woman
33,631731,final-intermixed-textured,v2,jsons/MX_seq32_2_VE125.json,http://54.235.29.9/FacialAge/BNav_EC2/DepthDuration/MX_fS_VE_MTurk/MX_fS_HTML.html#183,183,1280,720,1280,720,1-13-2024,12-34-1,34,catch_stimuli/c3.png,125,,,0.0,3622,125,meters,jsons/MX_seq32_2_VE125.json,177462,360367,22,Woman
34,631731,final-intermixed-textured,v2,jsons/MX_seq32_2_VE125.json,http://54.235.29.9/FacialAge/BNav_EC2/DepthDuration/MX_fS_VE_MTurk/MX_fS_HTML.html#183,183,1280,720,1280,720,1-13-2024,12-34-1,35,VR_target_stimuli/s14_0.75x_3.83_355.png,125,0.75x,3.83,3.0,2310,133,meters,jsons/MX_seq32_2_VE125.json,177462,360367,22,Woman
35,631731,final-intermixed-textured,v2,jsons/MX_seq32_2_VE125.json,http://54.235.29.9/FacialAge/BNav_EC2/DepthDuration/MX_fS_VE_MTurk/MX_fS_HTML.html#183,183,1280,720,1280,720,1-13-2024,12-34-1,36,VR_target_stimuli/s47_1.3x_3.45_373_BC.png,125,1.3x,3.45,2.0,2133,133,meters,jsons/MX_seq32_2_VE125.json,177462,360367,22,Woman
36,631731,final-intermixed-textured,v2,jsons/MX_seq32_2_VE125.json,http://54.235.29.9/FacialAge/BNav_EC2/DepthDuration/MX_fS_VE_MTurk/MX_fS_HTML.html#183,183,1280,720,1280,720,1-13-2024,12-34-1,37,VR_target_stimuli/s29_1x_1.3_250_BC.png,125,1x,1.3,2.0,1900,115,meters,jsons/MX_seq32_2_VE125.json,177462,360367,22,Woman
37,631731,final-intermixed-textured,v2,jsons/MX_seq32_2_VE125.json,http://54.235.29.9/FacialAge/BNav_EC2/DepthDuration/MX_fS_VE_MTurk/MX_fS_HTML.html#183,183,1280,720,1280,720,1-13-2024,12-34-1,38,VR_target_stimuli/s28_1x_3.2_362.png,125,1x,3.2,2.0,1817,131,meters,jsons/MX_seq32_2_VE125.json,177462,360367,22,Woman
38,631731,final-intermixed-textured,v2,jsons/MX_seq32_2_VE125.json,http://54.235.29.9/FacialAge/BNav_EC2/DepthDuration/MX_fS_VE_MTurk/MX_fS_HTML.html#183,183,1280,720,1280,720,1-13-2024,12-34-1,39,VR_target_stimuli/s48_0.75x_2.55_243_BC.png,125,0.75x,2.55,3.0,3086,114,meters,jsons/MX_seq32_2_VE125.json,177462,360367,22,Woman
39,631731,final-intermixed-textured,v2,jsons/MX_seq32_2_VE125.json,http://54.235.29.9/FacialAge/BNav_EC2/DepthDuration/MX_fS_VE_MTurk/MX_fS_HTML.html#183,183,1280,720,1280,720,1-13-2024,12-34-1,40,VR_target_stimuli/s19_1.3x_1.21_270.png,125,1.3x,1.21,1.0,2158,115,meters,jsons/MX_seq32_2_VE125.json,177462,360367,22,Woman
40,631731,final-intermixed-textured,v2,jsons/MX_seq32_2_VE125.json,http://54.235.29.9/FacialAge/BNav_EC2/DepthDuration/MX_fS_VE_MTurk/MX_fS_HTML.html#183,183,1280,720,1280,720,1-13-2024,12-34-1,41,VR_target_stimuli/s21_0.75x_4.22_374.png,125,0.75x,4.22,3.0,4374,125,meters,jsons/MX_seq32_2_VE125.json,177462,360367,22,Woman
41,631731,final-intermixed-textured,v2,jsons/MX_seq32_2_VE125.json,http://54.235.29.9/FacialAge/BNav_EC2/DepthDuration/MX_fS_VE_MTurk/MX_fS_HTML.html#183,183,1280,720,1280,720,1-13-2024,12-34-1,42,VR_target_stimuli/s8_1x_3.1_332.png,125,1x,3.1,2.0,2762,109,meters,jsons/MX_seq32_2_VE125.json,177462,360367,22,Woman
42,631731,final-intermixed-textured,v2,jsons/MX_seq32_2_VE125.json,http://54.235.29.9/FacialAge/BNav_EC2/DepthDuration/MX_fS_VE_MTurk/MX_fS_HTML.html#183,183,1280,720,1280,720,1-13-2024,12-34-1,43,VR_target_stimuli/s27_1.3x_1.76_250.png,125,1.3x,1.76,2.0,2750,124,meters,jsons/MX_seq32_2_VE125.json,177462,360367,22,Woman
43,631731,final-intermixed-textured,v2,jsons/MX_seq32_2_VE125.json,http://54.235.29.9/FacialAge/BNav_EC2/DepthDuration/MX_fS_VE_MTurk/MX_fS_HTML.html#183,183,1280,720,1280,720,1-13-2024,12-34-1,44,VR_target_stimuli/s15_1x_4.2_390_BC.png,125,1x,4.2,3.0,1666,130,meters,jsons/MX_seq32_2_VE125.json,177462,360367,22,Woman
44,631731,final-intermixed-textured,v2,jsons/MX_seq32_2_VE125.json,http://54.235.29.9/FacialAge/BNav_EC2/DepthDuration/MX_fS_VE_MTurk/MX_fS_HTML.html#183,183,1280,720,1280,720,1-13-2024,12-34-1,45,catch_stimuli/c4.png,125,,,0.0,3063,123,meters,jsons/MX_seq32_2_VE125.json,177462,360367,22,Woman
45,631731,final-intermixed-textured,v2,jsons/MX_seq32_2_VE125.json,http://54.235.29.9/FacialAge/BNav_EC2/DepthDuration/MX_fS_VE_MTurk/MX_fS_HTML.html#183,183,1280,720,1280,720,1-13-2024,12-34-1,46,VR_target_stimuli/s4_0.75x_1.4_301_BC.png,125,0.75x,1.4,1.0,2110,124,meters,jsons/MX_seq32_2_VE125.json,177462,360367,22,Woman
46,631731,final-intermixed-textured,v2,jsons/MX_seq32_2_VE125.json,http://54.235.29.9/FacialAge/BNav_EC2/DepthDuration/MX_fS_VE_MTurk/MX_fS_HTML.html#183,183,1280,720,1280,720,1-13-2024,12-34-1,47,VR_target_stimuli/s35_1.3x_2_338_BC.png,125,1.3x,2.0,2.0,1842,131,meters,jsons/MX_seq32_2_VE125.json,177462,360367,22,Woman
47,631731,final-intermixed-textured,v2,jsons/MX_seq32_2_VE125.json,http://54.235.29.9/FacialAge/BNav_EC2/DepthDuration/MX_fS_VE_MTurk/MX_fS_HTML.html#183,183,1280,720,1280,720,1-13-2024,12-34-1,48,VR_target_stimuli/s49_1.3x_4.67_354.png,125,1.3x,4.67,3.0,1534,124,meters,jsons/MX_seq32_2_VE125.json,177462,360367,22,Woman
48,631731,final-intermixed-textured,v2,jsons/MX_seq32_2_VE125.json,http://54.235.29.9/FacialAge/BNav_EC2/DepthDuration/MX_fS_VE_MTurk/MX_fS_HTML.html#183,183,1280,720,1280,720,1-13-2024,12-34-1,49,VR_target_stimuli/s7_1x_1.5_255_BC.png,125,1x,1.5,1.0,1737,128,meters,jsons/MX_seq32_2_VE125.json,177462,360367,22,Woman
49,631731,final-intermixed-textured,v2,jsons/MX_seq32_2_VE125.json,http://54.235.29.9/FacialAge/BNav_EC2/DepthDuration/MX_fS_VE_MTurk/MX_fS_HTML.html#183,183,1280,720,1280,720,1-13-2024,12-34-1,50,VR_target_stimuli/s20_0.75x_4.99_390.png,125,0.75x,4.99,4.0,2228,117,meters,jsons/MX_seq32_2_VE125.json,177462,360367,22,Woman
50,631731,final-intermixed-textured,v2,jsons/MX_seq32_2_VE125.json,http://54.235.29.9/FacialAge/BNav_EC2/DepthDuration/MX_fS_VE_MTurk/MX_fS_HTML.html#183,183,1280,720,1280,720,1-13-2024,12-34-1,51,VR_target_stimuli/s31_1x_4.96_333.png,125,1x,4.96,3.0,2330,137,meters,jsons/MX_seq32_2_VE125.json,177462,360367,22,Woman
51,631731,final-intermixed-textured,v2,jsons/MX_seq32_2_VE125.json,http://54.235.29.9/FacialAge/BNav_EC2/DepthDuration/MX_fS_VE_MTurk/MX_fS_HTML.html#183,183,1280,720,1280,720,1-13-2024,12-34-1,52,VR_target_stimuli/s33_1.3x_3.1_378_BC.png,125,1.3x,3.1,2.0,1935,119,meters,jsons/MX_seq32_2_VE125.json,177462,360367,22,Woman
52,631731,final-intermixed-textured,v2,jsons/MX_seq32_2_VE125.json,http://54.235.29.9/FacialAge/BNav_EC2/DepthDuration/MX_fS_VE_MTurk/MX_fS_HTML.html#183,183,1280,720,1280,720,1-13-2024,12-34-1,53,catch_stimuli/c5.png,125,,,0.0,3466,140,meters,jsons/MX_seq32_2_VE125.json,177462,360367,22,Woman
53,631731,final-intermixed-textured,v2,jsons/MX_seq32_2_VE125.json,http://54.235.29.9/FacialAge/BNav_EC2/DepthDuration/MX_fS_VE_MTurk/MX_fS_HTML.html#183,183,1280,720,1280,720,1-13-2024,12-34-1,54,VR_target_stimuli/s52_0.75x_3.2_270_BC.png,125,0.75x,3.2,4.0,2263,125,meters,jsons/MX_seq32_2_VE125.json,177462,360367,22,Woman
54,631731,final-intermixed-textured,v2,jsons/MX_seq32_2_VE125.json,http://54.235.29.9/FacialAge/BNav_EC2/DepthDuration/MX_fS_VE_MTurk/MX_fS_HTML.html#183,183,1280,720,1280,720,1-13-2024,12-34-1,55,VR_target_stimuli/s32_1.3x_1.5_224.png,125,1.3x,1.5,2.0,1780,123,meters,jsons/MX_seq32_2_VE125.json,177462,360367,22,Woman
55,631731,final-intermixed-textured,v2,jsons/MX_seq32_2_VE125.json,http://54.235.29.9/FacialAge/BNav_EC2/DepthDuration/MX_fS_VE_MTurk/MX_fS_HTML.html#183,183,1280,720,1280,720,1-13-2024,12-34-1,56,VR_target_stimuli/s18_1x_2.25_353_BC.png,125,1x,2.25,2.0,2018,127,meters,jsons/MX_seq32_2_VE125.json,177462,360367,22,Woman
56,631731,final-intermixed-textured,v2,jsons/MX_seq32_2_VE125.json,http://54.235.29.9/FacialAge/BNav_EC2/DepthDuration/MX_fS_VE_MTurk/MX_fS_HTML.html#183,183,1280,720,1280,720,1-13-2024,12-34-1,57,VR_target_stimuli/s39_0.75x_1_205_BC.png,125,0.75x,1.0,3.0,1835,109,meters,jsons/MX_seq32_2_VE125.json,177462,360367,22,Woman
57,631731,final-intermixed-textured,v2,jsons/MX_seq32_2_VE125.json,http://54.235.29.9/FacialAge/BNav_EC2/DepthDuration/MX_fS_VE_MTurk/MX_fS_HTML.html#183,183,1280,720,1280,720,1-13-2024,12-34-1,58,VR_target_stimuli/s51_0.75x_3.64_460.png,125,0.75x,3.64,2.0,1726,115,meters,jsons/MX_seq32_2_VE125.json,177462,360367,22,Woman
58,631731,final-intermixed-textured,v2,jsons/MX_seq32_2_VE125.json,http://54.235.29.9/FacialAge/BNav_EC2/DepthDuration/MX_fS_VE_MTurk/MX_fS_HTML.html#183,183,1280,720,1280,720,1-13-2024,12-34-1,59,VR_target_stimuli/s43_1.3x_2.2_363_BC.png,125,1.3x,2.2,3.0,1688,134,meters,jsons/MX_seq32_2_VE125.json,177462,360367,22,Woman
59,631731,final-intermixed-textured,v2,jsons/MX_seq32_2_VE125.json,http://54.235.29.9/FacialAge/BNav_EC2/DepthDuration/MX_fS_VE_MTurk/MX_fS_HTML.html#183,183,1280,720,1280,720,1-13-2024,12-34-1,60,VR_target_stimuli/s24_1x_3.3_349.png,125,1x,3.3,4.0,3703,124,meters,jsons/MX_seq32_2_VE125.json,177462,360367,22,Woman
