,subjID,experimentName,versionName,sequenceName,url,selected_row,windowWidth,windowHeight,screenWidth,screenHeight,startDate,startTime,trial,stimulus,duration,scale,actual_depth,depth_estimate,trial_RT,log_sceneDuration,unitSelection,seq_filepath,experimentTime,totalTime,age,gender
0,634218,final-intermixed-textured,v2,jsons/MX_seq11_0_VE125_flipped.json,http://54.235.29.9/FacialAge/BNav_EC2/DepthDuration/MX_fS_VE_MTurk/MX_fS_HTML.html#53,53,1920,991,1920,1080,1-12-2024,19-18-29,1,VR_target_stimuli/s28_0.75x_3.2_357.png,125,0.75x,3.2,4.0,2963,127,meters,jsons/MX_seq11_0_VE125_flipped.json,288766,525097,34,Woman
1,634218,final-intermixed-textured,v2,jsons/MX_seq11_0_VE125_flipped.json,http://54.235.29.9/FacialAge/BNav_EC2/DepthDuration/MX_fS_VE_MTurk/MX_fS_HTML.html#53,53,1920,991,1920,1080,1-12-2024,19-18-29,2,VR_target_stimuli/s48_1x_2.55_256_BC.png,125,1x,2.55,2.0,3141,123,meters,jsons/MX_seq11_0_VE125_flipped.json,288766,525097,34,Woman
2,634218,final-intermixed-textured,v2,jsons/MX_seq11_0_VE125_flipped.json,http://54.235.29.9/FacialAge/BNav_EC2/DepthDuration/MX_fS_VE_MTurk/MX_fS_HTML.html#53,53,1920,991,1920,1080,1-12-2024,19-18-29,3,VR_target_stimuli/s19_1.3x_1.21_270.png,125,1.3x,1.21,1.5,11731,133,meters,jsons/MX_seq11_0_VE125_flipped.json,288766,525097,34,Woman
3,634218,final-intermixed-textured,v2,jsons/MX_seq11_0_VE125_flipped.json,http://54.235.29.9/FacialAge/BNav_EC2/DepthDuration/MX_fS_VE_MTurk/MX_fS_HTML.html#53,53,1920,991,1920,1080,1-12-2024,19-18-29,4,VR_target_stimuli/s21_1x_4.22_379.png,125,1x,4.22,1.0,24818,127,meters,jsons/MX_seq11_0_VE125_flipped.json,288766,525097,34,Woman
4,634218,final-intermixed-textured,v2,jsons/MX_seq11_0_VE125_flipped.json,http://54.235.29.9/FacialAge/BNav_EC2/DepthDuration/MX_fS_VE_MTurk/MX_fS_HTML.html#53,53,1920,991,1920,1080,1-12-2024,19-18-29,5,VR_target_stimuli/s8_0.75x_3.1_325_BC.png,125,0.75x,3.1,0.0,3645,137,meters,jsons/MX_seq11_0_VE125_flipped.json,288766,525097,34,Woman
5,634218,final-intermixed-textured,v2,jsons/MX_seq11_0_VE125_flipped.json,http://54.235.29.9/FacialAge/BNav_EC2/DepthDuration/MX_fS_VE_MTurk/MX_fS_HTML.html#53,53,1920,991,1920,1080,1-12-2024,19-18-29,6,VR_target_stimuli/s27_1.3x_1.76_250_BC.png,125,1.3x,1.76,2.0,2543,123,meters,jsons/MX_seq11_0_VE125_flipped.json,288766,525097,34,Woman
6,634218,final-intermixed-textured,v2,jsons/MX_seq11_0_VE125_flipped.json,http://54.235.29.9/FacialAge/BNav_EC2/DepthDuration/MX_fS_VE_MTurk/MX_fS_HTML.html#53,53,1920,991,1920,1080,1-12-2024,19-18-29,7,catch_stimuli/c0_BC.png,125,,,0.0,3147,123,meters,jsons/MX_seq11_0_VE125_flipped.json,288766,525097,34,Woman
7,634218,final-intermixed-textured,v2,jsons/MX_seq11_0_VE125_flipped.json,http://54.235.29.9/FacialAge/BNav_EC2/DepthDuration/MX_fS_VE_MTurk/MX_fS_HTML.html#53,53,1920,991,1920,1080,1-12-2024,19-18-29,8,VR_target_stimuli/s15_1.3x_4.2_389.png,125,1.3x,4.2,3.0,2543,122,meters,jsons/MX_seq11_0_VE125_flipped.json,288766,525097,34,Woman
8,634218,final-intermixed-textured,v2,jsons/MX_seq11_0_VE125_flipped.json,http://54.235.29.9/FacialAge/BNav_EC2/DepthDuration/MX_fS_VE_MTurk/MX_fS_HTML.html#53,53,1920,991,1920,1080,1-12-2024,19-18-29,9,VR_target_stimuli/s4_1x_1.4_313_BC.png,125,1x,1.4,3.0,2551,123,meters,jsons/MX_seq11_0_VE125_flipped.json,288766,525097,34,Woman
9,634218,final-intermixed-textured,v2,jsons/MX_seq11_0_VE125_flipped.json,http://54.235.29.9/FacialAge/BNav_EC2/DepthDuration/MX_fS_VE_MTurk/MX_fS_HTML.html#53,53,1920,991,1920,1080,1-12-2024,19-18-29,10,VR_target_stimuli/s35_0.75x_2_323_BC.png,125,0.75x,2.0,2.0,2436,123,meters,jsons/MX_seq11_0_VE125_flipped.json,288766,525097,34,Woman
10,634218,final-intermixed-textured,v2,jsons/MX_seq11_0_VE125_flipped.json,http://54.235.29.9/FacialAge/BNav_EC2/DepthDuration/MX_fS_VE_MTurk/MX_fS_HTML.html#53,53,1920,991,1920,1080,1-12-2024,19-18-29,11,VR_target_stimuli/s49_1x_4.67_341.png,125,1x,4.67,3.0,2450,123,meters,jsons/MX_seq11_0_VE125_flipped.json,288766,525097,34,Woman
11,634218,final-intermixed-textured,v2,jsons/MX_seq11_0_VE125_flipped.json,http://54.235.29.9/FacialAge/BNav_EC2/DepthDuration/MX_fS_VE_MTurk/MX_fS_HTML.html#53,53,1920,991,1920,1080,1-12-2024,19-18-29,12,VR_target_stimuli/s7_1.3x_1.5_256_BC.png,125,1.3x,1.5,1.5,4455,116,meters,jsons/MX_seq11_0_VE125_flipped.json,288766,525097,34,Woman
12,634218,final-intermixed-textured,v2,jsons/MX_seq11_0_VE125_flipped.json,http://54.235.29.9/FacialAge/BNav_EC2/DepthDuration/MX_fS_VE_MTurk/MX_fS_HTML.html#53,53,1920,991,1920,1080,1-12-2024,19-18-29,13,VR_target_stimuli/s20_0.75x_4.99_390.png,125,0.75x,4.99,3.0,2676,136,meters,jsons/MX_seq11_0_VE125_flipped.json,288766,525097,34,Woman
13,634218,final-intermixed-textured,v2,jsons/MX_seq11_0_VE125_flipped.json,http://54.235.29.9/FacialAge/BNav_EC2/DepthDuration/MX_fS_VE_MTurk/MX_fS_HTML.html#53,53,1920,991,1920,1080,1-12-2024,19-18-29,14,VR_target_stimuli/s31_1.3x_4.96_342_BC.png,125,1.3x,4.96,2.0,2612,121,meters,jsons/MX_seq11_0_VE125_flipped.json,288766,525097,34,Woman
14,634218,final-intermixed-textured,v2,jsons/MX_seq11_0_VE125_flipped.json,http://54.235.29.9/FacialAge/BNav_EC2/DepthDuration/MX_fS_VE_MTurk/MX_fS_HTML.html#53,53,1920,991,1920,1080,1-12-2024,19-18-29,15,VR_target_stimuli/s33_1x_3.1_366.png,125,1x,3.1,3.0,2395,124,meters,jsons/MX_seq11_0_VE125_flipped.json,288766,525097,34,Woman
15,634218,final-intermixed-textured,v2,jsons/MX_seq11_0_VE125_flipped.json,http://54.235.29.9/FacialAge/BNav_EC2/DepthDuration/MX_fS_VE_MTurk/MX_fS_HTML.html#53,53,1920,991,1920,1080,1-12-2024,19-18-29,16,VR_target_stimuli/s52_0.75x_3.2_270_BC.png,125,0.75x,3.2,3.0,2250,125,meters,jsons/MX_seq11_0_VE125_flipped.json,288766,525097,34,Woman
16,634218,final-intermixed-textured,v2,jsons/MX_seq11_0_VE125_flipped.json,http://54.235.29.9/FacialAge/BNav_EC2/DepthDuration/MX_fS_VE_MTurk/MX_fS_HTML.html#53,53,1920,991,1920,1080,1-12-2024,19-18-29,17,catch_stimuli/c1_BC.png,125,,,0.0,3204,138,meters,jsons/MX_seq11_0_VE125_flipped.json,288766,525097,34,Woman
17,634218,final-intermixed-textured,v2,jsons/MX_seq11_0_VE125_flipped.json,http://54.235.29.9/FacialAge/BNav_EC2/DepthDuration/MX_fS_VE_MTurk/MX_fS_HTML.html#53,53,1920,991,1920,1080,1-12-2024,19-18-29,18,VR_target_stimuli/s32_0.75x_1.5_213.png,125,0.75x,1.5,0.0,3389,125,meters,jsons/MX_seq11_0_VE125_flipped.json,288766,525097,34,Woman
18,634218,final-intermixed-textured,v2,jsons/MX_seq11_0_VE125_flipped.json,http://54.235.29.9/FacialAge/BNav_EC2/DepthDuration/MX_fS_VE_MTurk/MX_fS_HTML.html#53,53,1920,991,1920,1080,1-12-2024,19-18-29,19,VR_target_stimuli/s18_1.3x_2.25_368.png,125,1.3x,2.25,0.0,3734,116,meters,jsons/MX_seq11_0_VE125_flipped.json,288766,525097,34,Woman
19,634218,final-intermixed-textured,v2,jsons/MX_seq11_0_VE125_flipped.json,http://54.235.29.9/FacialAge/BNav_EC2/DepthDuration/MX_fS_VE_MTurk/MX_fS_HTML.html#53,53,1920,991,1920,1080,1-12-2024,19-18-29,20,VR_target_stimuli/s39_1x_1_207_BC.png,125,1x,1.0,0.0,3617,125,meters,jsons/MX_seq11_0_VE125_flipped.json,288766,525097,34,Woman
20,634218,final-intermixed-textured,v2,jsons/MX_seq11_0_VE125_flipped.json,http://54.235.29.9/FacialAge/BNav_EC2/DepthDuration/MX_fS_VE_MTurk/MX_fS_HTML.html#53,53,1920,991,1920,1080,1-12-2024,19-18-29,21,VR_target_stimuli/s51_1.3x_3.64_479_BC.png,125,1.3x,3.64,0.0,3804,140,meters,jsons/MX_seq11_0_VE125_flipped.json,288766,525097,34,Woman
21,634218,final-intermixed-textured,v2,jsons/MX_seq11_0_VE125_flipped.json,http://54.235.29.9/FacialAge/BNav_EC2/DepthDuration/MX_fS_VE_MTurk/MX_fS_HTML.html#53,53,1920,991,1920,1080,1-12-2024,19-18-29,22,VR_target_stimuli/s43_0.75x_2.2_348_BC.png,125,0.75x,2.2,0.0,3244,124,meters,jsons/MX_seq11_0_VE125_flipped.json,288766,525097,34,Woman
22,634218,final-intermixed-textured,v2,jsons/MX_seq11_0_VE125_flipped.json,http://54.235.29.9/FacialAge/BNav_EC2/DepthDuration/MX_fS_VE_MTurk/MX_fS_HTML.html#53,53,1920,991,1920,1080,1-12-2024,19-18-29,23,VR_target_stimuli/s24_1x_3.3_349_BC.png,125,1x,3.3,0.0,5395,123,meters,jsons/MX_seq11_0_VE125_flipped.json,288766,525097,34,Woman
23,634218,final-intermixed-textured,v2,jsons/MX_seq11_0_VE125_flipped.json,http://54.235.29.9/FacialAge/BNav_EC2/DepthDuration/MX_fS_VE_MTurk/MX_fS_HTML.html#53,53,1920,991,1920,1080,1-12-2024,19-18-29,24,VR_target_stimuli/s10_0.75x_2.7_321.png,125,0.75x,2.7,0.0,30096,124,meters,jsons/MX_seq11_0_VE125_flipped.json,288766,525097,34,Woman
24,634218,final-intermixed-textured,v2,jsons/MX_seq11_0_VE125_flipped.json,http://54.235.29.9/FacialAge/BNav_EC2/DepthDuration/MX_fS_VE_MTurk/MX_fS_HTML.html#53,53,1920,991,1920,1080,1-12-2024,19-18-29,25,VR_target_stimuli/s36_1.3x_4.1_442.png,125,1.3x,4.1,0.0,5964,124,meters,jsons/MX_seq11_0_VE125_flipped.json,288766,525097,34,Woman
25,634218,final-intermixed-textured,v2,jsons/MX_seq11_0_VE125_flipped.json,http://54.235.29.9/FacialAge/BNav_EC2/DepthDuration/MX_fS_VE_MTurk/MX_fS_HTML.html#53,53,1920,991,1920,1080,1-12-2024,19-18-29,26,catch_stimuli/c2_BC.png,125,,,0.0,3933,122,meters,jsons/MX_seq11_0_VE125_flipped.json,288766,525097,34,Woman
26,634218,final-intermixed-textured,v2,jsons/MX_seq11_0_VE125_flipped.json,http://54.235.29.9/FacialAge/BNav_EC2/DepthDuration/MX_fS_VE_MTurk/MX_fS_HTML.html#53,53,1920,991,1920,1080,1-12-2024,19-18-29,27,VR_target_stimuli/s40_1x_1.2_319.png,125,1x,1.2,0.0,3518,126,meters,jsons/MX_seq11_0_VE125_flipped.json,288766,525097,34,Woman
27,634218,final-intermixed-textured,v2,jsons/MX_seq11_0_VE125_flipped.json,http://54.235.29.9/FacialAge/BNav_EC2/DepthDuration/MX_fS_VE_MTurk/MX_fS_HTML.html#53,53,1920,991,1920,1080,1-12-2024,19-18-29,28,VR_target_stimuli/s41_1x_2.1_286_BC.png,125,1x,2.1,0.0,14251,120,meters,jsons/MX_seq11_0_VE125_flipped.json,288766,525097,34,Woman
28,634218,final-intermixed-textured,v2,jsons/MX_seq11_0_VE125_flipped.json,http://54.235.29.9/FacialAge/BNav_EC2/DepthDuration/MX_fS_VE_MTurk/MX_fS_HTML.html#53,53,1920,991,1920,1080,1-12-2024,19-18-29,29,VR_target_stimuli/s45_0.75x_3.5_362_BC.png,125,0.75x,3.5,0.0,3209,123,meters,jsons/MX_seq11_0_VE125_flipped.json,288766,525097,34,Woman
29,634218,final-intermixed-textured,v2,jsons/MX_seq11_0_VE125_flipped.json,http://54.235.29.9/FacialAge/BNav_EC2/DepthDuration/MX_fS_VE_MTurk/MX_fS_HTML.html#53,53,1920,991,1920,1080,1-12-2024,19-18-29,30,VR_target_stimuli/s23_1.3x_3.65_354.png,125,1.3x,3.65,0.0,3312,122,meters,jsons/MX_seq11_0_VE125_flipped.json,288766,525097,34,Woman
30,634218,final-intermixed-textured,v2,jsons/MX_seq11_0_VE125_flipped.json,http://54.235.29.9/FacialAge/BNav_EC2/DepthDuration/MX_fS_VE_MTurk/MX_fS_HTML.html#53,53,1920,991,1920,1080,1-12-2024,19-18-29,31,VR_target_stimuli/s26_1x_4_433.png,125,1x,4.0,0.0,3019,123,meters,jsons/MX_seq11_0_VE125_flipped.json,288766,525097,34,Woman
31,634218,final-intermixed-textured,v2,jsons/MX_seq11_0_VE125_flipped.json,http://54.235.29.9/FacialAge/BNav_EC2/DepthDuration/MX_fS_VE_MTurk/MX_fS_HTML.html#53,53,1920,991,1920,1080,1-12-2024,19-18-29,32,VR_target_stimuli/s12_1.3x_3.1_375_BC.png,125,1.3x,3.1,0.0,3157,114,meters,jsons/MX_seq11_0_VE125_flipped.json,288766,525097,34,Woman
32,634218,final-intermixed-textured,v2,jsons/MX_seq11_0_VE125_flipped.json,http://54.235.29.9/FacialAge/BNav_EC2/DepthDuration/MX_fS_VE_MTurk/MX_fS_HTML.html#53,53,1920,991,1920,1080,1-12-2024,19-18-29,33,VR_target_stimuli/s30_0.75x_2.3_332.png,125,0.75x,2.3,0.0,2905,113,meters,jsons/MX_seq11_0_VE125_flipped.json,288766,525097,34,Woman
33,634218,final-intermixed-textured,v2,jsons/MX_seq11_0_VE125_flipped.json,http://54.235.29.9/FacialAge/BNav_EC2/DepthDuration/MX_fS_VE_MTurk/MX_fS_HTML.html#53,53,1920,991,1920,1080,1-12-2024,19-18-29,34,catch_stimuli/c3_BC.png,125,,,0.0,3390,122,meters,jsons/MX_seq11_0_VE125_flipped.json,288766,525097,34,Woman
34,634218,final-intermixed-textured,v2,jsons/MX_seq11_0_VE125_flipped.json,http://54.235.29.9/FacialAge/BNav_EC2/DepthDuration/MX_fS_VE_MTurk/MX_fS_HTML.html#53,53,1920,991,1920,1080,1-12-2024,19-18-29,35,VR_target_stimuli/s16_1.3x_1_223.png,125,1.3x,1.0,2.0,3045,124,meters,jsons/MX_seq11_0_VE125_flipped.json,288766,525097,34,Woman
35,634218,final-intermixed-textured,v2,jsons/MX_seq11_0_VE125_flipped.json,http://54.235.29.9/FacialAge/BNav_EC2/DepthDuration/MX_fS_VE_MTurk/MX_fS_HTML.html#53,53,1920,991,1920,1080,1-12-2024,19-18-29,36,VR_target_stimuli/s17_1x_1.8_291_BC.png,125,1x,1.8,0.0,2929,122,meters,jsons/MX_seq11_0_VE125_flipped.json,288766,525097,34,Woman
36,634218,final-intermixed-textured,v2,jsons/MX_seq11_0_VE125_flipped.json,http://54.235.29.9/FacialAge/BNav_EC2/DepthDuration/MX_fS_VE_MTurk/MX_fS_HTML.html#53,53,1920,991,1920,1080,1-12-2024,19-18-29,37,VR_target_stimuli/s5_0.75x_4_375.png,125,0.75x,4.0,0.0,2884,122,meters,jsons/MX_seq11_0_VE125_flipped.json,288766,525097,34,Woman
37,634218,final-intermixed-textured,v2,jsons/MX_seq11_0_VE125_flipped.json,http://54.235.29.9/FacialAge/BNav_EC2/DepthDuration/MX_fS_VE_MTurk/MX_fS_HTML.html#53,53,1920,991,1920,1080,1-12-2024,19-18-29,38,VR_target_stimuli/s37_0.75x_3.3_567_BC.png,125,0.75x,3.3,0.0,2656,110,meters,jsons/MX_seq11_0_VE125_flipped.json,288766,525097,34,Woman
38,634218,final-intermixed-textured,v2,jsons/MX_seq11_0_VE125_flipped.json,http://54.235.29.9/FacialAge/BNav_EC2/DepthDuration/MX_fS_VE_MTurk/MX_fS_HTML.html#53,53,1920,991,1920,1080,1-12-2024,19-18-29,39,VR_target_stimuli/s46_1.3x_2.42_354_BC.png,125,1.3x,2.42,2.0,2756,124,meters,jsons/MX_seq11_0_VE125_flipped.json,288766,525097,34,Woman
39,634218,final-intermixed-textured,v2,jsons/MX_seq11_0_VE125_flipped.json,http://54.235.29.9/FacialAge/BNav_EC2/DepthDuration/MX_fS_VE_MTurk/MX_fS_HTML.html#53,53,1920,991,1920,1080,1-12-2024,19-18-29,40,VR_target_stimuli/s22_1x_4.29_354.png,125,1x,4.29,3.0,2601,124,meters,jsons/MX_seq11_0_VE125_flipped.json,288766,525097,34,Woman
40,634218,final-intermixed-textured,v2,jsons/MX_seq11_0_VE125_flipped.json,http://54.235.29.9/FacialAge/BNav_EC2/DepthDuration/MX_fS_VE_MTurk/MX_fS_HTML.html#53,53,1920,991,1920,1080,1-12-2024,19-18-29,41,VR_target_stimuli/s42_1.3x_3.2_305.png,125,1.3x,3.2,0.0,3093,123,meters,jsons/MX_seq11_0_VE125_flipped.json,288766,525097,34,Woman
41,634218,final-intermixed-textured,v2,jsons/MX_seq11_0_VE125_flipped.json,http://54.235.29.9/FacialAge/BNav_EC2/DepthDuration/MX_fS_VE_MTurk/MX_fS_HTML.html#53,53,1920,991,1920,1080,1-12-2024,19-18-29,42,VR_target_stimuli/s25_0.75x_1.4_281_BC.png,125,0.75x,1.4,2.0,2706,121,meters,jsons/MX_seq11_0_VE125_flipped.json,288766,525097,34,Woman
42,634218,final-intermixed-textured,v2,jsons/MX_seq11_0_VE125_flipped.json,http://54.235.29.9/FacialAge/BNav_EC2/DepthDuration/MX_fS_VE_MTurk/MX_fS_HTML.html#53,53,1920,991,1920,1080,1-12-2024,19-18-29,43,VR_target_stimuli/s50_1x_4.53_518_BC.png,125,1x,4.53,0.0,2770,122,meters,jsons/MX_seq11_0_VE125_flipped.json,288766,525097,34,Woman
43,634218,final-intermixed-textured,v2,jsons/MX_seq11_0_VE125_flipped.json,http://54.235.29.9/FacialAge/BNav_EC2/DepthDuration/MX_fS_VE_MTurk/MX_fS_HTML.html#53,53,1920,991,1920,1080,1-12-2024,19-18-29,44,VR_target_stimuli/s53_0.75x_1.6_403.png,125,0.75x,1.6,1.5,4703,122,meters,jsons/MX_seq11_0_VE125_flipped.json,288766,525097,34,Woman
44,634218,final-intermixed-textured,v2,jsons/MX_seq11_0_VE125_flipped.json,http://54.235.29.9/FacialAge/BNav_EC2/DepthDuration/MX_fS_VE_MTurk/MX_fS_HTML.html#53,53,1920,991,1920,1080,1-12-2024,19-18-29,45,catch_stimuli/c4_BC.png,125,,,0.0,3851,123,meters,jsons/MX_seq11_0_VE125_flipped.json,288766,525097,34,Woman
45,634218,final-intermixed-textured,v2,jsons/MX_seq11_0_VE125_flipped.json,http://54.235.29.9/FacialAge/BNav_EC2/DepthDuration/MX_fS_VE_MTurk/MX_fS_HTML.html#53,53,1920,991,1920,1080,1-12-2024,19-18-29,46,VR_target_stimuli/s38_1.3x_3.55_358_BC.png,125,1.3x,3.55,0.0,3262,136,meters,jsons/MX_seq11_0_VE125_flipped.json,288766,525097,34,Woman
46,634218,final-intermixed-textured,v2,jsons/MX_seq11_0_VE125_flipped.json,http://54.235.29.9/FacialAge/BNav_EC2/DepthDuration/MX_fS_VE_MTurk/MX_fS_HTML.html#53,53,1920,991,1920,1080,1-12-2024,19-18-29,47,VR_target_stimuli/s9_1x_1.2_263.png,125,1x,1.2,0.0,2859,138,meters,jsons/MX_seq11_0_VE125_flipped.json,288766,525097,34,Woman
47,634218,final-intermixed-textured,v2,jsons/MX_seq11_0_VE125_flipped.json,http://54.235.29.9/FacialAge/BNav_EC2/DepthDuration/MX_fS_VE_MTurk/MX_fS_HTML.html#53,53,1920,991,1920,1080,1-12-2024,19-18-29,48,VR_target_stimuli/s44_1x_4.4_317.png,125,1x,4.4,0.0,2773,123,meters,jsons/MX_seq11_0_VE125_flipped.json,288766,525097,34,Woman
48,634218,final-intermixed-textured,v2,jsons/MX_seq11_0_VE125_flipped.json,http://54.235.29.9/FacialAge/BNav_EC2/DepthDuration/MX_fS_VE_MTurk/MX_fS_HTML.html#53,53,1920,991,1920,1080,1-12-2024,19-18-29,49,VR_target_stimuli/s3_0.75x_5_381_BC.png,125,0.75x,5.0,0.0,2780,126,meters,jsons/MX_seq11_0_VE125_flipped.json,288766,525097,34,Woman
49,634218,final-intermixed-textured,v2,jsons/MX_seq11_0_VE125_flipped.json,http://54.235.29.9/FacialAge/BNav_EC2/DepthDuration/MX_fS_VE_MTurk/MX_fS_HTML.html#53,53,1920,991,1920,1080,1-12-2024,19-18-29,50,VR_target_stimuli/s1_1.3x_1.7_261.png,125,1.3x,1.7,2.0,2630,125,meters,jsons/MX_seq11_0_VE125_flipped.json,288766,525097,34,Woman
50,634218,final-intermixed-textured,v2,jsons/MX_seq11_0_VE125_flipped.json,http://54.235.29.9/FacialAge/BNav_EC2/DepthDuration/MX_fS_VE_MTurk/MX_fS_HTML.html#53,53,1920,991,1920,1080,1-12-2024,19-18-29,51,VR_target_stimuli/s11_0.75x_5_359.png,125,0.75x,5.0,0.0,3256,124,meters,jsons/MX_seq11_0_VE125_flipped.json,288766,525097,34,Woman
51,634218,final-intermixed-textured,v2,jsons/MX_seq11_0_VE125_flipped.json,http://54.235.29.9/FacialAge/BNav_EC2/DepthDuration/MX_fS_VE_MTurk/MX_fS_HTML.html#53,53,1920,991,1920,1080,1-12-2024,19-18-29,52,VR_target_stimuli/s2_1x_2.7_390_BC.png,125,1x,2.7,0.0,2729,122,meters,jsons/MX_seq11_0_VE125_flipped.json,288766,525097,34,Woman
52,634218,final-intermixed-textured,v2,jsons/MX_seq11_0_VE125_flipped.json,http://54.235.29.9/FacialAge/BNav_EC2/DepthDuration/MX_fS_VE_MTurk/MX_fS_HTML.html#53,53,1920,991,1920,1080,1-12-2024,19-18-29,53,catch_stimuli/c5_BC.png,125,,,0.0,3061,123,meters,jsons/MX_seq11_0_VE125_flipped.json,288766,525097,34,Woman
53,634218,final-intermixed-textured,v2,jsons/MX_seq11_0_VE125_flipped.json,http://54.235.29.9/FacialAge/BNav_EC2/DepthDuration/MX_fS_VE_MTurk/MX_fS_HTML.html#53,53,1920,991,1920,1080,1-12-2024,19-18-29,54,VR_target_stimuli/s6_1.3x_2.1_298_BC.png,125,1.3x,2.1,0.0,2602,123,meters,jsons/MX_seq11_0_VE125_flipped.json,288766,525097,34,Woman
54,634218,final-intermixed-textured,v2,jsons/MX_seq11_0_VE125_flipped.json,http://54.235.29.9/FacialAge/BNav_EC2/DepthDuration/MX_fS_VE_MTurk/MX_fS_HTML.html#53,53,1920,991,1920,1080,1-12-2024,19-18-29,55,VR_target_stimuli/s0_1x_2.6_351.png,125,1x,2.6,3.0,3006,123,meters,jsons/MX_seq11_0_VE125_flipped.json,288766,525097,34,Woman
55,634218,final-intermixed-textured,v2,jsons/MX_seq11_0_VE125_flipped.json,http://54.235.29.9/FacialAge/BNav_EC2/DepthDuration/MX_fS_VE_MTurk/MX_fS_HTML.html#53,53,1920,991,1920,1080,1-12-2024,19-18-29,56,VR_target_stimuli/s34_0.75x_2.8_269_BC.png,125,0.75x,2.8,0.0,2738,123,meters,jsons/MX_seq11_0_VE125_flipped.json,288766,525097,34,Woman
56,634218,final-intermixed-textured,v2,jsons/MX_seq11_0_VE125_flipped.json,http://54.235.29.9/FacialAge/BNav_EC2/DepthDuration/MX_fS_VE_MTurk/MX_fS_HTML.html#53,53,1920,991,1920,1080,1-12-2024,19-18-29,57,VR_target_stimuli/s13_1.3x_2.4_313_BC.png,125,1.3x,2.4,0.0,3009,123,meters,jsons/MX_seq11_0_VE125_flipped.json,288766,525097,34,Woman
57,634218,final-intermixed-textured,v2,jsons/MX_seq11_0_VE125_flipped.json,http://54.235.29.9/FacialAge/BNav_EC2/DepthDuration/MX_fS_VE_MTurk/MX_fS_HTML.html#53,53,1920,991,1920,1080,1-12-2024,19-18-29,58,VR_target_stimuli/s14_1.3x_3.83_359.png,125,1.3x,3.83,0.0,4120,120,meters,jsons/MX_seq11_0_VE125_flipped.json,288766,525097,34,Woman
58,634218,final-intermixed-textured,v2,jsons/MX_seq11_0_VE125_flipped.json,http://54.235.29.9/FacialAge/BNav_EC2/DepthDuration/MX_fS_VE_MTurk/MX_fS_HTML.html#53,53,1920,991,1920,1080,1-12-2024,19-18-29,59,VR_target_stimuli/s47_1x_3.45_370_BC.png,125,1x,3.45,2.0,2581,123,meters,jsons/MX_seq11_0_VE125_flipped.json,288766,525097,34,Woman
59,634218,final-intermixed-textured,v2,jsons/MX_seq11_0_VE125_flipped.json,http://54.235.29.9/FacialAge/BNav_EC2/DepthDuration/MX_fS_VE_MTurk/MX_fS_HTML.html#53,53,1920,991,1920,1080,1-12-2024,19-18-29,60,VR_target_stimuli/s29_0.75x_1.3_246.png,125,0.75x,1.3,1.5,3387,123,meters,jsons/MX_seq11_0_VE125_flipped.json,288766,525097,34,Woman
