,subjID,experimentName,versionName,sequenceName,url,selected_row,windowWidth,windowHeight,screenWidth,screenHeight,startDate,startTime,trial,stimulus,duration,scale,actual_depth,depth_estimate,trial_RT,log_sceneDuration,unitSelection,seq_filepath,experimentTime,totalTime,age,gender
0,636025,final-intermixed-textured,v2,jsons/MX_seq24_1_VE125_flipped.json,http://54.235.29.9/FacialAge/BNav_EC2/DepthDuration/MX_fS_VE_MTurk/MX_fS_HTML.html#137,137,1280,598,1280,720,1-12-2024,14-47-2,1,VR_target_stimuli/s33_1.3x_3.1_378_BC.png,125,1.3x,3.1,3,4601,118,meters,jsons/MX_seq24_1_VE125_flipped.json,246210,588322,21,Woman
1,636025,final-intermixed-textured,v2,jsons/MX_seq24_1_VE125_flipped.json,http://54.235.29.9/FacialAge/BNav_EC2/DepthDuration/MX_fS_VE_MTurk/MX_fS_HTML.html#137,137,1280,598,1280,720,1-12-2024,14-47-2,2,VR_target_stimuli/s52_0.75x_3.2_270.png,125,0.75x,3.2,4,4191,118,meters,jsons/MX_seq24_1_VE125_flipped.json,246210,588322,21,Woman
2,636025,final-intermixed-textured,v2,jsons/MX_seq24_1_VE125_flipped.json,http://54.235.29.9/FacialAge/BNav_EC2/DepthDuration/MX_fS_VE_MTurk/MX_fS_HTML.html#137,137,1280,598,1280,720,1-12-2024,14-47-2,3,VR_target_stimuli/s32_1x_1.5_218_BC.png,125,1x,1.5,3,4071,116,meters,jsons/MX_seq24_1_VE125_flipped.json,246210,588322,21,Woman
3,636025,final-intermixed-textured,v2,jsons/MX_seq24_1_VE125_flipped.json,http://54.235.29.9/FacialAge/BNav_EC2/DepthDuration/MX_fS_VE_MTurk/MX_fS_HTML.html#137,137,1280,598,1280,720,1-12-2024,14-47-2,4,VR_target_stimuli/s18_0.75x_2.25_341_BC.png,125,0.75x,2.25,2,4904,117,meters,jsons/MX_seq24_1_VE125_flipped.json,246210,588322,21,Woman
4,636025,final-intermixed-textured,v2,jsons/MX_seq24_1_VE125_flipped.json,http://54.235.29.9/FacialAge/BNav_EC2/DepthDuration/MX_fS_VE_MTurk/MX_fS_HTML.html#137,137,1280,598,1280,720,1-12-2024,14-47-2,5,VR_target_stimuli/s39_1.3x_1_208.png,125,1.3x,1.0,1,3040,117,meters,jsons/MX_seq24_1_VE125_flipped.json,246210,588322,21,Woman
5,636025,final-intermixed-textured,v2,jsons/MX_seq24_1_VE125_flipped.json,http://54.235.29.9/FacialAge/BNav_EC2/DepthDuration/MX_fS_VE_MTurk/MX_fS_HTML.html#137,137,1280,598,1280,720,1-12-2024,14-47-2,6,VR_target_stimuli/s51_1x_3.64_461.png,125,1x,3.64,2,3450,116,meters,jsons/MX_seq24_1_VE125_flipped.json,246210,588322,21,Woman
6,636025,final-intermixed-textured,v2,jsons/MX_seq24_1_VE125_flipped.json,http://54.235.29.9/FacialAge/BNav_EC2/DepthDuration/MX_fS_VE_MTurk/MX_fS_HTML.html#137,137,1280,598,1280,720,1-12-2024,14-47-2,7,catch_stimuli/c0_BC.png,125,,,0,4895,122,meters,jsons/MX_seq24_1_VE125_flipped.json,246210,588322,21,Woman
7,636025,final-intermixed-textured,v2,jsons/MX_seq24_1_VE125_flipped.json,http://54.235.29.9/FacialAge/BNav_EC2/DepthDuration/MX_fS_VE_MTurk/MX_fS_HTML.html#137,137,1280,598,1280,720,1-12-2024,14-47-2,8,VR_target_stimuli/s43_1x_2.2_354_BC.png,125,1x,2.2,2,5344,117,meters,jsons/MX_seq24_1_VE125_flipped.json,246210,588322,21,Woman
8,636025,final-intermixed-textured,v2,jsons/MX_seq24_1_VE125_flipped.json,http://54.235.29.9/FacialAge/BNav_EC2/DepthDuration/MX_fS_VE_MTurk/MX_fS_HTML.html#137,137,1280,598,1280,720,1-12-2024,14-47-2,9,VR_target_stimuli/s24_0.75x_3.3_344.png,125,0.75x,3.3,3,3280,128,meters,jsons/MX_seq24_1_VE125_flipped.json,246210,588322,21,Woman
9,636025,final-intermixed-textured,v2,jsons/MX_seq24_1_VE125_flipped.json,http://54.235.29.9/FacialAge/BNav_EC2/DepthDuration/MX_fS_VE_MTurk/MX_fS_HTML.html#137,137,1280,598,1280,720,1-12-2024,14-47-2,10,VR_target_stimuli/s10_1.3x_2.7_325.png,125,1.3x,2.7,3,3025,133,meters,jsons/MX_seq24_1_VE125_flipped.json,246210,588322,21,Woman
10,636025,final-intermixed-textured,v2,jsons/MX_seq24_1_VE125_flipped.json,http://54.235.29.9/FacialAge/BNav_EC2/DepthDuration/MX_fS_VE_MTurk/MX_fS_HTML.html#137,137,1280,598,1280,720,1-12-2024,14-47-2,11,VR_target_stimuli/s36_0.75x_4.1_407_BC.png,125,0.75x,4.1,4,3480,127,meters,jsons/MX_seq24_1_VE125_flipped.json,246210,588322,21,Woman
11,636025,final-intermixed-textured,v2,jsons/MX_seq24_1_VE125_flipped.json,http://54.235.29.9/FacialAge/BNav_EC2/DepthDuration/MX_fS_VE_MTurk/MX_fS_HTML.html#137,137,1280,598,1280,720,1-12-2024,14-47-2,12,VR_target_stimuli/s40_1x_1.2_319.png,125,1x,1.2,2,3665,130,meters,jsons/MX_seq24_1_VE125_flipped.json,246210,588322,21,Woman
12,636025,final-intermixed-textured,v2,jsons/MX_seq24_1_VE125_flipped.json,http://54.235.29.9/FacialAge/BNav_EC2/DepthDuration/MX_fS_VE_MTurk/MX_fS_HTML.html#137,137,1280,598,1280,720,1-12-2024,14-47-2,13,VR_target_stimuli/s41_1.3x_2.1_294_BC.png,125,1.3x,2.1,2,3107,132,meters,jsons/MX_seq24_1_VE125_flipped.json,246210,588322,21,Woman
13,636025,final-intermixed-textured,v2,jsons/MX_seq24_1_VE125_flipped.json,http://54.235.29.9/FacialAge/BNav_EC2/DepthDuration/MX_fS_VE_MTurk/MX_fS_HTML.html#137,137,1280,598,1280,720,1-12-2024,14-47-2,14,VR_target_stimuli/s45_1x_3.5_368_BC.png,125,1x,3.5,2,3446,116,meters,jsons/MX_seq24_1_VE125_flipped.json,246210,588322,21,Woman
14,636025,final-intermixed-textured,v2,jsons/MX_seq24_1_VE125_flipped.json,http://54.235.29.9/FacialAge/BNav_EC2/DepthDuration/MX_fS_VE_MTurk/MX_fS_HTML.html#137,137,1280,598,1280,720,1-12-2024,14-47-2,15,VR_target_stimuli/s23_0.75x_3.65_351.png,125,0.75x,3.65,4,3829,133,meters,jsons/MX_seq24_1_VE125_flipped.json,246210,588322,21,Woman
15,636025,final-intermixed-textured,v2,jsons/MX_seq24_1_VE125_flipped.json,http://54.235.29.9/FacialAge/BNav_EC2/DepthDuration/MX_fS_VE_MTurk/MX_fS_HTML.html#137,137,1280,598,1280,720,1-12-2024,14-47-2,16,VR_target_stimuli/s26_1.3x_4_441.png,125,1.3x,4.0,3,3487,136,meters,jsons/MX_seq24_1_VE125_flipped.json,246210,588322,21,Woman
16,636025,final-intermixed-textured,v2,jsons/MX_seq24_1_VE125_flipped.json,http://54.235.29.9/FacialAge/BNav_EC2/DepthDuration/MX_fS_VE_MTurk/MX_fS_HTML.html#137,137,1280,598,1280,720,1-12-2024,14-47-2,17,catch_stimuli/c1_BC.png,125,,,0,3263,118,meters,jsons/MX_seq24_1_VE125_flipped.json,246210,588322,21,Woman
17,636025,final-intermixed-textured,v2,jsons/MX_seq24_1_VE125_flipped.json,http://54.235.29.9/FacialAge/BNav_EC2/DepthDuration/MX_fS_VE_MTurk/MX_fS_HTML.html#137,137,1280,598,1280,720,1-12-2024,14-47-2,18,VR_target_stimuli/s12_1.3x_3.1_375_BC.png,125,1.3x,3.1,2,4088,131,meters,jsons/MX_seq24_1_VE125_flipped.json,246210,588322,21,Woman
18,636025,final-intermixed-textured,v2,jsons/MX_seq24_1_VE125_flipped.json,http://54.235.29.9/FacialAge/BNav_EC2/DepthDuration/MX_fS_VE_MTurk/MX_fS_HTML.html#137,137,1280,598,1280,720,1-12-2024,14-47-2,19,VR_target_stimuli/s30_1x_2.3_334.png,125,1x,2.3,2,2894,115,meters,jsons/MX_seq24_1_VE125_flipped.json,246210,588322,21,Woman
19,636025,final-intermixed-textured,v2,jsons/MX_seq24_1_VE125_flipped.json,http://54.235.29.9/FacialAge/BNav_EC2/DepthDuration/MX_fS_VE_MTurk/MX_fS_HTML.html#137,137,1280,598,1280,720,1-12-2024,14-47-2,20,VR_target_stimuli/s16_0.75x_1_217_BC.png,125,0.75x,1.0,1,2833,126,meters,jsons/MX_seq24_1_VE125_flipped.json,246210,588322,21,Woman
20,636025,final-intermixed-textured,v2,jsons/MX_seq24_1_VE125_flipped.json,http://54.235.29.9/FacialAge/BNav_EC2/DepthDuration/MX_fS_VE_MTurk/MX_fS_HTML.html#137,137,1280,598,1280,720,1-12-2024,14-47-2,21,VR_target_stimuli/s17_1x_1.8_291_BC.png,125,1x,1.8,2,2744,124,meters,jsons/MX_seq24_1_VE125_flipped.json,246210,588322,21,Woman
21,636025,final-intermixed-textured,v2,jsons/MX_seq24_1_VE125_flipped.json,http://54.235.29.9/FacialAge/BNav_EC2/DepthDuration/MX_fS_VE_MTurk/MX_fS_HTML.html#137,137,1280,598,1280,720,1-12-2024,14-47-2,22,VR_target_stimuli/s5_1.3x_4_393.png,125,1.3x,4.0,2,3724,117,meters,jsons/MX_seq24_1_VE125_flipped.json,246210,588322,21,Woman
22,636025,final-intermixed-textured,v2,jsons/MX_seq24_1_VE125_flipped.json,http://54.235.29.9/FacialAge/BNav_EC2/DepthDuration/MX_fS_VE_MTurk/MX_fS_HTML.html#137,137,1280,598,1280,720,1-12-2024,14-47-2,23,VR_target_stimuli/s37_0.75x_3.3_567_BC.png,125,0.75x,3.3,4,3809,117,meters,jsons/MX_seq24_1_VE125_flipped.json,246210,588322,21,Woman
23,636025,final-intermixed-textured,v2,jsons/MX_seq24_1_VE125_flipped.json,http://54.235.29.9/FacialAge/BNav_EC2/DepthDuration/MX_fS_VE_MTurk/MX_fS_HTML.html#137,137,1280,598,1280,720,1-12-2024,14-47-2,24,VR_target_stimuli/s46_1.3x_2.42_354_BC.png,125,1.3x,2.42,3,3501,128,meters,jsons/MX_seq24_1_VE125_flipped.json,246210,588322,21,Woman
24,636025,final-intermixed-textured,v2,jsons/MX_seq24_1_VE125_flipped.json,http://54.235.29.9/FacialAge/BNav_EC2/DepthDuration/MX_fS_VE_MTurk/MX_fS_HTML.html#137,137,1280,598,1280,720,1-12-2024,14-47-2,25,VR_target_stimuli/s22_1x_4.29_354.png,125,1x,4.29,4,3676,122,meters,jsons/MX_seq24_1_VE125_flipped.json,246210,588322,21,Woman
25,636025,final-intermixed-textured,v2,jsons/MX_seq24_1_VE125_flipped.json,http://54.235.29.9/FacialAge/BNav_EC2/DepthDuration/MX_fS_VE_MTurk/MX_fS_HTML.html#137,137,1280,598,1280,720,1-12-2024,14-47-2,26,catch_stimuli/c2_BC.png,125,,,0,3225,122,meters,jsons/MX_seq24_1_VE125_flipped.json,246210,588322,21,Woman
26,636025,final-intermixed-textured,v2,jsons/MX_seq24_1_VE125_flipped.json,http://54.235.29.9/FacialAge/BNav_EC2/DepthDuration/MX_fS_VE_MTurk/MX_fS_HTML.html#137,137,1280,598,1280,720,1-12-2024,14-47-2,27,VR_target_stimuli/s42_0.75x_3.2_301.png,125,0.75x,3.2,4,4685,122,meters,jsons/MX_seq24_1_VE125_flipped.json,246210,588322,21,Woman
27,636025,final-intermixed-textured,v2,jsons/MX_seq24_1_VE125_flipped.json,http://54.235.29.9/FacialAge/BNav_EC2/DepthDuration/MX_fS_VE_MTurk/MX_fS_HTML.html#137,137,1280,598,1280,720,1-12-2024,14-47-2,28,VR_target_stimuli/s25_0.75x_1.4_281_BC.png,125,0.75x,1.4,2,3430,130,meters,jsons/MX_seq24_1_VE125_flipped.json,246210,588322,21,Woman
28,636025,final-intermixed-textured,v2,jsons/MX_seq24_1_VE125_flipped.json,http://54.235.29.9/FacialAge/BNav_EC2/DepthDuration/MX_fS_VE_MTurk/MX_fS_HTML.html#137,137,1280,598,1280,720,1-12-2024,14-47-2,29,VR_target_stimuli/s50_1.3x_4.53_518_BC.png,125,1.3x,4.53,3,2789,131,meters,jsons/MX_seq24_1_VE125_flipped.json,246210,588322,21,Woman
29,636025,final-intermixed-textured,v2,jsons/MX_seq24_1_VE125_flipped.json,http://54.235.29.9/FacialAge/BNav_EC2/DepthDuration/MX_fS_VE_MTurk/MX_fS_HTML.html#137,137,1280,598,1280,720,1-12-2024,14-47-2,30,VR_target_stimuli/s53_1x_1.6_387_BC.png,125,1x,1.6,2,2718,116,meters,jsons/MX_seq24_1_VE125_flipped.json,246210,588322,21,Woman
30,636025,final-intermixed-textured,v2,jsons/MX_seq24_1_VE125_flipped.json,http://54.235.29.9/FacialAge/BNav_EC2/DepthDuration/MX_fS_VE_MTurk/MX_fS_HTML.html#137,137,1280,598,1280,720,1-12-2024,14-47-2,31,VR_target_stimuli/s38_0.75x_3.55_346.png,125,0.75x,3.55,4,3563,121,meters,jsons/MX_seq24_1_VE125_flipped.json,246210,588322,21,Woman
31,636025,final-intermixed-textured,v2,jsons/MX_seq24_1_VE125_flipped.json,http://54.235.29.9/FacialAge/BNav_EC2/DepthDuration/MX_fS_VE_MTurk/MX_fS_HTML.html#137,137,1280,598,1280,720,1-12-2024,14-47-2,32,VR_target_stimuli/s9_1x_1.2_263.png,125,1x,1.2,1,4208,118,meters,jsons/MX_seq24_1_VE125_flipped.json,246210,588322,21,Woman
32,636025,final-intermixed-textured,v2,jsons/MX_seq24_1_VE125_flipped.json,http://54.235.29.9/FacialAge/BNav_EC2/DepthDuration/MX_fS_VE_MTurk/MX_fS_HTML.html#137,137,1280,598,1280,720,1-12-2024,14-47-2,33,VR_target_stimuli/s44_1.3x_4.4_325.png,125,1.3x,4.4,2,2698,129,meters,jsons/MX_seq24_1_VE125_flipped.json,246210,588322,21,Woman
33,636025,final-intermixed-textured,v2,jsons/MX_seq24_1_VE125_flipped.json,http://54.235.29.9/FacialAge/BNav_EC2/DepthDuration/MX_fS_VE_MTurk/MX_fS_HTML.html#137,137,1280,598,1280,720,1-12-2024,14-47-2,34,catch_stimuli/c3_BC.png,125,,,0,2925,129,meters,jsons/MX_seq24_1_VE125_flipped.json,246210,588322,21,Woman
34,636025,final-intermixed-textured,v2,jsons/MX_seq24_1_VE125_flipped.json,http://54.235.29.9/FacialAge/BNav_EC2/DepthDuration/MX_fS_VE_MTurk/MX_fS_HTML.html#137,137,1280,598,1280,720,1-12-2024,14-47-2,35,VR_target_stimuli/s3_1x_5_385.png,125,1x,5.0,2,3783,129,meters,jsons/MX_seq24_1_VE125_flipped.json,246210,588322,21,Woman
35,636025,final-intermixed-textured,v2,jsons/MX_seq24_1_VE125_flipped.json,http://54.235.29.9/FacialAge/BNav_EC2/DepthDuration/MX_fS_VE_MTurk/MX_fS_HTML.html#137,137,1280,598,1280,720,1-12-2024,14-47-2,36,VR_target_stimuli/s1_0.75x_1.7_265.png,125,0.75x,1.7,2,2448,133,meters,jsons/MX_seq24_1_VE125_flipped.json,246210,588322,21,Woman
36,636025,final-intermixed-textured,v2,jsons/MX_seq24_1_VE125_flipped.json,http://54.235.29.9/FacialAge/BNav_EC2/DepthDuration/MX_fS_VE_MTurk/MX_fS_HTML.html#137,137,1280,598,1280,720,1-12-2024,14-47-2,37,VR_target_stimuli/s11_1.3x_5_363.png,125,1.3x,5.0,3,2858,133,meters,jsons/MX_seq24_1_VE125_flipped.json,246210,588322,21,Woman
37,636025,final-intermixed-textured,v2,jsons/MX_seq24_1_VE125_flipped.json,http://54.235.29.9/FacialAge/BNav_EC2/DepthDuration/MX_fS_VE_MTurk/MX_fS_HTML.html#137,137,1280,598,1280,720,1-12-2024,14-47-2,38,VR_target_stimuli/s2_1.3x_2.7_397_BC.png,125,1.3x,2.7,2,3660,129,meters,jsons/MX_seq24_1_VE125_flipped.json,246210,588322,21,Woman
38,636025,final-intermixed-textured,v2,jsons/MX_seq24_1_VE125_flipped.json,http://54.235.29.9/FacialAge/BNav_EC2/DepthDuration/MX_fS_VE_MTurk/MX_fS_HTML.html#137,137,1280,598,1280,720,1-12-2024,14-47-2,39,VR_target_stimuli/s6_1x_2.1_293_BC.png,125,1x,2.1,2,2960,125,meters,jsons/MX_seq24_1_VE125_flipped.json,246210,588322,21,Woman
39,636025,final-intermixed-textured,v2,jsons/MX_seq24_1_VE125_flipped.json,http://54.235.29.9/FacialAge/BNav_EC2/DepthDuration/MX_fS_VE_MTurk/MX_fS_HTML.html#137,137,1280,598,1280,720,1-12-2024,14-47-2,40,VR_target_stimuli/s0_0.75x_2.6_345_BC.png,125,0.75x,2.6,2,2700,130,meters,jsons/MX_seq24_1_VE125_flipped.json,246210,588322,21,Woman
40,636025,final-intermixed-textured,v2,jsons/MX_seq24_1_VE125_flipped.json,http://54.235.29.9/FacialAge/BNav_EC2/DepthDuration/MX_fS_VE_MTurk/MX_fS_HTML.html#137,137,1280,598,1280,720,1-12-2024,14-47-2,41,VR_target_stimuli/s34_1x_2.8_283.png,125,1x,2.8,2,4241,123,meters,jsons/MX_seq24_1_VE125_flipped.json,246210,588322,21,Woman
41,636025,final-intermixed-textured,v2,jsons/MX_seq24_1_VE125_flipped.json,http://54.235.29.9/FacialAge/BNav_EC2/DepthDuration/MX_fS_VE_MTurk/MX_fS_HTML.html#137,137,1280,598,1280,720,1-12-2024,14-47-2,42,VR_target_stimuli/s13_1.3x_2.4_313_BC.png,125,1.3x,2.4,2,5729,122,meters,jsons/MX_seq24_1_VE125_flipped.json,246210,588322,21,Woman
42,636025,final-intermixed-textured,v2,jsons/MX_seq24_1_VE125_flipped.json,http://54.235.29.9/FacialAge/BNav_EC2/DepthDuration/MX_fS_VE_MTurk/MX_fS_HTML.html#137,137,1280,598,1280,720,1-12-2024,14-47-2,43,VR_target_stimuli/s14_0.75x_3.83_355_BC.png,125,0.75x,3.83,3,3291,117,meters,jsons/MX_seq24_1_VE125_flipped.json,246210,588322,21,Woman
43,636025,final-intermixed-textured,v2,jsons/MX_seq24_1_VE125_flipped.json,http://54.235.29.9/FacialAge/BNav_EC2/DepthDuration/MX_fS_VE_MTurk/MX_fS_HTML.html#137,137,1280,598,1280,720,1-12-2024,14-47-2,44,VR_target_stimuli/s47_1.3x_3.45_373.png,125,1.3x,3.45,3,3382,117,meters,jsons/MX_seq24_1_VE125_flipped.json,246210,588322,21,Woman
44,636025,final-intermixed-textured,v2,jsons/MX_seq24_1_VE125_flipped.json,http://54.235.29.9/FacialAge/BNav_EC2/DepthDuration/MX_fS_VE_MTurk/MX_fS_HTML.html#137,137,1280,598,1280,720,1-12-2024,14-47-2,45,catch_stimuli/c4_BC.png,125,,,0,2990,130,meters,jsons/MX_seq24_1_VE125_flipped.json,246210,588322,21,Woman
45,636025,final-intermixed-textured,v2,jsons/MX_seq24_1_VE125_flipped.json,http://54.235.29.9/FacialAge/BNav_EC2/DepthDuration/MX_fS_VE_MTurk/MX_fS_HTML.html#137,137,1280,598,1280,720,1-12-2024,14-47-2,46,VR_target_stimuli/s29_1x_1.3_250_BC.png,125,1x,1.3,1,2729,117,meters,jsons/MX_seq24_1_VE125_flipped.json,246210,588322,21,Woman
46,636025,final-intermixed-textured,v2,jsons/MX_seq24_1_VE125_flipped.json,http://54.235.29.9/FacialAge/BNav_EC2/DepthDuration/MX_fS_VE_MTurk/MX_fS_HTML.html#137,137,1280,598,1280,720,1-12-2024,14-47-2,47,VR_target_stimuli/s28_0.75x_3.2_357.png,125,0.75x,3.2,2,2896,133,meters,jsons/MX_seq24_1_VE125_flipped.json,246210,588322,21,Woman
47,636025,final-intermixed-textured,v2,jsons/MX_seq24_1_VE125_flipped.json,http://54.235.29.9/FacialAge/BNav_EC2/DepthDuration/MX_fS_VE_MTurk/MX_fS_HTML.html#137,137,1280,598,1280,720,1-12-2024,14-47-2,48,VR_target_stimuli/s48_0.75x_2.55_243_BC.png,125,0.75x,2.55,2,2779,129,meters,jsons/MX_seq24_1_VE125_flipped.json,246210,588322,21,Woman
48,636025,final-intermixed-textured,v2,jsons/MX_seq24_1_VE125_flipped.json,http://54.235.29.9/FacialAge/BNav_EC2/DepthDuration/MX_fS_VE_MTurk/MX_fS_HTML.html#137,137,1280,598,1280,720,1-12-2024,14-47-2,49,VR_target_stimuli/s19_1.3x_1.21_270.png,125,1.3x,1.21,1,2566,123,meters,jsons/MX_seq24_1_VE125_flipped.json,246210,588322,21,Woman
49,636025,final-intermixed-textured,v2,jsons/MX_seq24_1_VE125_flipped.json,http://54.235.29.9/FacialAge/BNav_EC2/DepthDuration/MX_fS_VE_MTurk/MX_fS_HTML.html#137,137,1280,598,1280,720,1-12-2024,14-47-2,50,VR_target_stimuli/s21_1x_4.22_379_BC.png,125,1x,4.22,3,3490,131,meters,jsons/MX_seq24_1_VE125_flipped.json,246210,588322,21,Woman
50,636025,final-intermixed-textured,v2,jsons/MX_seq24_1_VE125_flipped.json,http://54.235.29.9/FacialAge/BNav_EC2/DepthDuration/MX_fS_VE_MTurk/MX_fS_HTML.html#137,137,1280,598,1280,720,1-12-2024,14-47-2,51,VR_target_stimuli/s8_1.3x_3.1_345_BC.png,125,1.3x,3.1,2,2690,119,meters,jsons/MX_seq24_1_VE125_flipped.json,246210,588322,21,Woman
51,636025,final-intermixed-textured,v2,jsons/MX_seq24_1_VE125_flipped.json,http://54.235.29.9/FacialAge/BNav_EC2/DepthDuration/MX_fS_VE_MTurk/MX_fS_HTML.html#137,137,1280,598,1280,720,1-12-2024,14-47-2,52,VR_target_stimuli/s27_0.75x_1.76_243.png,125,0.75x,1.76,2,3248,116,meters,jsons/MX_seq24_1_VE125_flipped.json,246210,588322,21,Woman
52,636025,final-intermixed-textured,v2,jsons/MX_seq24_1_VE125_flipped.json,http://54.235.29.9/FacialAge/BNav_EC2/DepthDuration/MX_fS_VE_MTurk/MX_fS_HTML.html#137,137,1280,598,1280,720,1-12-2024,14-47-2,53,catch_stimuli/c5_BC.png,125,,,0,3580,130,meters,jsons/MX_seq24_1_VE125_flipped.json,246210,588322,21,Woman
53,636025,final-intermixed-textured,v2,jsons/MX_seq24_1_VE125_flipped.json,http://54.235.29.9/FacialAge/BNav_EC2/DepthDuration/MX_fS_VE_MTurk/MX_fS_HTML.html#137,137,1280,598,1280,720,1-12-2024,14-47-2,54,VR_target_stimuli/s15_1x_4.2_390.png,125,1x,4.2,3,12449,130,meters,jsons/MX_seq24_1_VE125_flipped.json,246210,588322,21,Woman
54,636025,final-intermixed-textured,v2,jsons/MX_seq24_1_VE125_flipped.json,http://54.235.29.9/FacialAge/BNav_EC2/DepthDuration/MX_fS_VE_MTurk/MX_fS_HTML.html#137,137,1280,598,1280,720,1-12-2024,14-47-2,55,VR_target_stimuli/s4_0.75x_1.4_301_BC.png,125,0.75x,1.4,1,4076,122,meters,jsons/MX_seq24_1_VE125_flipped.json,246210,588322,21,Woman
55,636025,final-intermixed-textured,v2,jsons/MX_seq24_1_VE125_flipped.json,http://54.235.29.9/FacialAge/BNav_EC2/DepthDuration/MX_fS_VE_MTurk/MX_fS_HTML.html#137,137,1280,598,1280,720,1-12-2024,14-47-2,56,VR_target_stimuli/s35_1.3x_2_338_BC.png,125,1.3x,2.0,1,3771,117,meters,jsons/MX_seq24_1_VE125_flipped.json,246210,588322,21,Woman
56,636025,final-intermixed-textured,v2,jsons/MX_seq24_1_VE125_flipped.json,http://54.235.29.9/FacialAge/BNav_EC2/DepthDuration/MX_fS_VE_MTurk/MX_fS_HTML.html#137,137,1280,598,1280,720,1-12-2024,14-47-2,57,VR_target_stimuli/s49_1x_4.67_341.png,125,1x,4.67,2,2906,118,meters,jsons/MX_seq24_1_VE125_flipped.json,246210,588322,21,Woman
57,636025,final-intermixed-textured,v2,jsons/MX_seq24_1_VE125_flipped.json,http://54.235.29.9/FacialAge/BNav_EC2/DepthDuration/MX_fS_VE_MTurk/MX_fS_HTML.html#137,137,1280,598,1280,720,1-12-2024,14-47-2,58,VR_target_stimuli/s7_1x_1.5_255_BC.png,125,1x,1.5,1,2733,118,meters,jsons/MX_seq24_1_VE125_flipped.json,246210,588322,21,Woman
58,636025,final-intermixed-textured,v2,jsons/MX_seq24_1_VE125_flipped.json,http://54.235.29.9/FacialAge/BNav_EC2/DepthDuration/MX_fS_VE_MTurk/MX_fS_HTML.html#137,137,1280,598,1280,720,1-12-2024,14-47-2,59,VR_target_stimuli/s20_0.75x_4.99_390.png,125,0.75x,4.99,3,2539,133,meters,jsons/MX_seq24_1_VE125_flipped.json,246210,588322,21,Woman
59,636025,final-intermixed-textured,v2,jsons/MX_seq24_1_VE125_flipped.json,http://54.235.29.9/FacialAge/BNav_EC2/DepthDuration/MX_fS_VE_MTurk/MX_fS_HTML.html#137,137,1280,598,1280,720,1-12-2024,14-47-2,60,VR_target_stimuli/s31_1.3x_4.96_342.png,125,1.3x,4.96,1,2700,116,meters,jsons/MX_seq24_1_VE125_flipped.json,246210,588322,21,Woman
