,subjID,experimentName,versionName,sequenceName,url,selected_row,windowWidth,windowHeight,screenWidth,screenHeight,startDate,startTime,trial,stimulus,duration,scale,actual_depth,depth_estimate,trial_RT,log_sceneDuration,unitSelection,seq_filepath,experimentTime,totalTime,age,gender
0,647660,final-intermixed-textured,v2,jsons/MX_seq34_1_VE125_flipped.json,http://54.235.29.9/FacialAge/BNav_EC2/DepthDuration/MX_fS_VE_MTurk/MX_fS_HTML.html#294,294,1920,1080,1920,1080,1-12-2024,13-44-5,1,VR_target_stimuli/s40_1.3x_1.2_332.png,125,1.3x,1.2,2.0,4069,127,meters,jsons/MX_seq34_1_VE125_flipped.json,171174,454810,25,Man
1,647660,final-intermixed-textured,v2,jsons/MX_seq34_1_VE125_flipped.json,http://54.235.29.9/FacialAge/BNav_EC2/DepthDuration/MX_fS_VE_MTurk/MX_fS_HTML.html#294,294,1920,1080,1920,1080,1-12-2024,13-44-5,2,VR_target_stimuli/s41_0.75x_2.1_281_BC.png,125,0.75x,2.1,4.0,2117,123,meters,jsons/MX_seq34_1_VE125_flipped.json,171174,454810,25,Man
2,647660,final-intermixed-textured,v2,jsons/MX_seq34_1_VE125_flipped.json,http://54.235.29.9/FacialAge/BNav_EC2/DepthDuration/MX_fS_VE_MTurk/MX_fS_HTML.html#294,294,1920,1080,1920,1080,1-12-2024,13-44-5,3,VR_target_stimuli/s45_1x_3.5_368_BC.png,125,1x,3.5,4.0,1805,124,meters,jsons/MX_seq34_1_VE125_flipped.json,171174,454810,25,Man
3,647660,final-intermixed-textured,v2,jsons/MX_seq34_1_VE125_flipped.json,http://54.235.29.9/FacialAge/BNav_EC2/DepthDuration/MX_fS_VE_MTurk/MX_fS_HTML.html#294,294,1920,1080,1920,1080,1-12-2024,13-44-5,4,VR_target_stimuli/s23_0.75x_3.65_351.png,125,0.75x,3.65,3.0,3296,126,meters,jsons/MX_seq34_1_VE125_flipped.json,171174,454810,25,Man
4,647660,final-intermixed-textured,v2,jsons/MX_seq34_1_VE125_flipped.json,http://54.235.29.9/FacialAge/BNav_EC2/DepthDuration/MX_fS_VE_MTurk/MX_fS_HTML.html#294,294,1920,1080,1920,1080,1-12-2024,13-44-5,5,VR_target_stimuli/s26_1.3x_4_441_BC.png,125,1.3x,4.0,4.0,2058,126,meters,jsons/MX_seq34_1_VE125_flipped.json,171174,454810,25,Man
5,647660,final-intermixed-textured,v2,jsons/MX_seq34_1_VE125_flipped.json,http://54.235.29.9/FacialAge/BNav_EC2/DepthDuration/MX_fS_VE_MTurk/MX_fS_HTML.html#294,294,1920,1080,1920,1080,1-12-2024,13-44-5,6,VR_target_stimuli/s12_1x_3.1_372.png,125,1x,3.1,3.5,4346,125,meters,jsons/MX_seq34_1_VE125_flipped.json,171174,454810,25,Man
6,647660,final-intermixed-textured,v2,jsons/MX_seq34_1_VE125_flipped.json,http://54.235.29.9/FacialAge/BNav_EC2/DepthDuration/MX_fS_VE_MTurk/MX_fS_HTML.html#294,294,1920,1080,1920,1080,1-12-2024,13-44-5,7,catch_stimuli/c0_BC.png,125,,,0.0,1902,124,meters,jsons/MX_seq34_1_VE125_flipped.json,171174,454810,25,Man
7,647660,final-intermixed-textured,v2,jsons/MX_seq34_1_VE125_flipped.json,http://54.235.29.9/FacialAge/BNav_EC2/DepthDuration/MX_fS_VE_MTurk/MX_fS_HTML.html#294,294,1920,1080,1920,1080,1-12-2024,13-44-5,8,VR_target_stimuli/s30_1x_2.3_334_BC.png,125,1x,2.3,4.0,1990,125,meters,jsons/MX_seq34_1_VE125_flipped.json,171174,454810,25,Man
8,647660,final-intermixed-textured,v2,jsons/MX_seq34_1_VE125_flipped.json,http://54.235.29.9/FacialAge/BNav_EC2/DepthDuration/MX_fS_VE_MTurk/MX_fS_HTML.html#294,294,1920,1080,1920,1080,1-12-2024,13-44-5,9,VR_target_stimuli/s16_0.75x_1_217.png,125,0.75x,1.0,2.0,1918,123,meters,jsons/MX_seq34_1_VE125_flipped.json,171174,454810,25,Man
9,647660,final-intermixed-textured,v2,jsons/MX_seq34_1_VE125_flipped.json,http://54.235.29.9/FacialAge/BNav_EC2/DepthDuration/MX_fS_VE_MTurk/MX_fS_HTML.html#294,294,1920,1080,1920,1080,1-12-2024,13-44-5,10,VR_target_stimuli/s17_1.3x_1.8_300_BC.png,125,1.3x,1.8,2.0,4055,126,meters,jsons/MX_seq34_1_VE125_flipped.json,171174,454810,25,Man
10,647660,final-intermixed-textured,v2,jsons/MX_seq34_1_VE125_flipped.json,http://54.235.29.9/FacialAge/BNav_EC2/DepthDuration/MX_fS_VE_MTurk/MX_fS_HTML.html#294,294,1920,1080,1920,1080,1-12-2024,13-44-5,11,VR_target_stimuli/s5_0.75x_4_375_BC.png,125,0.75x,4.0,2.0,1825,126,meters,jsons/MX_seq34_1_VE125_flipped.json,171174,454810,25,Man
11,647660,final-intermixed-textured,v2,jsons/MX_seq34_1_VE125_flipped.json,http://54.235.29.9/FacialAge/BNav_EC2/DepthDuration/MX_fS_VE_MTurk/MX_fS_HTML.html#294,294,1920,1080,1920,1080,1-12-2024,13-44-5,12,VR_target_stimuli/s37_1x_3.3_563.png,125,1x,3.3,1.0,2123,125,meters,jsons/MX_seq34_1_VE125_flipped.json,171174,454810,25,Man
12,647660,final-intermixed-textured,v2,jsons/MX_seq34_1_VE125_flipped.json,http://54.235.29.9/FacialAge/BNav_EC2/DepthDuration/MX_fS_VE_MTurk/MX_fS_HTML.html#294,294,1920,1080,1920,1080,1-12-2024,13-44-5,13,VR_target_stimuli/s46_1.3x_2.42_354.png,125,1.3x,2.42,2.0,2368,126,meters,jsons/MX_seq34_1_VE125_flipped.json,171174,454810,25,Man
13,647660,final-intermixed-textured,v2,jsons/MX_seq34_1_VE125_flipped.json,http://54.235.29.9/FacialAge/BNav_EC2/DepthDuration/MX_fS_VE_MTurk/MX_fS_HTML.html#294,294,1920,1080,1920,1080,1-12-2024,13-44-5,14,VR_target_stimuli/s22_1x_4.29_354_BC.png,125,1x,4.29,4.0,2769,123,meters,jsons/MX_seq34_1_VE125_flipped.json,171174,454810,25,Man
14,647660,final-intermixed-textured,v2,jsons/MX_seq34_1_VE125_flipped.json,http://54.235.29.9/FacialAge/BNav_EC2/DepthDuration/MX_fS_VE_MTurk/MX_fS_HTML.html#294,294,1920,1080,1920,1080,1-12-2024,13-44-5,15,VR_target_stimuli/s42_0.75x_3.2_301_BC.png,125,0.75x,3.2,2.5,5566,124,meters,jsons/MX_seq34_1_VE125_flipped.json,171174,454810,25,Man
15,647660,final-intermixed-textured,v2,jsons/MX_seq34_1_VE125_flipped.json,http://54.235.29.9/FacialAge/BNav_EC2/DepthDuration/MX_fS_VE_MTurk/MX_fS_HTML.html#294,294,1920,1080,1920,1080,1-12-2024,13-44-5,16,VR_target_stimuli/s25_1.3x_1.4_299_BC.png,125,1.3x,1.4,2.0,1860,110,meters,jsons/MX_seq34_1_VE125_flipped.json,171174,454810,25,Man
16,647660,final-intermixed-textured,v2,jsons/MX_seq34_1_VE125_flipped.json,http://54.235.29.9/FacialAge/BNav_EC2/DepthDuration/MX_fS_VE_MTurk/MX_fS_HTML.html#294,294,1920,1080,1920,1080,1-12-2024,13-44-5,17,catch_stimuli/c1_BC.png,125,,,0.0,1563,125,meters,jsons/MX_seq34_1_VE125_flipped.json,171174,454810,25,Man
17,647660,final-intermixed-textured,v2,jsons/MX_seq34_1_VE125_flipped.json,http://54.235.29.9/FacialAge/BNav_EC2/DepthDuration/MX_fS_VE_MTurk/MX_fS_HTML.html#294,294,1920,1080,1920,1080,1-12-2024,13-44-5,18,VR_target_stimuli/s50_1.3x_4.53_518.png,125,1.3x,4.53,0.0,1843,136,meters,jsons/MX_seq34_1_VE125_flipped.json,171174,454810,25,Man
18,647660,final-intermixed-textured,v2,jsons/MX_seq34_1_VE125_flipped.json,http://54.235.29.9/FacialAge/BNav_EC2/DepthDuration/MX_fS_VE_MTurk/MX_fS_HTML.html#294,294,1920,1080,1920,1080,1-12-2024,13-44-5,19,VR_target_stimuli/s53_1x_1.6_387.png,125,1x,1.6,1.0,2088,126,meters,jsons/MX_seq34_1_VE125_flipped.json,171174,454810,25,Man
19,647660,final-intermixed-textured,v2,jsons/MX_seq34_1_VE125_flipped.json,http://54.235.29.9/FacialAge/BNav_EC2/DepthDuration/MX_fS_VE_MTurk/MX_fS_HTML.html#294,294,1920,1080,1920,1080,1-12-2024,13-44-5,20,VR_target_stimuli/s38_0.75x_3.55_346.png,125,0.75x,3.55,2.0,2006,124,meters,jsons/MX_seq34_1_VE125_flipped.json,171174,454810,25,Man
20,647660,final-intermixed-textured,v2,jsons/MX_seq34_1_VE125_flipped.json,http://54.235.29.9/FacialAge/BNav_EC2/DepthDuration/MX_fS_VE_MTurk/MX_fS_HTML.html#294,294,1920,1080,1920,1080,1-12-2024,13-44-5,21,VR_target_stimuli/s9_1x_1.2_263_BC.png,125,1x,1.2,0.5,3871,125,meters,jsons/MX_seq34_1_VE125_flipped.json,171174,454810,25,Man
21,647660,final-intermixed-textured,v2,jsons/MX_seq34_1_VE125_flipped.json,http://54.235.29.9/FacialAge/BNav_EC2/DepthDuration/MX_fS_VE_MTurk/MX_fS_HTML.html#294,294,1920,1080,1920,1080,1-12-2024,13-44-5,22,VR_target_stimuli/s44_1.3x_4.4_325.png,125,1.3x,4.4,2.0,3636,126,meters,jsons/MX_seq34_1_VE125_flipped.json,171174,454810,25,Man
22,647660,final-intermixed-textured,v2,jsons/MX_seq34_1_VE125_flipped.json,http://54.235.29.9/FacialAge/BNav_EC2/DepthDuration/MX_fS_VE_MTurk/MX_fS_HTML.html#294,294,1920,1080,1920,1080,1-12-2024,13-44-5,23,VR_target_stimuli/s3_0.75x_5_381_BC.png,125,0.75x,5.0,3.0,2638,123,meters,jsons/MX_seq34_1_VE125_flipped.json,171174,454810,25,Man
23,647660,final-intermixed-textured,v2,jsons/MX_seq34_1_VE125_flipped.json,http://54.235.29.9/FacialAge/BNav_EC2/DepthDuration/MX_fS_VE_MTurk/MX_fS_HTML.html#294,294,1920,1080,1920,1080,1-12-2024,13-44-5,24,VR_target_stimuli/s1_1.3x_1.7_261_BC.png,125,1.3x,1.7,2.0,2407,125,meters,jsons/MX_seq34_1_VE125_flipped.json,171174,454810,25,Man
24,647660,final-intermixed-textured,v2,jsons/MX_seq34_1_VE125_flipped.json,http://54.235.29.9/FacialAge/BNav_EC2/DepthDuration/MX_fS_VE_MTurk/MX_fS_HTML.html#294,294,1920,1080,1920,1080,1-12-2024,13-44-5,25,VR_target_stimuli/s11_1x_5_361.png,125,1x,5.0,2.0,1527,124,meters,jsons/MX_seq34_1_VE125_flipped.json,171174,454810,25,Man
25,647660,final-intermixed-textured,v2,jsons/MX_seq34_1_VE125_flipped.json,http://54.235.29.9/FacialAge/BNav_EC2/DepthDuration/MX_fS_VE_MTurk/MX_fS_HTML.html#294,294,1920,1080,1920,1080,1-12-2024,13-44-5,26,catch_stimuli/c2_BC.png,125,,,0.0,1395,122,meters,jsons/MX_seq34_1_VE125_flipped.json,171174,454810,25,Man
26,647660,final-intermixed-textured,v2,jsons/MX_seq34_1_VE125_flipped.json,http://54.235.29.9/FacialAge/BNav_EC2/DepthDuration/MX_fS_VE_MTurk/MX_fS_HTML.html#294,294,1920,1080,1920,1080,1-12-2024,13-44-5,27,VR_target_stimuli/s2_0.75x_2.7_384.png,125,0.75x,2.7,1.5,2983,115,meters,jsons/MX_seq34_1_VE125_flipped.json,171174,454810,25,Man
27,647660,final-intermixed-textured,v2,jsons/MX_seq34_1_VE125_flipped.json,http://54.235.29.9/FacialAge/BNav_EC2/DepthDuration/MX_fS_VE_MTurk/MX_fS_HTML.html#294,294,1920,1080,1920,1080,1-12-2024,13-44-5,28,VR_target_stimuli/s6_0.75x_2.1_290_BC.png,125,0.75x,2.1,0.0,1918,111,meters,jsons/MX_seq34_1_VE125_flipped.json,171174,454810,25,Man
28,647660,final-intermixed-textured,v2,jsons/MX_seq34_1_VE125_flipped.json,http://54.235.29.9/FacialAge/BNav_EC2/DepthDuration/MX_fS_VE_MTurk/MX_fS_HTML.html#294,294,1920,1080,1920,1080,1-12-2024,13-44-5,29,VR_target_stimuli/s0_1.3x_2.6_356_BC.png,125,1.3x,2.6,1.5,2105,125,meters,jsons/MX_seq34_1_VE125_flipped.json,171174,454810,25,Man
29,647660,final-intermixed-textured,v2,jsons/MX_seq34_1_VE125_flipped.json,http://54.235.29.9/FacialAge/BNav_EC2/DepthDuration/MX_fS_VE_MTurk/MX_fS_HTML.html#294,294,1920,1080,1920,1080,1-12-2024,13-44-5,30,VR_target_stimuli/s34_1x_2.8_283.png,125,1x,2.8,2.0,1747,125,meters,jsons/MX_seq34_1_VE125_flipped.json,171174,454810,25,Man
30,647660,final-intermixed-textured,v2,jsons/MX_seq34_1_VE125_flipped.json,http://54.235.29.9/FacialAge/BNav_EC2/DepthDuration/MX_fS_VE_MTurk/MX_fS_HTML.html#294,294,1920,1080,1920,1080,1-12-2024,13-44-5,31,VR_target_stimuli/s13_0.75x_2.4_308.png,125,0.75x,2.4,2.4,2732,124,meters,jsons/MX_seq34_1_VE125_flipped.json,171174,454810,25,Man
31,647660,final-intermixed-textured,v2,jsons/MX_seq34_1_VE125_flipped.json,http://54.235.29.9/FacialAge/BNav_EC2/DepthDuration/MX_fS_VE_MTurk/MX_fS_HTML.html#294,294,1920,1080,1920,1080,1-12-2024,13-44-5,32,VR_target_stimuli/s14_1x_ 3.83_357_BC.png,125,1x,3.83,2.0,2607,125,meters,jsons/MX_seq34_1_VE125_flipped.json,171174,454810,25,Man
32,647660,final-intermixed-textured,v2,jsons/MX_seq34_1_VE125_flipped.json,http://54.235.29.9/FacialAge/BNav_EC2/DepthDuration/MX_fS_VE_MTurk/MX_fS_HTML.html#294,294,1920,1080,1920,1080,1-12-2024,13-44-5,33,VR_target_stimuli/s47_1.3x_3.45_373.png,125,1.3x,3.45,1.7,2517,126,meters,jsons/MX_seq34_1_VE125_flipped.json,171174,454810,25,Man
33,647660,final-intermixed-textured,v2,jsons/MX_seq34_1_VE125_flipped.json,http://54.235.29.9/FacialAge/BNav_EC2/DepthDuration/MX_fS_VE_MTurk/MX_fS_HTML.html#294,294,1920,1080,1920,1080,1-12-2024,13-44-5,34,catch_stimuli/c3_BC.png,125,,,0.0,1935,124,meters,jsons/MX_seq34_1_VE125_flipped.json,171174,454810,25,Man
34,647660,final-intermixed-textured,v2,jsons/MX_seq34_1_VE125_flipped.json,http://54.235.29.9/FacialAge/BNav_EC2/DepthDuration/MX_fS_VE_MTurk/MX_fS_HTML.html#294,294,1920,1080,1920,1080,1-12-2024,13-44-5,35,VR_target_stimuli/s29_1x_1.3_250.png,125,1x,1.3,1.5,2937,125,meters,jsons/MX_seq34_1_VE125_flipped.json,171174,454810,25,Man
35,647660,final-intermixed-textured,v2,jsons/MX_seq34_1_VE125_flipped.json,http://54.235.29.9/FacialAge/BNav_EC2/DepthDuration/MX_fS_VE_MTurk/MX_fS_HTML.html#294,294,1920,1080,1920,1080,1-12-2024,13-44-5,36,VR_target_stimuli/s28_0.75x_3.2_357_BC.png,125,0.75x,3.2,0.0,1873,122,meters,jsons/MX_seq34_1_VE125_flipped.json,171174,454810,25,Man
36,647660,final-intermixed-textured,v2,jsons/MX_seq34_1_VE125_flipped.json,http://54.235.29.9/FacialAge/BNav_EC2/DepthDuration/MX_fS_VE_MTurk/MX_fS_HTML.html#294,294,1920,1080,1920,1080,1-12-2024,13-44-5,37,VR_target_stimuli/s48_1.3x_2.55_255.png,125,1.3x,2.55,0.0,1631,124,meters,jsons/MX_seq34_1_VE125_flipped.json,171174,454810,25,Man
37,647660,final-intermixed-textured,v2,jsons/MX_seq34_1_VE125_flipped.json,http://54.235.29.9/FacialAge/BNav_EC2/DepthDuration/MX_fS_VE_MTurk/MX_fS_HTML.html#294,294,1920,1080,1920,1080,1-12-2024,13-44-5,38,VR_target_stimuli/s19_1.3x_1.21_270_BC.png,125,1.3x,1.21,1.0,1562,127,meters,jsons/MX_seq34_1_VE125_flipped.json,171174,454810,25,Man
38,647660,final-intermixed-textured,v2,jsons/MX_seq34_1_VE125_flipped.json,http://54.235.29.9/FacialAge/BNav_EC2/DepthDuration/MX_fS_VE_MTurk/MX_fS_HTML.html#294,294,1920,1080,1920,1080,1-12-2024,13-44-5,39,VR_target_stimuli/s21_1x_4.22_379_BC.png,125,1x,4.22,2.0,1820,124,meters,jsons/MX_seq34_1_VE125_flipped.json,171174,454810,25,Man
39,647660,final-intermixed-textured,v2,jsons/MX_seq34_1_VE125_flipped.json,http://54.235.29.9/FacialAge/BNav_EC2/DepthDuration/MX_fS_VE_MTurk/MX_fS_HTML.html#294,294,1920,1080,1920,1080,1-12-2024,13-44-5,40,VR_target_stimuli/s8_0.75x_3.1_325.png,125,0.75x,3.1,2.5,2300,125,meters,jsons/MX_seq34_1_VE125_flipped.json,171174,454810,25,Man
40,647660,final-intermixed-textured,v2,jsons/MX_seq34_1_VE125_flipped.json,http://54.235.29.9/FacialAge/BNav_EC2/DepthDuration/MX_fS_VE_MTurk/MX_fS_HTML.html#294,294,1920,1080,1920,1080,1-12-2024,13-44-5,41,VR_target_stimuli/s27_1x_1.76_248_BC.png,125,1x,1.76,2.0,1955,125,meters,jsons/MX_seq34_1_VE125_flipped.json,171174,454810,25,Man
41,647660,final-intermixed-textured,v2,jsons/MX_seq34_1_VE125_flipped.json,http://54.235.29.9/FacialAge/BNav_EC2/DepthDuration/MX_fS_VE_MTurk/MX_fS_HTML.html#294,294,1920,1080,1920,1080,1-12-2024,13-44-5,42,VR_target_stimuli/s15_1.3x_4.2_389.png,125,1.3x,4.2,3.0,1685,125,meters,jsons/MX_seq34_1_VE125_flipped.json,171174,454810,25,Man
42,647660,final-intermixed-textured,v2,jsons/MX_seq34_1_VE125_flipped.json,http://54.235.29.9/FacialAge/BNav_EC2/DepthDuration/MX_fS_VE_MTurk/MX_fS_HTML.html#294,294,1920,1080,1920,1080,1-12-2024,13-44-5,43,VR_target_stimuli/s4_0.75x_1.4_301_BC.png,125,0.75x,1.4,1.0,1566,124,meters,jsons/MX_seq34_1_VE125_flipped.json,171174,454810,25,Man
43,647660,final-intermixed-textured,v2,jsons/MX_seq34_1_VE125_flipped.json,http://54.235.29.9/FacialAge/BNav_EC2/DepthDuration/MX_fS_VE_MTurk/MX_fS_HTML.html#294,294,1920,1080,1920,1080,1-12-2024,13-44-5,44,VR_target_stimuli/s35_1.3x_2_338_BC.png,125,1.3x,2.0,0.0,1548,110,meters,jsons/MX_seq34_1_VE125_flipped.json,171174,454810,25,Man
44,647660,final-intermixed-textured,v2,jsons/MX_seq34_1_VE125_flipped.json,http://54.235.29.9/FacialAge/BNav_EC2/DepthDuration/MX_fS_VE_MTurk/MX_fS_HTML.html#294,294,1920,1080,1920,1080,1-12-2024,13-44-5,45,catch_stimuli/c4_BC.png,125,,,0.0,1406,123,meters,jsons/MX_seq34_1_VE125_flipped.json,171174,454810,25,Man
45,647660,final-intermixed-textured,v2,jsons/MX_seq34_1_VE125_flipped.json,http://54.235.29.9/FacialAge/BNav_EC2/DepthDuration/MX_fS_VE_MTurk/MX_fS_HTML.html#294,294,1920,1080,1920,1080,1-12-2024,13-44-5,46,VR_target_stimuli/s49_1x_4.67_341.png,125,1x,4.67,3.0,1724,138,meters,jsons/MX_seq34_1_VE125_flipped.json,171174,454810,25,Man
46,647660,final-intermixed-textured,v2,jsons/MX_seq34_1_VE125_flipped.json,http://54.235.29.9/FacialAge/BNav_EC2/DepthDuration/MX_fS_VE_MTurk/MX_fS_HTML.html#294,294,1920,1080,1920,1080,1-12-2024,13-44-5,47,VR_target_stimuli/s7_0.75x_1.5_253.png,125,0.75x,1.5,1.0,2952,125,meters,jsons/MX_seq34_1_VE125_flipped.json,171174,454810,25,Man
47,647660,final-intermixed-textured,v2,jsons/MX_seq34_1_VE125_flipped.json,http://54.235.29.9/FacialAge/BNav_EC2/DepthDuration/MX_fS_VE_MTurk/MX_fS_HTML.html#294,294,1920,1080,1920,1080,1-12-2024,13-44-5,48,VR_target_stimuli/s20_0.75x_4.99_390_BC.png,125,0.75x,4.99,0.0,1519,124,meters,jsons/MX_seq34_1_VE125_flipped.json,171174,454810,25,Man
48,647660,final-intermixed-textured,v2,jsons/MX_seq34_1_VE125_flipped.json,http://54.235.29.9/FacialAge/BNav_EC2/DepthDuration/MX_fS_VE_MTurk/MX_fS_HTML.html#294,294,1920,1080,1920,1080,1-12-2024,13-44-5,49,VR_target_stimuli/s31_1.3x_4.96_342_BC.png,125,1.3x,4.96,0.0,2358,124,meters,jsons/MX_seq34_1_VE125_flipped.json,171174,454810,25,Man
49,647660,final-intermixed-textured,v2,jsons/MX_seq34_1_VE125_flipped.json,http://54.235.29.9/FacialAge/BNav_EC2/DepthDuration/MX_fS_VE_MTurk/MX_fS_HTML.html#294,294,1920,1080,1920,1080,1-12-2024,13-44-5,50,VR_target_stimuli/s33_1x_3.1_366.png,125,1x,3.1,2.0,5735,125,meters,jsons/MX_seq34_1_VE125_flipped.json,171174,454810,25,Man
50,647660,final-intermixed-textured,v2,jsons/MX_seq34_1_VE125_flipped.json,http://54.235.29.9/FacialAge/BNav_EC2/DepthDuration/MX_fS_VE_MTurk/MX_fS_HTML.html#294,294,1920,1080,1920,1080,1-12-2024,13-44-5,51,VR_target_stimuli/s52_1.3x_3.2_280.png,125,1.3x,3.2,2.5,3951,125,meters,jsons/MX_seq34_1_VE125_flipped.json,171174,454810,25,Man
51,647660,final-intermixed-textured,v2,jsons/MX_seq34_1_VE125_flipped.json,http://54.235.29.9/FacialAge/BNav_EC2/DepthDuration/MX_fS_VE_MTurk/MX_fS_HTML.html#294,294,1920,1080,1920,1080,1-12-2024,13-44-5,52,VR_target_stimuli/s32_0.75x_1.5_213.png,125,0.75x,1.5,2.0,2161,138,meters,jsons/MX_seq34_1_VE125_flipped.json,171174,454810,25,Man
52,647660,final-intermixed-textured,v2,jsons/MX_seq34_1_VE125_flipped.json,http://54.235.29.9/FacialAge/BNav_EC2/DepthDuration/MX_fS_VE_MTurk/MX_fS_HTML.html#294,294,1920,1080,1920,1080,1-12-2024,13-44-5,53,catch_stimuli/c5_BC.png,125,,,0.0,2357,123,meters,jsons/MX_seq34_1_VE125_flipped.json,171174,454810,25,Man
53,647660,final-intermixed-textured,v2,jsons/MX_seq34_1_VE125_flipped.json,http://54.235.29.9/FacialAge/BNav_EC2/DepthDuration/MX_fS_VE_MTurk/MX_fS_HTML.html#294,294,1920,1080,1920,1080,1-12-2024,13-44-5,54,VR_target_stimuli/s18_1x_2.25_353_BC.png,125,1x,2.25,0.0,1529,124,meters,jsons/MX_seq34_1_VE125_flipped.json,171174,454810,25,Man
54,647660,final-intermixed-textured,v2,jsons/MX_seq34_1_VE125_flipped.json,http://54.235.29.9/FacialAge/BNav_EC2/DepthDuration/MX_fS_VE_MTurk/MX_fS_HTML.html#294,294,1920,1080,1920,1080,1-12-2024,13-44-5,55,VR_target_stimuli/s39_0.75x_1_205.png,125,0.75x,1.0,0.0,1688,123,meters,jsons/MX_seq34_1_VE125_flipped.json,171174,454810,25,Man
55,647660,final-intermixed-textured,v2,jsons/MX_seq34_1_VE125_flipped.json,http://54.235.29.9/FacialAge/BNav_EC2/DepthDuration/MX_fS_VE_MTurk/MX_fS_HTML.html#294,294,1920,1080,1920,1080,1-12-2024,13-44-5,56,VR_target_stimuli/s51_1.3x_3.64_479_BC.png,125,1.3x,3.64,1.0,1515,125,meters,jsons/MX_seq34_1_VE125_flipped.json,171174,454810,25,Man
56,647660,final-intermixed-textured,v2,jsons/MX_seq34_1_VE125_flipped.json,http://54.235.29.9/FacialAge/BNav_EC2/DepthDuration/MX_fS_VE_MTurk/MX_fS_HTML.html#294,294,1920,1080,1920,1080,1-12-2024,13-44-5,57,VR_target_stimuli/s43_1x_2.2_354.png,125,1x,2.2,2.0,2116,140,meters,jsons/MX_seq34_1_VE125_flipped.json,171174,454810,25,Man
57,647660,final-intermixed-textured,v2,jsons/MX_seq34_1_VE125_flipped.json,http://54.235.29.9/FacialAge/BNav_EC2/DepthDuration/MX_fS_VE_MTurk/MX_fS_HTML.html#294,294,1920,1080,1920,1080,1-12-2024,13-44-5,58,VR_target_stimuli/s24_1x_3.3_349_BC.png,125,1x,3.3,2.0,1357,125,meters,jsons/MX_seq34_1_VE125_flipped.json,171174,454810,25,Man
58,647660,final-intermixed-textured,v2,jsons/MX_seq34_1_VE125_flipped.json,http://54.235.29.9/FacialAge/BNav_EC2/DepthDuration/MX_fS_VE_MTurk/MX_fS_HTML.html#294,294,1920,1080,1920,1080,1-12-2024,13-44-5,59,VR_target_stimuli/s10_0.75x_2.7_321_BC.png,125,0.75x,2.7,2.0,1382,124,meters,jsons/MX_seq34_1_VE125_flipped.json,171174,454810,25,Man
59,647660,final-intermixed-textured,v2,jsons/MX_seq34_1_VE125_flipped.json,http://54.235.29.9/FacialAge/BNav_EC2/DepthDuration/MX_fS_VE_MTurk/MX_fS_HTML.html#294,294,1920,1080,1920,1080,1-12-2024,13-44-5,60,VR_target_stimuli/s36_1.3x_4.1_442.png,125,1.3x,4.1,2.74,2425,123,meters,jsons/MX_seq34_1_VE125_flipped.json,171174,454810,25,Man
