,subjID,experimentName,versionName,sequenceName,url,selected_row,windowWidth,windowHeight,screenWidth,screenHeight,startDate,startTime,trial,stimulus,duration,scale,actual_depth,depth_estimate,trial_RT,log_sceneDuration,unitSelection,seq_filepath,experimentTime,totalTime,age,gender
0,669007,final-intermixed-textured,v2,jsons/MX_seq18_0_VE125.json,http://54.235.29.9/FacialAge/BNav_EC2/DepthDuration/MX_fS_VE_MTurk/MX_fS_HTML.html#119,119,1790,1270,2560,1440,1-12-2024,13-47-8,1,VR_target_stimuli/s4_0.75x_1.4_301.png,125,0.75x,1.4,2.0,6964,130,meters,jsons/MX_seq18_0_VE125.json,275734,487241,46,Man
1,669007,final-intermixed-textured,v2,jsons/MX_seq18_0_VE125.json,http://54.235.29.9/FacialAge/BNav_EC2/DepthDuration/MX_fS_VE_MTurk/MX_fS_HTML.html#119,119,1790,1270,2560,1440,1-12-2024,13-47-8,2,VR_target_stimuli/s35_1x_2_331.png,125,1x,2.0,1.0,6574,123,meters,jsons/MX_seq18_0_VE125.json,275734,487241,46,Man
2,669007,final-intermixed-textured,v2,jsons/MX_seq18_0_VE125.json,http://54.235.29.9/FacialAge/BNav_EC2/DepthDuration/MX_fS_VE_MTurk/MX_fS_HTML.html#119,119,1790,1270,2560,1440,1-12-2024,13-47-8,3,VR_target_stimuli/s49_1.3x_4.67_354_BC.png,125,1.3x,4.67,1.5,9893,123,meters,jsons/MX_seq18_0_VE125.json,275734,487241,46,Man
3,669007,final-intermixed-textured,v2,jsons/MX_seq18_0_VE125.json,http://54.235.29.9/FacialAge/BNav_EC2/DepthDuration/MX_fS_VE_MTurk/MX_fS_HTML.html#119,119,1790,1270,2560,1440,1-12-2024,13-47-8,4,VR_target_stimuli/s7_1x_1.5_255_BC.png,125,1x,1.5,2.0,6423,123,meters,jsons/MX_seq18_0_VE125.json,275734,487241,46,Man
4,669007,final-intermixed-textured,v2,jsons/MX_seq18_0_VE125.json,http://54.235.29.9/FacialAge/BNav_EC2/DepthDuration/MX_fS_VE_MTurk/MX_fS_HTML.html#119,119,1790,1270,2560,1440,1-12-2024,13-47-8,5,VR_target_stimuli/s20_0.75x_4.99_390_BC.png,125,0.75x,4.99,1.0,6334,125,meters,jsons/MX_seq18_0_VE125.json,275734,487241,46,Man
5,669007,final-intermixed-textured,v2,jsons/MX_seq18_0_VE125.json,http://54.235.29.9/FacialAge/BNav_EC2/DepthDuration/MX_fS_VE_MTurk/MX_fS_HTML.html#119,119,1790,1270,2560,1440,1-12-2024,13-47-8,6,VR_target_stimuli/s31_1.3x_4.96_342.png,125,1.3x,4.96,3.0,4417,125,meters,jsons/MX_seq18_0_VE125.json,275734,487241,46,Man
6,669007,final-intermixed-textured,v2,jsons/MX_seq18_0_VE125.json,http://54.235.29.9/FacialAge/BNav_EC2/DepthDuration/MX_fS_VE_MTurk/MX_fS_HTML.html#119,119,1790,1270,2560,1440,1-12-2024,13-47-8,7,catch_stimuli/c0.png,125,,,2.0,7209,125,meters,jsons/MX_seq18_0_VE125.json,275734,487241,46,Man
7,669007,final-intermixed-textured,v2,jsons/MX_seq18_0_VE125.json,http://54.235.29.9/FacialAge/BNav_EC2/DepthDuration/MX_fS_VE_MTurk/MX_fS_HTML.html#119,119,1790,1270,2560,1440,1-12-2024,13-47-8,8,VR_target_stimuli/s33_1.3x_3.1_378.png,125,1.3x,3.1,2.0,3167,124,meters,jsons/MX_seq18_0_VE125.json,275734,487241,46,Man
8,669007,final-intermixed-textured,v2,jsons/MX_seq18_0_VE125.json,http://54.235.29.9/FacialAge/BNav_EC2/DepthDuration/MX_fS_VE_MTurk/MX_fS_HTML.html#119,119,1790,1270,2560,1440,1-12-2024,13-47-8,9,VR_target_stimuli/s52_1x_3.2_275_BC.png,125,1x,3.2,3.0,2194,123,meters,jsons/MX_seq18_0_VE125.json,275734,487241,46,Man
9,669007,final-intermixed-textured,v2,jsons/MX_seq18_0_VE125.json,http://54.235.29.9/FacialAge/BNav_EC2/DepthDuration/MX_fS_VE_MTurk/MX_fS_HTML.html#119,119,1790,1270,2560,1440,1-12-2024,13-47-8,10,VR_target_stimuli/s32_0.75x_1.5_213_BC.png,125,0.75x,1.5,3.0,2721,124,meters,jsons/MX_seq18_0_VE125.json,275734,487241,46,Man
10,669007,final-intermixed-textured,v2,jsons/MX_seq18_0_VE125.json,http://54.235.29.9/FacialAge/BNav_EC2/DepthDuration/MX_fS_VE_MTurk/MX_fS_HTML.html#119,119,1790,1270,2560,1440,1-12-2024,13-47-8,11,VR_target_stimuli/s18_1x_2.25_353.png,125,1x,2.25,2.0,2399,113,meters,jsons/MX_seq18_0_VE125.json,275734,487241,46,Man
11,669007,final-intermixed-textured,v2,jsons/MX_seq18_0_VE125.json,http://54.235.29.9/FacialAge/BNav_EC2/DepthDuration/MX_fS_VE_MTurk/MX_fS_HTML.html#119,119,1790,1270,2560,1440,1-12-2024,13-47-8,12,VR_target_stimuli/s39_1.3x_1_208_BC.png,125,1.3x,1.0,2.0,5919,130,meters,jsons/MX_seq18_0_VE125.json,275734,487241,46,Man
12,669007,final-intermixed-textured,v2,jsons/MX_seq18_0_VE125.json,http://54.235.29.9/FacialAge/BNav_EC2/DepthDuration/MX_fS_VE_MTurk/MX_fS_HTML.html#119,119,1790,1270,2560,1440,1-12-2024,13-47-8,13,VR_target_stimuli/s51_0.75x_3.64_460.png,125,0.75x,3.64,1.0,2815,114,meters,jsons/MX_seq18_0_VE125.json,275734,487241,46,Man
13,669007,final-intermixed-textured,v2,jsons/MX_seq18_0_VE125.json,http://54.235.29.9/FacialAge/BNav_EC2/DepthDuration/MX_fS_VE_MTurk/MX_fS_HTML.html#119,119,1790,1270,2560,1440,1-12-2024,13-47-8,14,VR_target_stimuli/s43_1.3x_2.2_363.png,125,1.3x,2.2,2.0,2275,131,meters,jsons/MX_seq18_0_VE125.json,275734,487241,46,Man
14,669007,final-intermixed-textured,v2,jsons/MX_seq18_0_VE125.json,http://54.235.29.9/FacialAge/BNav_EC2/DepthDuration/MX_fS_VE_MTurk/MX_fS_HTML.html#119,119,1790,1270,2560,1440,1-12-2024,13-47-8,15,VR_target_stimuli/s24_1x_3.3_349_BC.png,125,1x,3.3,2.5,2744,129,meters,jsons/MX_seq18_0_VE125.json,275734,487241,46,Man
15,669007,final-intermixed-textured,v2,jsons/MX_seq18_0_VE125.json,http://54.235.29.9/FacialAge/BNav_EC2/DepthDuration/MX_fS_VE_MTurk/MX_fS_HTML.html#119,119,1790,1270,2560,1440,1-12-2024,13-47-8,16,VR_target_stimuli/s10_0.75x_2.7_321.png,125,0.75x,2.7,2.0,2410,130,meters,jsons/MX_seq18_0_VE125.json,275734,487241,46,Man
16,669007,final-intermixed-textured,v2,jsons/MX_seq18_0_VE125.json,http://54.235.29.9/FacialAge/BNav_EC2/DepthDuration/MX_fS_VE_MTurk/MX_fS_HTML.html#119,119,1790,1270,2560,1440,1-12-2024,13-47-8,17,catch_stimuli/c1.png,125,,,2.0,4390,120,meters,jsons/MX_seq18_0_VE125.json,275734,487241,46,Man
17,669007,final-intermixed-textured,v2,jsons/MX_seq18_0_VE125.json,http://54.235.29.9/FacialAge/BNav_EC2/DepthDuration/MX_fS_VE_MTurk/MX_fS_HTML.html#119,119,1790,1270,2560,1440,1-12-2024,13-47-8,18,VR_target_stimuli/s36_0.75x_4.1_407_BC.png,125,0.75x,4.1,2.0,76981,130,meters,jsons/MX_seq18_0_VE125.json,275734,487241,46,Man
18,669007,final-intermixed-textured,v2,jsons/MX_seq18_0_VE125.json,http://54.235.29.9/FacialAge/BNav_EC2/DepthDuration/MX_fS_VE_MTurk/MX_fS_HTML.html#119,119,1790,1270,2560,1440,1-12-2024,13-47-8,19,VR_target_stimuli/s40_1.3x_1.2_332_BC.png,125,1.3x,1.2,1.0,3283,131,meters,jsons/MX_seq18_0_VE125.json,275734,487241,46,Man
19,669007,final-intermixed-textured,v2,jsons/MX_seq18_0_VE125.json,http://54.235.29.9/FacialAge/BNav_EC2/DepthDuration/MX_fS_VE_MTurk/MX_fS_HTML.html#119,119,1790,1270,2560,1440,1-12-2024,13-47-8,20,VR_target_stimuli/s41_1x_2.1_286.png,125,1x,2.1,2.0,2247,115,meters,jsons/MX_seq18_0_VE125.json,275734,487241,46,Man
20,669007,final-intermixed-textured,v2,jsons/MX_seq18_0_VE125.json,http://54.235.29.9/FacialAge/BNav_EC2/DepthDuration/MX_fS_VE_MTurk/MX_fS_HTML.html#119,119,1790,1270,2560,1440,1-12-2024,13-47-8,21,VR_target_stimuli/s45_1.3x_3.5_377.png,125,1.3x,3.5,3.0,2565,121,meters,jsons/MX_seq18_0_VE125.json,275734,487241,46,Man
21,669007,final-intermixed-textured,v2,jsons/MX_seq18_0_VE125.json,http://54.235.29.9/FacialAge/BNav_EC2/DepthDuration/MX_fS_VE_MTurk/MX_fS_HTML.html#119,119,1790,1270,2560,1440,1-12-2024,13-47-8,22,VR_target_stimuli/s23_0.75x_3.65_351_BC.png,125,0.75x,3.65,1.0,2258,126,meters,jsons/MX_seq18_0_VE125.json,275734,487241,46,Man
22,669007,final-intermixed-textured,v2,jsons/MX_seq18_0_VE125.json,http://54.235.29.9/FacialAge/BNav_EC2/DepthDuration/MX_fS_VE_MTurk/MX_fS_HTML.html#119,119,1790,1270,2560,1440,1-12-2024,13-47-8,23,VR_target_stimuli/s26_1x_4_433.png,125,1x,4.0,1.5,2541,123,meters,jsons/MX_seq18_0_VE125.json,275734,487241,46,Man
23,669007,final-intermixed-textured,v2,jsons/MX_seq18_0_VE125.json,http://54.235.29.9/FacialAge/BNav_EC2/DepthDuration/MX_fS_VE_MTurk/MX_fS_HTML.html#119,119,1790,1270,2560,1440,1-12-2024,13-47-8,24,VR_target_stimuli/s12_0.75x_3.1_364.png,125,0.75x,3.1,2.0,2242,123,meters,jsons/MX_seq18_0_VE125.json,275734,487241,46,Man
24,669007,final-intermixed-textured,v2,jsons/MX_seq18_0_VE125.json,http://54.235.29.9/FacialAge/BNav_EC2/DepthDuration/MX_fS_VE_MTurk/MX_fS_HTML.html#119,119,1790,1270,2560,1440,1-12-2024,13-47-8,25,VR_target_stimuli/s30_1.3x_2.3_337_BC.png,125,1.3x,2.3,1.0,1962,110,meters,jsons/MX_seq18_0_VE125.json,275734,487241,46,Man
25,669007,final-intermixed-textured,v2,jsons/MX_seq18_0_VE125.json,http://54.235.29.9/FacialAge/BNav_EC2/DepthDuration/MX_fS_VE_MTurk/MX_fS_HTML.html#119,119,1790,1270,2560,1440,1-12-2024,13-47-8,26,catch_stimuli/c2.png,125,,,3.0,1872,124,meters,jsons/MX_seq18_0_VE125.json,275734,487241,46,Man
26,669007,final-intermixed-textured,v2,jsons/MX_seq18_0_VE125.json,http://54.235.29.9/FacialAge/BNav_EC2/DepthDuration/MX_fS_VE_MTurk/MX_fS_HTML.html#119,119,1790,1270,2560,1440,1-12-2024,13-47-8,27,VR_target_stimuli/s16_1x_1_219_BC.png,125,1x,1.0,3.0,4415,123,meters,jsons/MX_seq18_0_VE125.json,275734,487241,46,Man
27,669007,final-intermixed-textured,v2,jsons/MX_seq18_0_VE125.json,http://54.235.29.9/FacialAge/BNav_EC2/DepthDuration/MX_fS_VE_MTurk/MX_fS_HTML.html#119,119,1790,1270,2560,1440,1-12-2024,13-47-8,28,VR_target_stimuli/s17_1x_1.8_291.png,125,1x,1.8,2.0,1991,126,meters,jsons/MX_seq18_0_VE125.json,275734,487241,46,Man
28,669007,final-intermixed-textured,v2,jsons/MX_seq18_0_VE125.json,http://54.235.29.9/FacialAge/BNav_EC2/DepthDuration/MX_fS_VE_MTurk/MX_fS_HTML.html#119,119,1790,1270,2560,1440,1-12-2024,13-47-8,29,VR_target_stimuli/s5_0.75x_4_375_BC.png,125,0.75x,4.0,1.0,2005,114,meters,jsons/MX_seq18_0_VE125.json,275734,487241,46,Man
29,669007,final-intermixed-textured,v2,jsons/MX_seq18_0_VE125.json,http://54.235.29.9/FacialAge/BNav_EC2/DepthDuration/MX_fS_VE_MTurk/MX_fS_HTML.html#119,119,1790,1270,2560,1440,1-12-2024,13-47-8,30,VR_target_stimuli/s37_1.3x_3.3_555_BC.png,125,1.3x,3.3,2.0,2153,129,meters,jsons/MX_seq18_0_VE125.json,275734,487241,46,Man
30,669007,final-intermixed-textured,v2,jsons/MX_seq18_0_VE125.json,http://54.235.29.9/FacialAge/BNav_EC2/DepthDuration/MX_fS_VE_MTurk/MX_fS_HTML.html#119,119,1790,1270,2560,1440,1-12-2024,13-47-8,31,VR_target_stimuli/s46_1x_2.42_348_BC.png,125,1x,2.42,1.0,1664,125,meters,jsons/MX_seq18_0_VE125.json,275734,487241,46,Man
31,669007,final-intermixed-textured,v2,jsons/MX_seq18_0_VE125.json,http://54.235.29.9/FacialAge/BNav_EC2/DepthDuration/MX_fS_VE_MTurk/MX_fS_HTML.html#119,119,1790,1270,2560,1440,1-12-2024,13-47-8,32,VR_target_stimuli/s22_1.3x_4.29_364.png,125,1.3x,4.29,3.0,1535,123,meters,jsons/MX_seq18_0_VE125.json,275734,487241,46,Man
32,669007,final-intermixed-textured,v2,jsons/MX_seq18_0_VE125.json,http://54.235.29.9/FacialAge/BNav_EC2/DepthDuration/MX_fS_VE_MTurk/MX_fS_HTML.html#119,119,1790,1270,2560,1440,1-12-2024,13-47-8,33,VR_target_stimuli/s42_0.75x_3.2_301.png,125,0.75x,3.2,3.0,1549,123,meters,jsons/MX_seq18_0_VE125.json,275734,487241,46,Man
33,669007,final-intermixed-textured,v2,jsons/MX_seq18_0_VE125.json,http://54.235.29.9/FacialAge/BNav_EC2/DepthDuration/MX_fS_VE_MTurk/MX_fS_HTML.html#119,119,1790,1270,2560,1440,1-12-2024,13-47-8,34,catch_stimuli/c3.png,125,,,3.0,1636,135,meters,jsons/MX_seq18_0_VE125.json,275734,487241,46,Man
34,669007,final-intermixed-textured,v2,jsons/MX_seq18_0_VE125.json,http://54.235.29.9/FacialAge/BNav_EC2/DepthDuration/MX_fS_VE_MTurk/MX_fS_HTML.html#119,119,1790,1270,2560,1440,1-12-2024,13-47-8,35,VR_target_stimuli/s25_1.3x_1.4_299_BC.png,125,1.3x,1.4,2.0,2124,131,meters,jsons/MX_seq18_0_VE125.json,275734,487241,46,Man
35,669007,final-intermixed-textured,v2,jsons/MX_seq18_0_VE125.json,http://54.235.29.9/FacialAge/BNav_EC2/DepthDuration/MX_fS_VE_MTurk/MX_fS_HTML.html#119,119,1790,1270,2560,1440,1-12-2024,13-47-8,36,VR_target_stimuli/s50_1x_4.53_518_BC.png,125,1x,4.53,1.0,2126,125,meters,jsons/MX_seq18_0_VE125.json,275734,487241,46,Man
36,669007,final-intermixed-textured,v2,jsons/MX_seq18_0_VE125.json,http://54.235.29.9/FacialAge/BNav_EC2/DepthDuration/MX_fS_VE_MTurk/MX_fS_HTML.html#119,119,1790,1270,2560,1440,1-12-2024,13-47-8,37,VR_target_stimuli/s53_0.75x_1.6_403.png,125,0.75x,1.6,2.0,1763,119,meters,jsons/MX_seq18_0_VE125.json,275734,487241,46,Man
37,669007,final-intermixed-textured,v2,jsons/MX_seq18_0_VE125.json,http://54.235.29.9/FacialAge/BNav_EC2/DepthDuration/MX_fS_VE_MTurk/MX_fS_HTML.html#119,119,1790,1270,2560,1440,1-12-2024,13-47-8,38,VR_target_stimuli/s38_0.75x_3.55_346_BC.png,125,0.75x,3.55,3.0,1533,120,meters,jsons/MX_seq18_0_VE125.json,275734,487241,46,Man
38,669007,final-intermixed-textured,v2,jsons/MX_seq18_0_VE125.json,http://54.235.29.9/FacialAge/BNav_EC2/DepthDuration/MX_fS_VE_MTurk/MX_fS_HTML.html#119,119,1790,1270,2560,1440,1-12-2024,13-47-8,39,VR_target_stimuli/s9_1.3x_1.2_276.png,125,1.3x,1.2,2.0,2442,139,meters,jsons/MX_seq18_0_VE125.json,275734,487241,46,Man
39,669007,final-intermixed-textured,v2,jsons/MX_seq18_0_VE125.json,http://54.235.29.9/FacialAge/BNav_EC2/DepthDuration/MX_fS_VE_MTurk/MX_fS_HTML.html#119,119,1790,1270,2560,1440,1-12-2024,13-47-8,40,VR_target_stimuli/s44_1x_4.4_317.png,125,1x,4.4,2.0,1985,117,meters,jsons/MX_seq18_0_VE125.json,275734,487241,46,Man
40,669007,final-intermixed-textured,v2,jsons/MX_seq18_0_VE125.json,http://54.235.29.9/FacialAge/BNav_EC2/DepthDuration/MX_fS_VE_MTurk/MX_fS_HTML.html#119,119,1790,1270,2560,1440,1-12-2024,13-47-8,41,VR_target_stimuli/s3_1.3x_5_390_BC.png,125,1.3x,5.0,3.0,2559,115,meters,jsons/MX_seq18_0_VE125.json,275734,487241,46,Man
41,669007,final-intermixed-textured,v2,jsons/MX_seq18_0_VE125.json,http://54.235.29.9/FacialAge/BNav_EC2/DepthDuration/MX_fS_VE_MTurk/MX_fS_HTML.html#119,119,1790,1270,2560,1440,1-12-2024,13-47-8,42,VR_target_stimuli/s1_0.75x_1.7_265_BC.png,125,0.75x,1.7,1.0,1617,121,meters,jsons/MX_seq18_0_VE125.json,275734,487241,46,Man
42,669007,final-intermixed-textured,v2,jsons/MX_seq18_0_VE125.json,http://54.235.29.9/FacialAge/BNav_EC2/DepthDuration/MX_fS_VE_MTurk/MX_fS_HTML.html#119,119,1790,1270,2560,1440,1-12-2024,13-47-8,43,VR_target_stimuli/s11_1x_5_361.png,125,1x,5.0,1.0,1561,131,meters,jsons/MX_seq18_0_VE125.json,275734,487241,46,Man
43,669007,final-intermixed-textured,v2,jsons/MX_seq18_0_VE125.json,http://54.235.29.9/FacialAge/BNav_EC2/DepthDuration/MX_fS_VE_MTurk/MX_fS_HTML.html#119,119,1790,1270,2560,1440,1-12-2024,13-47-8,44,VR_target_stimuli/s2_0.75x_2.7_384.png,125,0.75x,2.7,2.0,1690,138,meters,jsons/MX_seq18_0_VE125.json,275734,487241,46,Man
44,669007,final-intermixed-textured,v2,jsons/MX_seq18_0_VE125.json,http://54.235.29.9/FacialAge/BNav_EC2/DepthDuration/MX_fS_VE_MTurk/MX_fS_HTML.html#119,119,1790,1270,2560,1440,1-12-2024,13-47-8,45,catch_stimuli/c4.png,125,,,1.0,1746,112,meters,jsons/MX_seq18_0_VE125.json,275734,487241,46,Man
45,669007,final-intermixed-textured,v2,jsons/MX_seq18_0_VE125.json,http://54.235.29.9/FacialAge/BNav_EC2/DepthDuration/MX_fS_VE_MTurk/MX_fS_HTML.html#119,119,1790,1270,2560,1440,1-12-2024,13-47-8,46,VR_target_stimuli/s6_1.3x_2.1_298.png,125,1.3x,2.1,2.0,1865,114,meters,jsons/MX_seq18_0_VE125.json,275734,487241,46,Man
46,669007,final-intermixed-textured,v2,jsons/MX_seq18_0_VE125.json,http://54.235.29.9/FacialAge/BNav_EC2/DepthDuration/MX_fS_VE_MTurk/MX_fS_HTML.html#119,119,1790,1270,2560,1440,1-12-2024,13-47-8,47,VR_target_stimuli/s0_1x_2.6_351_BC.png,125,1x,2.6,2.0,2885,124,meters,jsons/MX_seq18_0_VE125.json,275734,487241,46,Man
47,669007,final-intermixed-textured,v2,jsons/MX_seq18_0_VE125.json,http://54.235.29.9/FacialAge/BNav_EC2/DepthDuration/MX_fS_VE_MTurk/MX_fS_HTML.html#119,119,1790,1270,2560,1440,1-12-2024,13-47-8,48,VR_target_stimuli/s34_1x_2.8_283_BC.png,125,1x,2.8,3.0,2354,124,meters,jsons/MX_seq18_0_VE125.json,275734,487241,46,Man
48,669007,final-intermixed-textured,v2,jsons/MX_seq18_0_VE125.json,http://54.235.29.9/FacialAge/BNav_EC2/DepthDuration/MX_fS_VE_MTurk/MX_fS_HTML.html#119,119,1790,1270,2560,1440,1-12-2024,13-47-8,49,VR_target_stimuli/s13_0.75x_2.4_308_BC.png,125,0.75x,2.4,2.0,1939,126,meters,jsons/MX_seq18_0_VE125.json,275734,487241,46,Man
49,669007,final-intermixed-textured,v2,jsons/MX_seq18_0_VE125.json,http://54.235.29.9/FacialAge/BNav_EC2/DepthDuration/MX_fS_VE_MTurk/MX_fS_HTML.html#119,119,1790,1270,2560,1440,1-12-2024,13-47-8,50,VR_target_stimuli/s14_1.3x_3.83_359.png,125,1.3x,3.83,1.0,1728,127,meters,jsons/MX_seq18_0_VE125.json,275734,487241,46,Man
50,669007,final-intermixed-textured,v2,jsons/MX_seq18_0_VE125.json,http://54.235.29.9/FacialAge/BNav_EC2/DepthDuration/MX_fS_VE_MTurk/MX_fS_HTML.html#119,119,1790,1270,2560,1440,1-12-2024,13-47-8,51,VR_target_stimuli/s47_0.75x_3.45_366.png,125,0.75x,3.45,2.0,2202,125,meters,jsons/MX_seq18_0_VE125.json,275734,487241,46,Man
51,669007,final-intermixed-textured,v2,jsons/MX_seq18_0_VE125.json,http://54.235.29.9/FacialAge/BNav_EC2/DepthDuration/MX_fS_VE_MTurk/MX_fS_HTML.html#119,119,1790,1270,2560,1440,1-12-2024,13-47-8,52,VR_target_stimuli/s29_1x_1.3_250.png,125,1x,1.3,3.0,1756,123,meters,jsons/MX_seq18_0_VE125.json,275734,487241,46,Man
52,669007,final-intermixed-textured,v2,jsons/MX_seq18_0_VE125.json,http://54.235.29.9/FacialAge/BNav_EC2/DepthDuration/MX_fS_VE_MTurk/MX_fS_HTML.html#119,119,1790,1270,2560,1440,1-12-2024,13-47-8,53,catch_stimuli/c5.png,125,,,2.5,6356,124,meters,jsons/MX_seq18_0_VE125.json,275734,487241,46,Man
53,669007,final-intermixed-textured,v2,jsons/MX_seq18_0_VE125.json,http://54.235.29.9/FacialAge/BNav_EC2/DepthDuration/MX_fS_VE_MTurk/MX_fS_HTML.html#119,119,1790,1270,2560,1440,1-12-2024,13-47-8,54,VR_target_stimuli/s28_1.3x_3.2_365_BC.png,125,1.3x,3.2,2.0,1584,123,meters,jsons/MX_seq18_0_VE125.json,275734,487241,46,Man
54,669007,final-intermixed-textured,v2,jsons/MX_seq18_0_VE125.json,http://54.235.29.9/FacialAge/BNav_EC2/DepthDuration/MX_fS_VE_MTurk/MX_fS_HTML.html#119,119,1790,1270,2560,1440,1-12-2024,13-47-8,55,VR_target_stimuli/s48_1x_2.55_256_BC.png,125,1x,2.55,3.0,1577,123,meters,jsons/MX_seq18_0_VE125.json,275734,487241,46,Man
55,669007,final-intermixed-textured,v2,jsons/MX_seq18_0_VE125.json,http://54.235.29.9/FacialAge/BNav_EC2/DepthDuration/MX_fS_VE_MTurk/MX_fS_HTML.html#119,119,1790,1270,2560,1440,1-12-2024,13-47-8,56,VR_target_stimuli/s19_0.75x_1.21_257_BC.png,125,0.75x,1.21,3.0,1708,122,meters,jsons/MX_seq18_0_VE125.json,275734,487241,46,Man
56,669007,final-intermixed-textured,v2,jsons/MX_seq18_0_VE125.json,http://54.235.29.9/FacialAge/BNav_EC2/DepthDuration/MX_fS_VE_MTurk/MX_fS_HTML.html#119,119,1790,1270,2560,1440,1-12-2024,13-47-8,57,VR_target_stimuli/s21_1.3x_4.22_384_BC.png,125,1.3x,4.22,1.0,1580,119,meters,jsons/MX_seq18_0_VE125.json,275734,487241,46,Man
57,669007,final-intermixed-textured,v2,jsons/MX_seq18_0_VE125.json,http://54.235.29.9/FacialAge/BNav_EC2/DepthDuration/MX_fS_VE_MTurk/MX_fS_HTML.html#119,119,1790,1270,2560,1440,1-12-2024,13-47-8,58,VR_target_stimuli/s8_1.3x_3.1_345.png,125,1.3x,3.1,2.0,1586,139,meters,jsons/MX_seq18_0_VE125.json,275734,487241,46,Man
58,669007,final-intermixed-textured,v2,jsons/MX_seq18_0_VE125.json,http://54.235.29.9/FacialAge/BNav_EC2/DepthDuration/MX_fS_VE_MTurk/MX_fS_HTML.html#119,119,1790,1270,2560,1440,1-12-2024,13-47-8,59,VR_target_stimuli/s27_1x_1.76_248.png,125,1x,1.76,2.0,1587,139,meters,jsons/MX_seq18_0_VE125.json,275734,487241,46,Man
59,669007,final-intermixed-textured,v2,jsons/MX_seq18_0_VE125.json,http://54.235.29.9/FacialAge/BNav_EC2/DepthDuration/MX_fS_VE_MTurk/MX_fS_HTML.html#119,119,1790,1270,2560,1440,1-12-2024,13-47-8,60,VR_target_stimuli/s15_0.75x_4.2_388.png,125,0.75x,4.2,3.0,1627,123,meters,jsons/MX_seq18_0_VE125.json,275734,487241,46,Man
