,subjID,experimentName,versionName,sequenceName,url,selected_row,windowWidth,windowHeight,screenWidth,screenHeight,startDate,startTime,trial,stimulus,duration,scale,actual_depth,depth_estimate,trial_RT,log_sceneDuration,unitSelection,seq_filepath,experimentTime,totalTime,age,gender
0,673674,final-intermixed-textured,v2,jsons/MX_seq26_2_VE125_flipped.json,http://54.235.29.9/FacialAge/BNav_EC2/DepthDuration/MX_fS_VE_MTurk/MX_fS_HTML.html#292,292,1920,945,1920,1080,1-12-2024,14-40-31,1,VR_target_stimuli/s32_1x_1.5_218.png,125,1x,1.5,4,6892,122,meters,jsons/MX_seq26_2_VE125_flipped.json,172856,362608,27,Man
1,673674,final-intermixed-textured,v2,jsons/MX_seq26_2_VE125_flipped.json,http://54.235.29.9/FacialAge/BNav_EC2/DepthDuration/MX_fS_VE_MTurk/MX_fS_HTML.html#292,292,1920,945,1920,1080,1-12-2024,14-40-31,2,VR_target_stimuli/s18_1.3x_2.25_368_BC.png,125,1.3x,2.25,2,3383,122,meters,jsons/MX_seq26_2_VE125_flipped.json,172856,362608,27,Man
2,673674,final-intermixed-textured,v2,jsons/MX_seq26_2_VE125_flipped.json,http://54.235.29.9/FacialAge/BNav_EC2/DepthDuration/MX_fS_VE_MTurk/MX_fS_HTML.html#292,292,1920,945,1920,1080,1-12-2024,14-40-31,3,VR_target_stimuli/s39_0.75x_1_205.png,125,0.75x,1.0,0,2956,126,meters,jsons/MX_seq26_2_VE125_flipped.json,172856,362608,27,Man
3,673674,final-intermixed-textured,v2,jsons/MX_seq26_2_VE125_flipped.json,http://54.235.29.9/FacialAge/BNav_EC2/DepthDuration/MX_fS_VE_MTurk/MX_fS_HTML.html#292,292,1920,945,1920,1080,1-12-2024,14-40-31,4,VR_target_stimuli/s51_1.3x_3.64_479.png,125,1.3x,3.64,2,3225,129,meters,jsons/MX_seq26_2_VE125_flipped.json,172856,362608,27,Man
4,673674,final-intermixed-textured,v2,jsons/MX_seq26_2_VE125_flipped.json,http://54.235.29.9/FacialAge/BNav_EC2/DepthDuration/MX_fS_VE_MTurk/MX_fS_HTML.html#292,292,1920,945,1920,1080,1-12-2024,14-40-31,5,VR_target_stimuli/s43_1x_2.2_354_BC.png,125,1x,2.2,3,2880,132,meters,jsons/MX_seq26_2_VE125_flipped.json,172856,362608,27,Man
5,673674,final-intermixed-textured,v2,jsons/MX_seq26_2_VE125_flipped.json,http://54.235.29.9/FacialAge/BNav_EC2/DepthDuration/MX_fS_VE_MTurk/MX_fS_HTML.html#292,292,1920,945,1920,1080,1-12-2024,14-40-31,6,VR_target_stimuli/s24_0.75x_3.3_344_BC.png,125,0.75x,3.3,5,4920,122,meters,jsons/MX_seq26_2_VE125_flipped.json,172856,362608,27,Man
6,673674,final-intermixed-textured,v2,jsons/MX_seq26_2_VE125_flipped.json,http://54.235.29.9/FacialAge/BNav_EC2/DepthDuration/MX_fS_VE_MTurk/MX_fS_HTML.html#292,292,1920,945,1920,1080,1-12-2024,14-40-31,7,catch_stimuli/c0_BC.png,125,,,0,2830,123,meters,jsons/MX_seq26_2_VE125_flipped.json,172856,362608,27,Man
7,673674,final-intermixed-textured,v2,jsons/MX_seq26_2_VE125_flipped.json,http://54.235.29.9/FacialAge/BNav_EC2/DepthDuration/MX_fS_VE_MTurk/MX_fS_HTML.html#292,292,1920,945,1920,1080,1-12-2024,14-40-31,8,VR_target_stimuli/s10_0.75x_2.7_321.png,125,0.75x,2.7,3,2473,127,meters,jsons/MX_seq26_2_VE125_flipped.json,172856,362608,27,Man
8,673674,final-intermixed-textured,v2,jsons/MX_seq26_2_VE125_flipped.json,http://54.235.29.9/FacialAge/BNav_EC2/DepthDuration/MX_fS_VE_MTurk/MX_fS_HTML.html#292,292,1920,945,1920,1080,1-12-2024,14-40-31,9,VR_target_stimuli/s36_1.3x_4.1_442.png,125,1.3x,4.1,4,4632,123,meters,jsons/MX_seq26_2_VE125_flipped.json,172856,362608,27,Man
9,673674,final-intermixed-textured,v2,jsons/MX_seq26_2_VE125_flipped.json,http://54.235.29.9/FacialAge/BNav_EC2/DepthDuration/MX_fS_VE_MTurk/MX_fS_HTML.html#292,292,1920,945,1920,1080,1-12-2024,14-40-31,10,VR_target_stimuli/s40_1x_1.2_319.png,125,1x,1.2,1,2722,123,meters,jsons/MX_seq26_2_VE125_flipped.json,172856,362608,27,Man
10,673674,final-intermixed-textured,v2,jsons/MX_seq26_2_VE125_flipped.json,http://54.235.29.9/FacialAge/BNav_EC2/DepthDuration/MX_fS_VE_MTurk/MX_fS_HTML.html#292,292,1920,945,1920,1080,1-12-2024,14-40-31,11,VR_target_stimuli/s41_1.3x_2.1_294_BC.png,125,1.3x,2.1,3,2681,123,meters,jsons/MX_seq26_2_VE125_flipped.json,172856,362608,27,Man
11,673674,final-intermixed-textured,v2,jsons/MX_seq26_2_VE125_flipped.json,http://54.235.29.9/FacialAge/BNav_EC2/DepthDuration/MX_fS_VE_MTurk/MX_fS_HTML.html#292,292,1920,945,1920,1080,1-12-2024,14-40-31,12,VR_target_stimuli/s45_0.75x_3.5_362_BC.png,125,0.75x,3.5,3,2525,124,meters,jsons/MX_seq26_2_VE125_flipped.json,172856,362608,27,Man
12,673674,final-intermixed-textured,v2,jsons/MX_seq26_2_VE125_flipped.json,http://54.235.29.9/FacialAge/BNav_EC2/DepthDuration/MX_fS_VE_MTurk/MX_fS_HTML.html#292,292,1920,945,1920,1080,1-12-2024,14-40-31,13,VR_target_stimuli/s23_1x_3.65_353_BC.png,125,1x,3.65,4,2362,124,meters,jsons/MX_seq26_2_VE125_flipped.json,172856,362608,27,Man
13,673674,final-intermixed-textured,v2,jsons/MX_seq26_2_VE125_flipped.json,http://54.235.29.9/FacialAge/BNav_EC2/DepthDuration/MX_fS_VE_MTurk/MX_fS_HTML.html#292,292,1920,945,1920,1080,1-12-2024,14-40-31,14,VR_target_stimuli/s26_0.75x_4_430_BC.png,125,0.75x,4.0,5,2640,124,meters,jsons/MX_seq26_2_VE125_flipped.json,172856,362608,27,Man
14,673674,final-intermixed-textured,v2,jsons/MX_seq26_2_VE125_flipped.json,http://54.235.29.9/FacialAge/BNav_EC2/DepthDuration/MX_fS_VE_MTurk/MX_fS_HTML.html#292,292,1920,945,1920,1080,1-12-2024,14-40-31,15,VR_target_stimuli/s12_1.3x_3.1_375_BC.png,125,1.3x,3.1,3,2289,123,meters,jsons/MX_seq26_2_VE125_flipped.json,172856,362608,27,Man
15,673674,final-intermixed-textured,v2,jsons/MX_seq26_2_VE125_flipped.json,http://54.235.29.9/FacialAge/BNav_EC2/DepthDuration/MX_fS_VE_MTurk/MX_fS_HTML.html#292,292,1920,945,1920,1080,1-12-2024,14-40-31,16,VR_target_stimuli/s30_1x_2.3_334.png,125,1x,2.3,2,2382,117,meters,jsons/MX_seq26_2_VE125_flipped.json,172856,362608,27,Man
16,673674,final-intermixed-textured,v2,jsons/MX_seq26_2_VE125_flipped.json,http://54.235.29.9/FacialAge/BNav_EC2/DepthDuration/MX_fS_VE_MTurk/MX_fS_HTML.html#292,292,1920,945,1920,1080,1-12-2024,14-40-31,17,catch_stimuli/c1_BC.png,125,,,3,2471,125,meters,jsons/MX_seq26_2_VE125_flipped.json,172856,362608,27,Man
17,673674,final-intermixed-textured,v2,jsons/MX_seq26_2_VE125_flipped.json,http://54.235.29.9/FacialAge/BNav_EC2/DepthDuration/MX_fS_VE_MTurk/MX_fS_HTML.html#292,292,1920,945,1920,1080,1-12-2024,14-40-31,18,VR_target_stimuli/s16_1x_1_219_BC.png,125,1x,1.0,2,2332,115,meters,jsons/MX_seq26_2_VE125_flipped.json,172856,362608,27,Man
18,673674,final-intermixed-textured,v2,jsons/MX_seq26_2_VE125_flipped.json,http://54.235.29.9/FacialAge/BNav_EC2/DepthDuration/MX_fS_VE_MTurk/MX_fS_HTML.html#292,292,1920,945,1920,1080,1-12-2024,14-40-31,19,VR_target_stimuli/s17_0.75x_1.8_285.png,125,0.75x,1.8,3,2229,126,meters,jsons/MX_seq26_2_VE125_flipped.json,172856,362608,27,Man
19,673674,final-intermixed-textured,v2,jsons/MX_seq26_2_VE125_flipped.json,http://54.235.29.9/FacialAge/BNav_EC2/DepthDuration/MX_fS_VE_MTurk/MX_fS_HTML.html#292,292,1920,945,1920,1080,1-12-2024,14-40-31,20,VR_target_stimuli/s5_1.3x_4_393.png,125,1.3x,4.0,3,2641,124,meters,jsons/MX_seq26_2_VE125_flipped.json,172856,362608,27,Man
20,673674,final-intermixed-textured,v2,jsons/MX_seq26_2_VE125_flipped.json,http://54.235.29.9/FacialAge/BNav_EC2/DepthDuration/MX_fS_VE_MTurk/MX_fS_HTML.html#292,292,1920,945,1920,1080,1-12-2024,14-40-31,21,VR_target_stimuli/s37_0.75x_3.3_567_BC.png,125,0.75x,3.3,1,2637,123,meters,jsons/MX_seq26_2_VE125_flipped.json,172856,362608,27,Man
21,673674,final-intermixed-textured,v2,jsons/MX_seq26_2_VE125_flipped.json,http://54.235.29.9/FacialAge/BNav_EC2/DepthDuration/MX_fS_VE_MTurk/MX_fS_HTML.html#292,292,1920,945,1920,1080,1-12-2024,14-40-31,22,VR_target_stimuli/s46_1x_2.42_348_BC.png,125,1x,2.42,3,2282,125,meters,jsons/MX_seq26_2_VE125_flipped.json,172856,362608,27,Man
22,673674,final-intermixed-textured,v2,jsons/MX_seq26_2_VE125_flipped.json,http://54.235.29.9/FacialAge/BNav_EC2/DepthDuration/MX_fS_VE_MTurk/MX_fS_HTML.html#292,292,1920,945,1920,1080,1-12-2024,14-40-31,23,VR_target_stimuli/s22_1.3x_4.29_364_BC.png,125,1.3x,4.29,3,2926,123,meters,jsons/MX_seq26_2_VE125_flipped.json,172856,362608,27,Man
23,673674,final-intermixed-textured,v2,jsons/MX_seq26_2_VE125_flipped.json,http://54.235.29.9/FacialAge/BNav_EC2/DepthDuration/MX_fS_VE_MTurk/MX_fS_HTML.html#292,292,1920,945,1920,1080,1-12-2024,14-40-31,24,VR_target_stimuli/s42_1x_3.2_303.png,125,1x,3.2,4,2658,122,meters,jsons/MX_seq26_2_VE125_flipped.json,172856,362608,27,Man
24,673674,final-intermixed-textured,v2,jsons/MX_seq26_2_VE125_flipped.json,http://54.235.29.9/FacialAge/BNav_EC2/DepthDuration/MX_fS_VE_MTurk/MX_fS_HTML.html#292,292,1920,945,1920,1080,1-12-2024,14-40-31,25,VR_target_stimuli/s25_0.75x_1.4_281.png,125,0.75x,1.4,0,2656,123,meters,jsons/MX_seq26_2_VE125_flipped.json,172856,362608,27,Man
25,673674,final-intermixed-textured,v2,jsons/MX_seq26_2_VE125_flipped.json,http://54.235.29.9/FacialAge/BNav_EC2/DepthDuration/MX_fS_VE_MTurk/MX_fS_HTML.html#292,292,1920,945,1920,1080,1-12-2024,14-40-31,26,catch_stimuli/c2_BC.png,125,,,0,1585,124,meters,jsons/MX_seq26_2_VE125_flipped.json,172856,362608,27,Man
26,673674,final-intermixed-textured,v2,jsons/MX_seq26_2_VE125_flipped.json,http://54.235.29.9/FacialAge/BNav_EC2/DepthDuration/MX_fS_VE_MTurk/MX_fS_HTML.html#292,292,1920,945,1920,1080,1-12-2024,14-40-31,27,VR_target_stimuli/s50_1.3x_4.53_518.png,125,1.3x,4.53,0,1943,123,meters,jsons/MX_seq26_2_VE125_flipped.json,172856,362608,27,Man
27,673674,final-intermixed-textured,v2,jsons/MX_seq26_2_VE125_flipped.json,http://54.235.29.9/FacialAge/BNav_EC2/DepthDuration/MX_fS_VE_MTurk/MX_fS_HTML.html#292,292,1920,945,1920,1080,1-12-2024,14-40-31,28,VR_target_stimuli/s53_1.3x_1.6_355.png,125,1.3x,1.6,1,2591,125,meters,jsons/MX_seq26_2_VE125_flipped.json,172856,362608,27,Man
28,673674,final-intermixed-textured,v2,jsons/MX_seq26_2_VE125_flipped.json,http://54.235.29.9/FacialAge/BNav_EC2/DepthDuration/MX_fS_VE_MTurk/MX_fS_HTML.html#292,292,1920,945,1920,1080,1-12-2024,14-40-31,29,VR_target_stimuli/s38_1x_3.55_353_BC.png,125,1x,3.55,3,2564,124,meters,jsons/MX_seq26_2_VE125_flipped.json,172856,362608,27,Man
29,673674,final-intermixed-textured,v2,jsons/MX_seq26_2_VE125_flipped.json,http://54.235.29.9/FacialAge/BNav_EC2/DepthDuration/MX_fS_VE_MTurk/MX_fS_HTML.html#292,292,1920,945,1920,1080,1-12-2024,14-40-31,30,VR_target_stimuli/s9_0.75x_1.2_260.png,125,0.75x,1.2,1,1703,123,meters,jsons/MX_seq26_2_VE125_flipped.json,172856,362608,27,Man
30,673674,final-intermixed-textured,v2,jsons/MX_seq26_2_VE125_flipped.json,http://54.235.29.9/FacialAge/BNav_EC2/DepthDuration/MX_fS_VE_MTurk/MX_fS_HTML.html#292,292,1920,945,1920,1080,1-12-2024,14-40-31,31,VR_target_stimuli/s44_1.3x_4.4_325_BC.png,125,1.3x,4.4,3,1864,127,meters,jsons/MX_seq26_2_VE125_flipped.json,172856,362608,27,Man
31,673674,final-intermixed-textured,v2,jsons/MX_seq26_2_VE125_flipped.json,http://54.235.29.9/FacialAge/BNav_EC2/DepthDuration/MX_fS_VE_MTurk/MX_fS_HTML.html#292,292,1920,945,1920,1080,1-12-2024,14-40-31,32,VR_target_stimuli/s3_0.75x_5_381_BC.png,125,0.75x,5.0,5,2126,122,meters,jsons/MX_seq26_2_VE125_flipped.json,172856,362608,27,Man
32,673674,final-intermixed-textured,v2,jsons/MX_seq26_2_VE125_flipped.json,http://54.235.29.9/FacialAge/BNav_EC2/DepthDuration/MX_fS_VE_MTurk/MX_fS_HTML.html#292,292,1920,945,1920,1080,1-12-2024,14-40-31,33,VR_target_stimuli/s1_1x_1.7_262.png,125,1x,1.7,1,1824,123,meters,jsons/MX_seq26_2_VE125_flipped.json,172856,362608,27,Man
33,673674,final-intermixed-textured,v2,jsons/MX_seq26_2_VE125_flipped.json,http://54.235.29.9/FacialAge/BNav_EC2/DepthDuration/MX_fS_VE_MTurk/MX_fS_HTML.html#292,292,1920,945,1920,1080,1-12-2024,14-40-31,34,catch_stimuli/c3_BC.png,125,,,0,1864,124,meters,jsons/MX_seq26_2_VE125_flipped.json,172856,362608,27,Man
34,673674,final-intermixed-textured,v2,jsons/MX_seq26_2_VE125_flipped.json,http://54.235.29.9/FacialAge/BNav_EC2/DepthDuration/MX_fS_VE_MTurk/MX_fS_HTML.html#292,292,1920,945,1920,1080,1-12-2024,14-40-31,35,VR_target_stimuli/s11_0.75x_5_359_BC.png,125,0.75x,5.0,2,1721,124,meters,jsons/MX_seq26_2_VE125_flipped.json,172856,362608,27,Man
35,673674,final-intermixed-textured,v2,jsons/MX_seq26_2_VE125_flipped.json,http://54.235.29.9/FacialAge/BNav_EC2/DepthDuration/MX_fS_VE_MTurk/MX_fS_HTML.html#292,292,1920,945,1920,1080,1-12-2024,14-40-31,36,VR_target_stimuli/s2_1.3x_2.7_397_BC.png,125,1.3x,2.7,3,1851,124,meters,jsons/MX_seq26_2_VE125_flipped.json,172856,362608,27,Man
36,673674,final-intermixed-textured,v2,jsons/MX_seq26_2_VE125_flipped.json,http://54.235.29.9/FacialAge/BNav_EC2/DepthDuration/MX_fS_VE_MTurk/MX_fS_HTML.html#292,292,1920,945,1920,1080,1-12-2024,14-40-31,37,VR_target_stimuli/s6_1x_2.1_293_BC.png,125,1x,2.1,2,2151,123,meters,jsons/MX_seq26_2_VE125_flipped.json,172856,362608,27,Man
37,673674,final-intermixed-textured,v2,jsons/MX_seq26_2_VE125_flipped.json,http://54.235.29.9/FacialAge/BNav_EC2/DepthDuration/MX_fS_VE_MTurk/MX_fS_HTML.html#292,292,1920,945,1920,1080,1-12-2024,14-40-31,38,VR_target_stimuli/s0_1x_2.6_351.png,125,1x,2.6,3,1401,125,meters,jsons/MX_seq26_2_VE125_flipped.json,172856,362608,27,Man
38,673674,final-intermixed-textured,v2,jsons/MX_seq26_2_VE125_flipped.json,http://54.235.29.9/FacialAge/BNav_EC2/DepthDuration/MX_fS_VE_MTurk/MX_fS_HTML.html#292,292,1920,945,1920,1080,1-12-2024,14-40-31,39,VR_target_stimuli/s34_0.75x_2.8_269.png,125,0.75x,2.8,0,2179,124,meters,jsons/MX_seq26_2_VE125_flipped.json,172856,362608,27,Man
39,673674,final-intermixed-textured,v2,jsons/MX_seq26_2_VE125_flipped.json,http://54.235.29.9/FacialAge/BNav_EC2/DepthDuration/MX_fS_VE_MTurk/MX_fS_HTML.html#292,292,1920,945,1920,1080,1-12-2024,14-40-31,40,VR_target_stimuli/s13_1.3x_2.4_313.png,125,1.3x,2.4,2,2139,140,meters,jsons/MX_seq26_2_VE125_flipped.json,172856,362608,27,Man
40,673674,final-intermixed-textured,v2,jsons/MX_seq26_2_VE125_flipped.json,http://54.235.29.9/FacialAge/BNav_EC2/DepthDuration/MX_fS_VE_MTurk/MX_fS_HTML.html#292,292,1920,945,1920,1080,1-12-2024,14-40-31,41,VR_target_stimuli/s14_0.75x_3.83_355_BC.png,125,0.75x,3.83,5,1903,124,meters,jsons/MX_seq26_2_VE125_flipped.json,172856,362608,27,Man
41,673674,final-intermixed-textured,v2,jsons/MX_seq26_2_VE125_flipped.json,http://54.235.29.9/FacialAge/BNav_EC2/DepthDuration/MX_fS_VE_MTurk/MX_fS_HTML.html#292,292,1920,945,1920,1080,1-12-2024,14-40-31,42,VR_target_stimuli/s47_1x_3.45_370.png,125,1x,3.45,4,1717,125,meters,jsons/MX_seq26_2_VE125_flipped.json,172856,362608,27,Man
42,673674,final-intermixed-textured,v2,jsons/MX_seq26_2_VE125_flipped.json,http://54.235.29.9/FacialAge/BNav_EC2/DepthDuration/MX_fS_VE_MTurk/MX_fS_HTML.html#292,292,1920,945,1920,1080,1-12-2024,14-40-31,43,VR_target_stimuli/s29_1.3x_1.3_253_BC.png,125,1.3x,1.3,2,1803,123,meters,jsons/MX_seq26_2_VE125_flipped.json,172856,362608,27,Man
43,673674,final-intermixed-textured,v2,jsons/MX_seq26_2_VE125_flipped.json,http://54.235.29.9/FacialAge/BNav_EC2/DepthDuration/MX_fS_VE_MTurk/MX_fS_HTML.html#292,292,1920,945,1920,1080,1-12-2024,14-40-31,44,VR_target_stimuli/s28_1x_3.2_362_BC.png,125,1x,3.2,3,1576,127,meters,jsons/MX_seq26_2_VE125_flipped.json,172856,362608,27,Man
44,673674,final-intermixed-textured,v2,jsons/MX_seq26_2_VE125_flipped.json,http://54.235.29.9/FacialAge/BNav_EC2/DepthDuration/MX_fS_VE_MTurk/MX_fS_HTML.html#292,292,1920,945,1920,1080,1-12-2024,14-40-31,45,catch_stimuli/c4_BC.png,125,,,0,1784,125,meters,jsons/MX_seq26_2_VE125_flipped.json,172856,362608,27,Man
45,673674,final-intermixed-textured,v2,jsons/MX_seq26_2_VE125_flipped.json,http://54.235.29.9/FacialAge/BNav_EC2/DepthDuration/MX_fS_VE_MTurk/MX_fS_HTML.html#292,292,1920,945,1920,1080,1-12-2024,14-40-31,46,VR_target_stimuli/s48_0.75x_2.55_243.png,125,0.75x,2.55,2,1832,128,meters,jsons/MX_seq26_2_VE125_flipped.json,172856,362608,27,Man
46,673674,final-intermixed-textured,v2,jsons/MX_seq26_2_VE125_flipped.json,http://54.235.29.9/FacialAge/BNav_EC2/DepthDuration/MX_fS_VE_MTurk/MX_fS_HTML.html#292,292,1920,945,1920,1080,1-12-2024,14-40-31,47,VR_target_stimuli/s19_1.3x_1.21_270.png,125,1.3x,1.21,2,3770,124,meters,jsons/MX_seq26_2_VE125_flipped.json,172856,362608,27,Man
47,673674,final-intermixed-textured,v2,jsons/MX_seq26_2_VE125_flipped.json,http://54.235.29.9/FacialAge/BNav_EC2/DepthDuration/MX_fS_VE_MTurk/MX_fS_HTML.html#292,292,1920,945,1920,1080,1-12-2024,14-40-31,48,VR_target_stimuli/s21_1.3x_4.22_384_BC.png,125,1.3x,4.22,4,1796,123,meters,jsons/MX_seq26_2_VE125_flipped.json,172856,362608,27,Man
48,673674,final-intermixed-textured,v2,jsons/MX_seq26_2_VE125_flipped.json,http://54.235.29.9/FacialAge/BNav_EC2/DepthDuration/MX_fS_VE_MTurk/MX_fS_HTML.html#292,292,1920,945,1920,1080,1-12-2024,14-40-31,49,VR_target_stimuli/s8_1x_3.1_332.png,125,1x,3.1,4,1522,139,meters,jsons/MX_seq26_2_VE125_flipped.json,172856,362608,27,Man
49,673674,final-intermixed-textured,v2,jsons/MX_seq26_2_VE125_flipped.json,http://54.235.29.9/FacialAge/BNav_EC2/DepthDuration/MX_fS_VE_MTurk/MX_fS_HTML.html#292,292,1920,945,1920,1080,1-12-2024,14-40-31,50,VR_target_stimuli/s27_0.75x_1.76_243.png,125,0.75x,1.76,2,1669,124,meters,jsons/MX_seq26_2_VE125_flipped.json,172856,362608,27,Man
50,673674,final-intermixed-textured,v2,jsons/MX_seq26_2_VE125_flipped.json,http://54.235.29.9/FacialAge/BNav_EC2/DepthDuration/MX_fS_VE_MTurk/MX_fS_HTML.html#292,292,1920,945,1920,1080,1-12-2024,14-40-31,51,VR_target_stimuli/s15_1x_4.2_390_BC.png,125,1x,4.2,8,1805,123,meters,jsons/MX_seq26_2_VE125_flipped.json,172856,362608,27,Man
51,673674,final-intermixed-textured,v2,jsons/MX_seq26_2_VE125_flipped.json,http://54.235.29.9/FacialAge/BNav_EC2/DepthDuration/MX_fS_VE_MTurk/MX_fS_HTML.html#292,292,1920,945,1920,1080,1-12-2024,14-40-31,52,VR_target_stimuli/s4_1.3x_1.4_328.png,125,1.3x,1.4,2,1560,123,meters,jsons/MX_seq26_2_VE125_flipped.json,172856,362608,27,Man
52,673674,final-intermixed-textured,v2,jsons/MX_seq26_2_VE125_flipped.json,http://54.235.29.9/FacialAge/BNav_EC2/DepthDuration/MX_fS_VE_MTurk/MX_fS_HTML.html#292,292,1920,945,1920,1080,1-12-2024,14-40-31,53,catch_stimuli/c5_BC.png,125,,,0,2464,125,meters,jsons/MX_seq26_2_VE125_flipped.json,172856,362608,27,Man
53,673674,final-intermixed-textured,v2,jsons/MX_seq26_2_VE125_flipped.json,http://54.235.29.9/FacialAge/BNav_EC2/DepthDuration/MX_fS_VE_MTurk/MX_fS_HTML.html#292,292,1920,945,1920,1080,1-12-2024,14-40-31,54,VR_target_stimuli/s35_0.75x_2_323_BC.png,125,0.75x,2.0,3,2398,123,meters,jsons/MX_seq26_2_VE125_flipped.json,172856,362608,27,Man
54,673674,final-intermixed-textured,v2,jsons/MX_seq26_2_VE125_flipped.json,http://54.235.29.9/FacialAge/BNav_EC2/DepthDuration/MX_fS_VE_MTurk/MX_fS_HTML.html#292,292,1920,945,1920,1080,1-12-2024,14-40-31,55,VR_target_stimuli/s49_1.3x_4.67_354.png,125,1.3x,4.67,0,1632,123,meters,jsons/MX_seq26_2_VE125_flipped.json,172856,362608,27,Man
55,673674,final-intermixed-textured,v2,jsons/MX_seq26_2_VE125_flipped.json,http://54.235.29.9/FacialAge/BNav_EC2/DepthDuration/MX_fS_VE_MTurk/MX_fS_HTML.html#292,292,1920,945,1920,1080,1-12-2024,14-40-31,56,VR_target_stimuli/s7_1x_1.5_255.png,125,1x,1.5,2,1695,126,meters,jsons/MX_seq26_2_VE125_flipped.json,172856,362608,27,Man
56,673674,final-intermixed-textured,v2,jsons/MX_seq26_2_VE125_flipped.json,http://54.235.29.9/FacialAge/BNav_EC2/DepthDuration/MX_fS_VE_MTurk/MX_fS_HTML.html#292,292,1920,945,1920,1080,1-12-2024,14-40-31,57,VR_target_stimuli/s20_0.75x_4.99_390.png,125,0.75x,4.99,5,2224,120,meters,jsons/MX_seq26_2_VE125_flipped.json,172856,362608,27,Man
57,673674,final-intermixed-textured,v2,jsons/MX_seq26_2_VE125_flipped.json,http://54.235.29.9/FacialAge/BNav_EC2/DepthDuration/MX_fS_VE_MTurk/MX_fS_HTML.html#292,292,1920,945,1920,1080,1-12-2024,14-40-31,58,VR_target_stimuli/s31_0.75x_4.96_329_BC.png,125,0.75x,4.96,5,2243,125,meters,jsons/MX_seq26_2_VE125_flipped.json,172856,362608,27,Man
58,673674,final-intermixed-textured,v2,jsons/MX_seq26_2_VE125_flipped.json,http://54.235.29.9/FacialAge/BNav_EC2/DepthDuration/MX_fS_VE_MTurk/MX_fS_HTML.html#292,292,1920,945,1920,1080,1-12-2024,14-40-31,59,VR_target_stimuli/s33_1.3x_3.1_378_BC.png,125,1.3x,3.1,3,1580,124,meters,jsons/MX_seq26_2_VE125_flipped.json,172856,362608,27,Man
59,673674,final-intermixed-textured,v2,jsons/MX_seq26_2_VE125_flipped.json,http://54.235.29.9/FacialAge/BNav_EC2/DepthDuration/MX_fS_VE_MTurk/MX_fS_HTML.html#292,292,1920,945,1920,1080,1-12-2024,14-40-31,60,VR_target_stimuli/s52_1x_3.2_275_BC.png,125,1x,3.2,3,1278,124,meters,jsons/MX_seq26_2_VE125_flipped.json,172856,362608,27,Man
