,subjID,experimentName,versionName,sequenceName,url,selected_row,windowWidth,windowHeight,screenWidth,screenHeight,startDate,startTime,trial,stimulus,duration,scale,actual_depth,depth_estimate,trial_RT,log_sceneDuration,unitSelection,seq_filepath,experimentTime,totalTime,age,gender
0,699626,final-intermixed-textured,v2,jsons/MX_seq10_0_VE125.json,http://54.235.29.9/FacialAge/BNav_EC2/DepthDuration/MX_fS_VE_MTurk/MX_fS_HTML.html#319,319,1920,1080,1920,1080,1-12-2024,17-29-43,1,VR_target_stimuli/s29_0.75x_1.3_246_BC.png,125,0.75x,1.3,0,3290,125,meters,jsons/MX_seq10_0_VE125.json,175874,406765,27,Woman
1,699626,final-intermixed-textured,v2,jsons/MX_seq10_0_VE125.json,http://54.235.29.9/FacialAge/BNav_EC2/DepthDuration/MX_fS_VE_MTurk/MX_fS_HTML.html#319,319,1920,1080,1920,1080,1-12-2024,17-29-43,2,VR_target_stimuli/s28_1x_3.2_362_BC.png,125,1x,3.2,0,5107,125,meters,jsons/MX_seq10_0_VE125.json,175874,406765,27,Woman
2,699626,final-intermixed-textured,v2,jsons/MX_seq10_0_VE125.json,http://54.235.29.9/FacialAge/BNav_EC2/DepthDuration/MX_fS_VE_MTurk/MX_fS_HTML.html#319,319,1920,1080,1920,1080,1-12-2024,17-29-43,3,VR_target_stimuli/s48_1.3x_2.55_255.png,125,1.3x,2.55,11,4956,124,meters,jsons/MX_seq10_0_VE125.json,175874,406765,27,Woman
3,699626,final-intermixed-textured,v2,jsons/MX_seq10_0_VE125.json,http://54.235.29.9/FacialAge/BNav_EC2/DepthDuration/MX_fS_VE_MTurk/MX_fS_HTML.html#319,319,1920,1080,1920,1080,1-12-2024,17-29-43,4,VR_target_stimuli/s19_1x_1.21_263.png,125,1x,1.21,0,2882,125,meters,jsons/MX_seq10_0_VE125.json,175874,406765,27,Woman
4,699626,final-intermixed-textured,v2,jsons/MX_seq10_0_VE125.json,http://54.235.29.9/FacialAge/BNav_EC2/DepthDuration/MX_fS_VE_MTurk/MX_fS_HTML.html#319,319,1920,1080,1920,1080,1-12-2024,17-29-43,5,VR_target_stimuli/s21_0.75x_4.22_374.png,125,0.75x,4.22,14,4083,125,meters,jsons/MX_seq10_0_VE125.json,175874,406765,27,Woman
5,699626,final-intermixed-textured,v2,jsons/MX_seq10_0_VE125.json,http://54.235.29.9/FacialAge/BNav_EC2/DepthDuration/MX_fS_VE_MTurk/MX_fS_HTML.html#319,319,1920,1080,1920,1080,1-12-2024,17-29-43,6,VR_target_stimuli/s8_1.3x_3.1_345_BC.png,125,1.3x,3.1,0,3179,125,meters,jsons/MX_seq10_0_VE125.json,175874,406765,27,Woman
6,699626,final-intermixed-textured,v2,jsons/MX_seq10_0_VE125.json,http://54.235.29.9/FacialAge/BNav_EC2/DepthDuration/MX_fS_VE_MTurk/MX_fS_HTML.html#319,319,1920,1080,1920,1080,1-12-2024,17-29-43,7,catch_stimuli/c0.png,125,,,0,2003,125,meters,jsons/MX_seq10_0_VE125.json,175874,406765,27,Woman
7,699626,final-intermixed-textured,v2,jsons/MX_seq10_0_VE125.json,http://54.235.29.9/FacialAge/BNav_EC2/DepthDuration/MX_fS_VE_MTurk/MX_fS_HTML.html#319,319,1920,1080,1920,1080,1-12-2024,17-29-43,8,VR_target_stimuli/s27_1.3x_1.76_250_BC.png,125,1.3x,1.76,5,3275,125,meters,jsons/MX_seq10_0_VE125.json,175874,406765,27,Woman
8,699626,final-intermixed-textured,v2,jsons/MX_seq10_0_VE125.json,http://54.235.29.9/FacialAge/BNav_EC2/DepthDuration/MX_fS_VE_MTurk/MX_fS_HTML.html#319,319,1920,1080,1920,1080,1-12-2024,17-29-43,9,VR_target_stimuli/s15_1x_4.2_390.png,125,1x,4.2,8,4619,125,meters,jsons/MX_seq10_0_VE125.json,175874,406765,27,Woman
9,699626,final-intermixed-textured,v2,jsons/MX_seq10_0_VE125.json,http://54.235.29.9/FacialAge/BNav_EC2/DepthDuration/MX_fS_VE_MTurk/MX_fS_HTML.html#319,319,1920,1080,1920,1080,1-12-2024,17-29-43,10,VR_target_stimuli/s4_0.75x_1.4_301_BC.png,125,0.75x,1.4,0,2546,124,meters,jsons/MX_seq10_0_VE125.json,175874,406765,27,Woman
10,699626,final-intermixed-textured,v2,jsons/MX_seq10_0_VE125.json,http://54.235.29.9/FacialAge/BNav_EC2/DepthDuration/MX_fS_VE_MTurk/MX_fS_HTML.html#319,319,1920,1080,1920,1080,1-12-2024,17-29-43,11,VR_target_stimuli/s35_1x_2_331_BC.png,125,1x,2.0,0,1940,124,meters,jsons/MX_seq10_0_VE125.json,175874,406765,27,Woman
11,699626,final-intermixed-textured,v2,jsons/MX_seq10_0_VE125.json,http://54.235.29.9/FacialAge/BNav_EC2/DepthDuration/MX_fS_VE_MTurk/MX_fS_HTML.html#319,319,1920,1080,1920,1080,1-12-2024,17-29-43,12,VR_target_stimuli/s49_1.3x_4.67_354.png,125,1.3x,4.67,7,2539,125,meters,jsons/MX_seq10_0_VE125.json,175874,406765,27,Woman
12,699626,final-intermixed-textured,v2,jsons/MX_seq10_0_VE125.json,http://54.235.29.9/FacialAge/BNav_EC2/DepthDuration/MX_fS_VE_MTurk/MX_fS_HTML.html#319,319,1920,1080,1920,1080,1-12-2024,17-29-43,13,VR_target_stimuli/s7_0.75x_1.5_253.png,125,0.75x,1.5,0,2315,125,meters,jsons/MX_seq10_0_VE125.json,175874,406765,27,Woman
13,699626,final-intermixed-textured,v2,jsons/MX_seq10_0_VE125.json,http://54.235.29.9/FacialAge/BNav_EC2/DepthDuration/MX_fS_VE_MTurk/MX_fS_HTML.html#319,319,1920,1080,1920,1080,1-12-2024,17-29-43,14,VR_target_stimuli/s20_1.3x_4.99_412.png,125,1.3x,4.99,0,1827,124,meters,jsons/MX_seq10_0_VE125.json,175874,406765,27,Woman
14,699626,final-intermixed-textured,v2,jsons/MX_seq10_0_VE125.json,http://54.235.29.9/FacialAge/BNav_EC2/DepthDuration/MX_fS_VE_MTurk/MX_fS_HTML.html#319,319,1920,1080,1920,1080,1-12-2024,17-29-43,15,VR_target_stimuli/s31_1x_4.96_333.png,125,1x,4.96,4,2859,125,meters,jsons/MX_seq10_0_VE125.json,175874,406765,27,Woman
15,699626,final-intermixed-textured,v2,jsons/MX_seq10_0_VE125.json,http://54.235.29.9/FacialAge/BNav_EC2/DepthDuration/MX_fS_VE_MTurk/MX_fS_HTML.html#319,319,1920,1080,1920,1080,1-12-2024,17-29-43,16,VR_target_stimuli/s33_0.75x_3.1_361_BC.png,125,0.75x,3.1,0,2243,125,meters,jsons/MX_seq10_0_VE125.json,175874,406765,27,Woman
16,699626,final-intermixed-textured,v2,jsons/MX_seq10_0_VE125.json,http://54.235.29.9/FacialAge/BNav_EC2/DepthDuration/MX_fS_VE_MTurk/MX_fS_HTML.html#319,319,1920,1080,1920,1080,1-12-2024,17-29-43,17,catch_stimuli/c1.png,125,,,0,1803,124,meters,jsons/MX_seq10_0_VE125.json,175874,406765,27,Woman
17,699626,final-intermixed-textured,v2,jsons/MX_seq10_0_VE125.json,http://54.235.29.9/FacialAge/BNav_EC2/DepthDuration/MX_fS_VE_MTurk/MX_fS_HTML.html#319,319,1920,1080,1920,1080,1-12-2024,17-29-43,18,VR_target_stimuli/s52_0.75x_3.2_270.png,125,0.75x,3.2,0,1667,125,meters,jsons/MX_seq10_0_VE125.json,175874,406765,27,Woman
18,699626,final-intermixed-textured,v2,jsons/MX_seq10_0_VE125.json,http://54.235.29.9/FacialAge/BNav_EC2/DepthDuration/MX_fS_VE_MTurk/MX_fS_HTML.html#319,319,1920,1080,1920,1080,1-12-2024,17-29-43,19,VR_target_stimuli/s32_1.3x_1.5_224_BC.png,125,1.3x,1.5,5,2723,124,meters,jsons/MX_seq10_0_VE125.json,175874,406765,27,Woman
19,699626,final-intermixed-textured,v2,jsons/MX_seq10_0_VE125.json,http://54.235.29.9/FacialAge/BNav_EC2/DepthDuration/MX_fS_VE_MTurk/MX_fS_HTML.html#319,319,1920,1080,1920,1080,1-12-2024,17-29-43,20,VR_target_stimuli/s18_1x_2.25_353_BC.png,125,1x,2.25,3,2149,125,meters,jsons/MX_seq10_0_VE125.json,175874,406765,27,Woman
20,699626,final-intermixed-textured,v2,jsons/MX_seq10_0_VE125.json,http://54.235.29.9/FacialAge/BNav_EC2/DepthDuration/MX_fS_VE_MTurk/MX_fS_HTML.html#319,319,1920,1080,1920,1080,1-12-2024,17-29-43,21,VR_target_stimuli/s39_1.3x_1_208_BC.png,125,1.3x,1.0,0,2323,124,meters,jsons/MX_seq10_0_VE125.json,175874,406765,27,Woman
21,699626,final-intermixed-textured,v2,jsons/MX_seq10_0_VE125.json,http://54.235.29.9/FacialAge/BNav_EC2/DepthDuration/MX_fS_VE_MTurk/MX_fS_HTML.html#319,319,1920,1080,1920,1080,1-12-2024,17-29-43,22,VR_target_stimuli/s51_0.75x_3.64_460_BC.png,125,0.75x,3.64,4,2492,124,meters,jsons/MX_seq10_0_VE125.json,175874,406765,27,Woman
22,699626,final-intermixed-textured,v2,jsons/MX_seq10_0_VE125.json,http://54.235.29.9/FacialAge/BNav_EC2/DepthDuration/MX_fS_VE_MTurk/MX_fS_HTML.html#319,319,1920,1080,1920,1080,1-12-2024,17-29-43,23,VR_target_stimuli/s43_1x_2.2_354_BC.png,125,1x,2.2,0,2211,125,meters,jsons/MX_seq10_0_VE125.json,175874,406765,27,Woman
23,699626,final-intermixed-textured,v2,jsons/MX_seq10_0_VE125.json,http://54.235.29.9/FacialAge/BNav_EC2/DepthDuration/MX_fS_VE_MTurk/MX_fS_HTML.html#319,319,1920,1080,1920,1080,1-12-2024,17-29-43,24,VR_target_stimuli/s24_0.75x_3.3_344.png,125,0.75x,3.3,0,2171,125,meters,jsons/MX_seq10_0_VE125.json,175874,406765,27,Woman
24,699626,final-intermixed-textured,v2,jsons/MX_seq10_0_VE125.json,http://54.235.29.9/FacialAge/BNav_EC2/DepthDuration/MX_fS_VE_MTurk/MX_fS_HTML.html#319,319,1920,1080,1920,1080,1-12-2024,17-29-43,25,VR_target_stimuli/s10_1.3x_2.7_325.png,125,1.3x,2.7,0,1675,125,meters,jsons/MX_seq10_0_VE125.json,175874,406765,27,Woman
25,699626,final-intermixed-textured,v2,jsons/MX_seq10_0_VE125.json,http://54.235.29.9/FacialAge/BNav_EC2/DepthDuration/MX_fS_VE_MTurk/MX_fS_HTML.html#319,319,1920,1080,1920,1080,1-12-2024,17-29-43,26,catch_stimuli/c2.png,125,,,0,1659,125,meters,jsons/MX_seq10_0_VE125.json,175874,406765,27,Woman
26,699626,final-intermixed-textured,v2,jsons/MX_seq10_0_VE125.json,http://54.235.29.9/FacialAge/BNav_EC2/DepthDuration/MX_fS_VE_MTurk/MX_fS_HTML.html#319,319,1920,1080,1920,1080,1-12-2024,17-29-43,27,VR_target_stimuli/s36_1x_4.1_423.png,125,1x,4.1,0,1803,125,meters,jsons/MX_seq10_0_VE125.json,175874,406765,27,Woman
27,699626,final-intermixed-textured,v2,jsons/MX_seq10_0_VE125.json,http://54.235.29.9/FacialAge/BNav_EC2/DepthDuration/MX_fS_VE_MTurk/MX_fS_HTML.html#319,319,1920,1080,1920,1080,1-12-2024,17-29-43,28,VR_target_stimuli/s40_1x_1.2_319_BC.png,125,1x,1.2,3,2371,125,meters,jsons/MX_seq10_0_VE125.json,175874,406765,27,Woman
28,699626,final-intermixed-textured,v2,jsons/MX_seq10_0_VE125.json,http://54.235.29.9/FacialAge/BNav_EC2/DepthDuration/MX_fS_VE_MTurk/MX_fS_HTML.html#319,319,1920,1080,1920,1080,1-12-2024,17-29-43,29,VR_target_stimuli/s41_0.75x_2.1_281_BC.png,125,0.75x,2.1,0,2020,125,meters,jsons/MX_seq10_0_VE125.json,175874,406765,27,Woman
29,699626,final-intermixed-textured,v2,jsons/MX_seq10_0_VE125.json,http://54.235.29.9/FacialAge/BNav_EC2/DepthDuration/MX_fS_VE_MTurk/MX_fS_HTML.html#319,319,1920,1080,1920,1080,1-12-2024,17-29-43,30,VR_target_stimuli/s45_1.3x_3.5_377.png,125,1.3x,3.5,0,1988,124,meters,jsons/MX_seq10_0_VE125.json,175874,406765,27,Woman
30,699626,final-intermixed-textured,v2,jsons/MX_seq10_0_VE125.json,http://54.235.29.9/FacialAge/BNav_EC2/DepthDuration/MX_fS_VE_MTurk/MX_fS_HTML.html#319,319,1920,1080,1920,1080,1-12-2024,17-29-43,31,VR_target_stimuli/s23_1x_3.65_353.png,125,1x,3.65,4,2267,125,meters,jsons/MX_seq10_0_VE125.json,175874,406765,27,Woman
31,699626,final-intermixed-textured,v2,jsons/MX_seq10_0_VE125.json,http://54.235.29.9/FacialAge/BNav_EC2/DepthDuration/MX_fS_VE_MTurk/MX_fS_HTML.html#319,319,1920,1080,1920,1080,1-12-2024,17-29-43,32,VR_target_stimuli/s26_1.3x_4_441_BC.png,125,1.3x,4.0,0,2339,125,meters,jsons/MX_seq10_0_VE125.json,175874,406765,27,Woman
32,699626,final-intermixed-textured,v2,jsons/MX_seq10_0_VE125.json,http://54.235.29.9/FacialAge/BNav_EC2/DepthDuration/MX_fS_VE_MTurk/MX_fS_HTML.html#319,319,1920,1080,1920,1080,1-12-2024,17-29-43,33,VR_target_stimuli/s12_0.75x_3.1_364.png,125,0.75x,3.1,0,2355,125,meters,jsons/MX_seq10_0_VE125.json,175874,406765,27,Woman
33,699626,final-intermixed-textured,v2,jsons/MX_seq10_0_VE125.json,http://54.235.29.9/FacialAge/BNav_EC2/DepthDuration/MX_fS_VE_MTurk/MX_fS_HTML.html#319,319,1920,1080,1920,1080,1-12-2024,17-29-43,34,catch_stimuli/c3.png,125,,,0,1995,125,meters,jsons/MX_seq10_0_VE125.json,175874,406765,27,Woman
34,699626,final-intermixed-textured,v2,jsons/MX_seq10_0_VE125.json,http://54.235.29.9/FacialAge/BNav_EC2/DepthDuration/MX_fS_VE_MTurk/MX_fS_HTML.html#319,319,1920,1080,1920,1080,1-12-2024,17-29-43,35,VR_target_stimuli/s30_1.3x_2.3_337_BC.png,125,1.3x,2.3,0,1939,125,meters,jsons/MX_seq10_0_VE125.json,175874,406765,27,Woman
35,699626,final-intermixed-textured,v2,jsons/MX_seq10_0_VE125.json,http://54.235.29.9/FacialAge/BNav_EC2/DepthDuration/MX_fS_VE_MTurk/MX_fS_HTML.html#319,319,1920,1080,1920,1080,1-12-2024,17-29-43,36,VR_target_stimuli/s16_1x_1_219.png,125,1x,1.0,0,1795,126,meters,jsons/MX_seq10_0_VE125.json,175874,406765,27,Woman
36,699626,final-intermixed-textured,v2,jsons/MX_seq10_0_VE125.json,http://54.235.29.9/FacialAge/BNav_EC2/DepthDuration/MX_fS_VE_MTurk/MX_fS_HTML.html#319,319,1920,1080,1920,1080,1-12-2024,17-29-43,37,VR_target_stimuli/s17_0.75x_1.8_285_BC.png,125,0.75x,1.8,4,2451,125,meters,jsons/MX_seq10_0_VE125.json,175874,406765,27,Woman
37,699626,final-intermixed-textured,v2,jsons/MX_seq10_0_VE125.json,http://54.235.29.9/FacialAge/BNav_EC2/DepthDuration/MX_fS_VE_MTurk/MX_fS_HTML.html#319,319,1920,1080,1920,1080,1-12-2024,17-29-43,38,VR_target_stimuli/s5_0.75x_4_375.png,125,0.75x,4.0,0,2291,125,meters,jsons/MX_seq10_0_VE125.json,175874,406765,27,Woman
38,699626,final-intermixed-textured,v2,jsons/MX_seq10_0_VE125.json,http://54.235.29.9/FacialAge/BNav_EC2/DepthDuration/MX_fS_VE_MTurk/MX_fS_HTML.html#319,319,1920,1080,1920,1080,1-12-2024,17-29-43,39,VR_target_stimuli/s37_1.3x_3.3_555.png,125,1.3x,3.3,0,1675,125,meters,jsons/MX_seq10_0_VE125.json,175874,406765,27,Woman
39,699626,final-intermixed-textured,v2,jsons/MX_seq10_0_VE125.json,http://54.235.29.9/FacialAge/BNav_EC2/DepthDuration/MX_fS_VE_MTurk/MX_fS_HTML.html#319,319,1920,1080,1920,1080,1-12-2024,17-29-43,40,VR_target_stimuli/s46_1x_2.42_348_BC.png,125,1x,2.42,0,1732,125,meters,jsons/MX_seq10_0_VE125.json,175874,406765,27,Woman
40,699626,final-intermixed-textured,v2,jsons/MX_seq10_0_VE125.json,http://54.235.29.9/FacialAge/BNav_EC2/DepthDuration/MX_fS_VE_MTurk/MX_fS_HTML.html#319,319,1920,1080,1920,1080,1-12-2024,17-29-43,41,VR_target_stimuli/s22_1.3x_4.29_364_BC.png,125,1.3x,4.29,6,2203,124,meters,jsons/MX_seq10_0_VE125.json,175874,406765,27,Woman
41,699626,final-intermixed-textured,v2,jsons/MX_seq10_0_VE125.json,http://54.235.29.9/FacialAge/BNav_EC2/DepthDuration/MX_fS_VE_MTurk/MX_fS_HTML.html#319,319,1920,1080,1920,1080,1-12-2024,17-29-43,42,VR_target_stimuli/s42_0.75x_3.2_301.png,125,0.75x,3.2,0,1681,125,meters,jsons/MX_seq10_0_VE125.json,175874,406765,27,Woman
42,699626,final-intermixed-textured,v2,jsons/MX_seq10_0_VE125.json,http://54.235.29.9/FacialAge/BNav_EC2/DepthDuration/MX_fS_VE_MTurk/MX_fS_HTML.html#319,319,1920,1080,1920,1080,1-12-2024,17-29-43,43,VR_target_stimuli/s25_1x_1.4_290.png,125,1x,1.4,4,2414,125,meters,jsons/MX_seq10_0_VE125.json,175874,406765,27,Woman
43,699626,final-intermixed-textured,v2,jsons/MX_seq10_0_VE125.json,http://54.235.29.9/FacialAge/BNav_EC2/DepthDuration/MX_fS_VE_MTurk/MX_fS_HTML.html#319,319,1920,1080,1920,1080,1-12-2024,17-29-43,44,VR_target_stimuli/s50_0.75x_4.53_517_BC.png,125,0.75x,4.53,5,2979,125,meters,jsons/MX_seq10_0_VE125.json,175874,406765,27,Woman
44,699626,final-intermixed-textured,v2,jsons/MX_seq10_0_VE125.json,http://54.235.29.9/FacialAge/BNav_EC2/DepthDuration/MX_fS_VE_MTurk/MX_fS_HTML.html#319,319,1920,1080,1920,1080,1-12-2024,17-29-43,45,catch_stimuli/c4.png,125,,,5,2372,124,meters,jsons/MX_seq10_0_VE125.json,175874,406765,27,Woman
45,699626,final-intermixed-textured,v2,jsons/MX_seq10_0_VE125.json,http://54.235.29.9/FacialAge/BNav_EC2/DepthDuration/MX_fS_VE_MTurk/MX_fS_HTML.html#319,319,1920,1080,1920,1080,1-12-2024,17-29-43,46,VR_target_stimuli/s53_1.3x_1.6_355.png,125,1.3x,1.6,3,2563,125,meters,jsons/MX_seq10_0_VE125.json,175874,406765,27,Woman
46,699626,final-intermixed-textured,v2,jsons/MX_seq10_0_VE125.json,http://54.235.29.9/FacialAge/BNav_EC2/DepthDuration/MX_fS_VE_MTurk/MX_fS_HTML.html#319,319,1920,1080,1920,1080,1-12-2024,17-29-43,47,VR_target_stimuli/s38_1x_3.55_353_BC.png,125,1x,3.55,8,3524,124,meters,jsons/MX_seq10_0_VE125.json,175874,406765,27,Woman
47,699626,final-intermixed-textured,v2,jsons/MX_seq10_0_VE125.json,http://54.235.29.9/FacialAge/BNav_EC2/DepthDuration/MX_fS_VE_MTurk/MX_fS_HTML.html#319,319,1920,1080,1920,1080,1-12-2024,17-29-43,48,VR_target_stimuli/s9_1x_1.2_263_BC.png,125,1x,1.2,2,2147,125,meters,jsons/MX_seq10_0_VE125.json,175874,406765,27,Woman
48,699626,final-intermixed-textured,v2,jsons/MX_seq10_0_VE125.json,http://54.235.29.9/FacialAge/BNav_EC2/DepthDuration/MX_fS_VE_MTurk/MX_fS_HTML.html#319,319,1920,1080,1920,1080,1-12-2024,17-29-43,49,VR_target_stimuli/s44_0.75x_4.4_314.png,125,0.75x,4.4,5,2259,125,meters,jsons/MX_seq10_0_VE125.json,175874,406765,27,Woman
49,699626,final-intermixed-textured,v2,jsons/MX_seq10_0_VE125.json,http://54.235.29.9/FacialAge/BNav_EC2/DepthDuration/MX_fS_VE_MTurk/MX_fS_HTML.html#319,319,1920,1080,1920,1080,1-12-2024,17-29-43,50,VR_target_stimuli/s3_1.3x_5_390_BC.png,125,1.3x,5.0,8,2211,125,meters,jsons/MX_seq10_0_VE125.json,175874,406765,27,Woman
50,699626,final-intermixed-textured,v2,jsons/MX_seq10_0_VE125.json,http://54.235.29.9/FacialAge/BNav_EC2/DepthDuration/MX_fS_VE_MTurk/MX_fS_HTML.html#319,319,1920,1080,1920,1080,1-12-2024,17-29-43,51,VR_target_stimuli/s1_0.75x_1.7_265_BC.png,125,0.75x,1.7,4,1908,125,meters,jsons/MX_seq10_0_VE125.json,175874,406765,27,Woman
51,699626,final-intermixed-textured,v2,jsons/MX_seq10_0_VE125.json,http://54.235.29.9/FacialAge/BNav_EC2/DepthDuration/MX_fS_VE_MTurk/MX_fS_HTML.html#319,319,1920,1080,1920,1080,1-12-2024,17-29-43,52,VR_target_stimuli/s11_1x_5_361.png,125,1x,5.0,7,2035,124,meters,jsons/MX_seq10_0_VE125.json,175874,406765,27,Woman
52,699626,final-intermixed-textured,v2,jsons/MX_seq10_0_VE125.json,http://54.235.29.9/FacialAge/BNav_EC2/DepthDuration/MX_fS_VE_MTurk/MX_fS_HTML.html#319,319,1920,1080,1920,1080,1-12-2024,17-29-43,53,catch_stimuli/c5.png,125,,,1,3637,124,meters,jsons/MX_seq10_0_VE125.json,175874,406765,27,Woman
53,699626,final-intermixed-textured,v2,jsons/MX_seq10_0_VE125.json,http://54.235.29.9/FacialAge/BNav_EC2/DepthDuration/MX_fS_VE_MTurk/MX_fS_HTML.html#319,319,1920,1080,1920,1080,1-12-2024,17-29-43,54,VR_target_stimuli/s2_1.3x_2.7_397.png,125,1.3x,2.7,2,1971,126,meters,jsons/MX_seq10_0_VE125.json,175874,406765,27,Woman
54,699626,final-intermixed-textured,v2,jsons/MX_seq10_0_VE125.json,http://54.235.29.9/FacialAge/BNav_EC2/DepthDuration/MX_fS_VE_MTurk/MX_fS_HTML.html#319,319,1920,1080,1920,1080,1-12-2024,17-29-43,55,VR_target_stimuli/s6_1x_2.1_293.png,125,1x,2.1,4,1787,125,meters,jsons/MX_seq10_0_VE125.json,175874,406765,27,Woman
55,699626,final-intermixed-textured,v2,jsons/MX_seq10_0_VE125.json,http://54.235.29.9/FacialAge/BNav_EC2/DepthDuration/MX_fS_VE_MTurk/MX_fS_HTML.html#319,319,1920,1080,1920,1080,1-12-2024,17-29-43,56,VR_target_stimuli/s0_0.75x_2.6_345.png,125,0.75x,2.6,5,2075,125,meters,jsons/MX_seq10_0_VE125.json,175874,406765,27,Woman
56,699626,final-intermixed-textured,v2,jsons/MX_seq10_0_VE125.json,http://54.235.29.9/FacialAge/BNav_EC2/DepthDuration/MX_fS_VE_MTurk/MX_fS_HTML.html#319,319,1920,1080,1920,1080,1-12-2024,17-29-43,57,VR_target_stimuli/s34_1.3x_2.8_294.png,125,1.3x,2.8,4,2043,125,meters,jsons/MX_seq10_0_VE125.json,175874,406765,27,Woman
57,699626,final-intermixed-textured,v2,jsons/MX_seq10_0_VE125.json,http://54.235.29.9/FacialAge/BNav_EC2/DepthDuration/MX_fS_VE_MTurk/MX_fS_HTML.html#319,319,1920,1080,1920,1080,1-12-2024,17-29-43,58,VR_target_stimuli/s13_1.3x_2.4_313_BC.png,125,1.3x,2.4,3,2187,125,meters,jsons/MX_seq10_0_VE125.json,175874,406765,27,Woman
58,699626,final-intermixed-textured,v2,jsons/MX_seq10_0_VE125.json,http://54.235.29.9/FacialAge/BNav_EC2/DepthDuration/MX_fS_VE_MTurk/MX_fS_HTML.html#319,319,1920,1080,1920,1080,1-12-2024,17-29-43,59,VR_target_stimuli/s14_1x_ 3.83_357_BC.png,125,1x,3.83,6,1955,125,meters,jsons/MX_seq10_0_VE125.json,175874,406765,27,Woman
59,699626,final-intermixed-textured,v2,jsons/MX_seq10_0_VE125.json,http://54.235.29.9/FacialAge/BNav_EC2/DepthDuration/MX_fS_VE_MTurk/MX_fS_HTML.html#319,319,1920,1080,1920,1080,1-12-2024,17-29-43,60,VR_target_stimuli/s47_0.75x_3.45_366_BC.png,125,0.75x,3.45,4,2315,125,meters,jsons/MX_seq10_0_VE125.json,175874,406765,27,Woman
