,subjID,experimentName,versionName,sequenceName,url,selected_row,windowWidth,windowHeight,screenWidth,screenHeight,startDate,startTime,trial,stimulus,duration,scale,actual_depth,depth_estimate,trial_RT,log_sceneDuration,unitSelection,seq_filepath,experimentTime,totalTime,age,gender
0,708669,final-intermixed-textured,v2,jsons/MX_seq32_2_VE125.json,http://54.235.29.9/FacialAge/BNav_EC2/DepthDuration/MX_fS_VE_MTurk/MX_fS_HTML.html#183,183,1920,953,1920,1080,1-12-2024,14-46-59,1,VR_target_stimuli/s10_1x_2.7_324.png,125,1x,2.7,0,2858,125,meters,jsons/MX_seq32_2_VE125.json,167728,418522,24,Man
1,708669,final-intermixed-textured,v2,jsons/MX_seq32_2_VE125.json,http://54.235.29.9/FacialAge/BNav_EC2/DepthDuration/MX_fS_VE_MTurk/MX_fS_HTML.html#183,183,1920,953,1920,1080,1-12-2024,14-46-59,2,VR_target_stimuli/s36_1.3x_4.1_442.png,125,1.3x,4.1,0,4370,125,meters,jsons/MX_seq32_2_VE125.json,167728,418522,24,Man
2,708669,final-intermixed-textured,v2,jsons/MX_seq32_2_VE125.json,http://54.235.29.9/FacialAge/BNav_EC2/DepthDuration/MX_fS_VE_MTurk/MX_fS_HTML.html#183,183,1920,953,1920,1080,1-12-2024,14-46-59,3,VR_target_stimuli/s40_0.75x_1.2_308.png,125,0.75x,1.2,0,3182,125,meters,jsons/MX_seq32_2_VE125.json,167728,418522,24,Man
3,708669,final-intermixed-textured,v2,jsons/MX_seq32_2_VE125.json,http://54.235.29.9/FacialAge/BNav_EC2/DepthDuration/MX_fS_VE_MTurk/MX_fS_HTML.html#183,183,1920,953,1920,1080,1-12-2024,14-46-59,4,VR_target_stimuli/s41_1.3x_2.1_294_BC.png,125,1.3x,2.1,1,4123,123,meters,jsons/MX_seq32_2_VE125.json,167728,418522,24,Man
4,708669,final-intermixed-textured,v2,jsons/MX_seq32_2_VE125.json,http://54.235.29.9/FacialAge/BNav_EC2/DepthDuration/MX_fS_VE_MTurk/MX_fS_HTML.html#183,183,1920,953,1920,1080,1-12-2024,14-46-59,5,VR_target_stimuli/s45_1x_3.5_368_BC.png,125,1x,3.5,2,6268,126,meters,jsons/MX_seq32_2_VE125.json,167728,418522,24,Man
5,708669,final-intermixed-textured,v2,jsons/MX_seq32_2_VE125.json,http://54.235.29.9/FacialAge/BNav_EC2/DepthDuration/MX_fS_VE_MTurk/MX_fS_HTML.html#183,183,1920,953,1920,1080,1-12-2024,14-46-59,6,VR_target_stimuli/s23_0.75x_3.65_351_BC.png,125,0.75x,3.65,1,3089,126,meters,jsons/MX_seq32_2_VE125.json,167728,418522,24,Man
6,708669,final-intermixed-textured,v2,jsons/MX_seq32_2_VE125.json,http://54.235.29.9/FacialAge/BNav_EC2/DepthDuration/MX_fS_VE_MTurk/MX_fS_HTML.html#183,183,1920,953,1920,1080,1-12-2024,14-46-59,7,catch_stimuli/c0.png,125,,,0,2252,122,meters,jsons/MX_seq32_2_VE125.json,167728,418522,24,Man
7,708669,final-intermixed-textured,v2,jsons/MX_seq32_2_VE125.json,http://54.235.29.9/FacialAge/BNav_EC2/DepthDuration/MX_fS_VE_MTurk/MX_fS_HTML.html#183,183,1920,953,1920,1080,1-12-2024,14-46-59,8,VR_target_stimuli/s26_0.75x_4_430.png,125,0.75x,4.0,5,3709,124,meters,jsons/MX_seq32_2_VE125.json,167728,418522,24,Man
8,708669,final-intermixed-textured,v2,jsons/MX_seq32_2_VE125.json,http://54.235.29.9/FacialAge/BNav_EC2/DepthDuration/MX_fS_VE_MTurk/MX_fS_HTML.html#183,183,1920,953,1920,1080,1-12-2024,14-46-59,9,VR_target_stimuli/s12_1.3x_3.1_375_BC.png,125,1.3x,3.1,2,2790,126,meters,jsons/MX_seq32_2_VE125.json,167728,418522,24,Man
9,708669,final-intermixed-textured,v2,jsons/MX_seq32_2_VE125.json,http://54.235.29.9/FacialAge/BNav_EC2/DepthDuration/MX_fS_VE_MTurk/MX_fS_HTML.html#183,183,1920,953,1920,1080,1-12-2024,14-46-59,10,VR_target_stimuli/s30_1x_2.3_334.png,125,1x,2.3,3,3792,125,meters,jsons/MX_seq32_2_VE125.json,167728,418522,24,Man
10,708669,final-intermixed-textured,v2,jsons/MX_seq32_2_VE125.json,http://54.235.29.9/FacialAge/BNav_EC2/DepthDuration/MX_fS_VE_MTurk/MX_fS_HTML.html#183,183,1920,953,1920,1080,1-12-2024,14-46-59,11,VR_target_stimuli/s16_1.3x_1_223.png,125,1.3x,1.0,1,2570,126,meters,jsons/MX_seq32_2_VE125.json,167728,418522,24,Man
11,708669,final-intermixed-textured,v2,jsons/MX_seq32_2_VE125.json,http://54.235.29.9/FacialAge/BNav_EC2/DepthDuration/MX_fS_VE_MTurk/MX_fS_HTML.html#183,183,1920,953,1920,1080,1-12-2024,14-46-59,12,VR_target_stimuli/s17_0.75x_1.8_285_BC.png,125,0.75x,1.8,2,2079,122,meters,jsons/MX_seq32_2_VE125.json,167728,418522,24,Man
12,708669,final-intermixed-textured,v2,jsons/MX_seq32_2_VE125.json,http://54.235.29.9/FacialAge/BNav_EC2/DepthDuration/MX_fS_VE_MTurk/MX_fS_HTML.html#183,183,1920,953,1920,1080,1-12-2024,14-46-59,13,VR_target_stimuli/s5_1x_4_378_BC.png,125,1x,4.0,3,2331,126,meters,jsons/MX_seq32_2_VE125.json,167728,418522,24,Man
13,708669,final-intermixed-textured,v2,jsons/MX_seq32_2_VE125.json,http://54.235.29.9/FacialAge/BNav_EC2/DepthDuration/MX_fS_VE_MTurk/MX_fS_HTML.html#183,183,1920,953,1920,1080,1-12-2024,14-46-59,14,VR_target_stimuli/s37_0.75x_3.3_567.png,125,0.75x,3.3,2,2645,110,meters,jsons/MX_seq32_2_VE125.json,167728,418522,24,Man
14,708669,final-intermixed-textured,v2,jsons/MX_seq32_2_VE125.json,http://54.235.29.9/FacialAge/BNav_EC2/DepthDuration/MX_fS_VE_MTurk/MX_fS_HTML.html#183,183,1920,953,1920,1080,1-12-2024,14-46-59,15,VR_target_stimuli/s46_1.3x_2.42_354.png,125,1.3x,2.42,1,2039,123,meters,jsons/MX_seq32_2_VE125.json,167728,418522,24,Man
15,708669,final-intermixed-textured,v2,jsons/MX_seq32_2_VE125.json,http://54.235.29.9/FacialAge/BNav_EC2/DepthDuration/MX_fS_VE_MTurk/MX_fS_HTML.html#183,183,1920,953,1920,1080,1-12-2024,14-46-59,16,VR_target_stimuli/s22_1x_4.29_354.png,125,1x,4.29,2,1954,126,meters,jsons/MX_seq32_2_VE125.json,167728,418522,24,Man
16,708669,final-intermixed-textured,v2,jsons/MX_seq32_2_VE125.json,http://54.235.29.9/FacialAge/BNav_EC2/DepthDuration/MX_fS_VE_MTurk/MX_fS_HTML.html#183,183,1920,953,1920,1080,1-12-2024,14-46-59,17,catch_stimuli/c1.png,125,,,0,2739,137,meters,jsons/MX_seq32_2_VE125.json,167728,418522,24,Man
17,708669,final-intermixed-textured,v2,jsons/MX_seq32_2_VE125.json,http://54.235.29.9/FacialAge/BNav_EC2/DepthDuration/MX_fS_VE_MTurk/MX_fS_HTML.html#183,183,1920,953,1920,1080,1-12-2024,14-46-59,18,VR_target_stimuli/s42_1x_3.2_303_BC.png,125,1x,3.2,2,1922,124,meters,jsons/MX_seq32_2_VE125.json,167728,418522,24,Man
18,708669,final-intermixed-textured,v2,jsons/MX_seq32_2_VE125.json,http://54.235.29.9/FacialAge/BNav_EC2/DepthDuration/MX_fS_VE_MTurk/MX_fS_HTML.html#183,183,1920,953,1920,1080,1-12-2024,14-46-59,19,VR_target_stimuli/s25_0.75x_1.4_281_BC.png,125,0.75x,1.4,1,1658,124,meters,jsons/MX_seq32_2_VE125.json,167728,418522,24,Man
19,708669,final-intermixed-textured,v2,jsons/MX_seq32_2_VE125.json,http://54.235.29.9/FacialAge/BNav_EC2/DepthDuration/MX_fS_VE_MTurk/MX_fS_HTML.html#183,183,1920,953,1920,1080,1-12-2024,14-46-59,20,VR_target_stimuli/s50_1.3x_4.53_518_BC.png,125,1.3x,4.53,1,2322,134,meters,jsons/MX_seq32_2_VE125.json,167728,418522,24,Man
20,708669,final-intermixed-textured,v2,jsons/MX_seq32_2_VE125.json,http://54.235.29.9/FacialAge/BNav_EC2/DepthDuration/MX_fS_VE_MTurk/MX_fS_HTML.html#183,183,1920,953,1920,1080,1-12-2024,14-46-59,21,VR_target_stimuli/s53_0.75x_1.6_403.png,125,0.75x,1.6,1,1785,124,meters,jsons/MX_seq32_2_VE125.json,167728,418522,24,Man
21,708669,final-intermixed-textured,v2,jsons/MX_seq32_2_VE125.json,http://54.235.29.9/FacialAge/BNav_EC2/DepthDuration/MX_fS_VE_MTurk/MX_fS_HTML.html#183,183,1920,953,1920,1080,1-12-2024,14-46-59,22,VR_target_stimuli/s38_1x_3.55_353.png,125,1x,3.55,2,2099,136,meters,jsons/MX_seq32_2_VE125.json,167728,418522,24,Man
22,708669,final-intermixed-textured,v2,jsons/MX_seq32_2_VE125.json,http://54.235.29.9/FacialAge/BNav_EC2/DepthDuration/MX_fS_VE_MTurk/MX_fS_HTML.html#183,183,1920,953,1920,1080,1-12-2024,14-46-59,23,VR_target_stimuli/s9_1.3x_1.2_276.png,125,1.3x,1.2,1,2192,124,meters,jsons/MX_seq32_2_VE125.json,167728,418522,24,Man
23,708669,final-intermixed-textured,v2,jsons/MX_seq32_2_VE125.json,http://54.235.29.9/FacialAge/BNav_EC2/DepthDuration/MX_fS_VE_MTurk/MX_fS_HTML.html#183,183,1920,953,1920,1080,1-12-2024,14-46-59,24,VR_target_stimuli/s44_1x_4.4_317_BC.png,125,1x,4.4,1,1687,126,meters,jsons/MX_seq32_2_VE125.json,167728,418522,24,Man
24,708669,final-intermixed-textured,v2,jsons/MX_seq32_2_VE125.json,http://54.235.29.9/FacialAge/BNav_EC2/DepthDuration/MX_fS_VE_MTurk/MX_fS_HTML.html#183,183,1920,953,1920,1080,1-12-2024,14-46-59,25,VR_target_stimuli/s3_0.75x_5_381_BC.png,125,0.75x,5.0,2,2208,122,meters,jsons/MX_seq32_2_VE125.json,167728,418522,24,Man
25,708669,final-intermixed-textured,v2,jsons/MX_seq32_2_VE125.json,http://54.235.29.9/FacialAge/BNav_EC2/DepthDuration/MX_fS_VE_MTurk/MX_fS_HTML.html#183,183,1920,953,1920,1080,1-12-2024,14-46-59,26,catch_stimuli/c2.png,125,,,0,2891,124,meters,jsons/MX_seq32_2_VE125.json,167728,418522,24,Man
26,708669,final-intermixed-textured,v2,jsons/MX_seq32_2_VE125.json,http://54.235.29.9/FacialAge/BNav_EC2/DepthDuration/MX_fS_VE_MTurk/MX_fS_HTML.html#183,183,1920,953,1920,1080,1-12-2024,14-46-59,27,VR_target_stimuli/s1_1.3x_1.7_261_BC.png,125,1.3x,1.7,1,1663,123,meters,jsons/MX_seq32_2_VE125.json,167728,418522,24,Man
27,708669,final-intermixed-textured,v2,jsons/MX_seq32_2_VE125.json,http://54.235.29.9/FacialAge/BNav_EC2/DepthDuration/MX_fS_VE_MTurk/MX_fS_HTML.html#183,183,1920,953,1920,1080,1-12-2024,14-46-59,28,VR_target_stimuli/s11_1.3x_5_363_BC.png,125,1.3x,5.0,2,2153,124,meters,jsons/MX_seq32_2_VE125.json,167728,418522,24,Man
28,708669,final-intermixed-textured,v2,jsons/MX_seq32_2_VE125.json,http://54.235.29.9/FacialAge/BNav_EC2/DepthDuration/MX_fS_VE_MTurk/MX_fS_HTML.html#183,183,1920,953,1920,1080,1-12-2024,14-46-59,29,VR_target_stimuli/s2_1x_2.7_390_BC.png,125,1x,2.7,1,2579,139,meters,jsons/MX_seq32_2_VE125.json,167728,418522,24,Man
29,708669,final-intermixed-textured,v2,jsons/MX_seq32_2_VE125.json,http://54.235.29.9/FacialAge/BNav_EC2/DepthDuration/MX_fS_VE_MTurk/MX_fS_HTML.html#183,183,1920,953,1920,1080,1-12-2024,14-46-59,30,VR_target_stimuli/s6_0.75x_2.1_290.png,125,0.75x,2.1,1,1683,140,meters,jsons/MX_seq32_2_VE125.json,167728,418522,24,Man
30,708669,final-intermixed-textured,v2,jsons/MX_seq32_2_VE125.json,http://54.235.29.9/FacialAge/BNav_EC2/DepthDuration/MX_fS_VE_MTurk/MX_fS_HTML.html#183,183,1920,953,1920,1080,1-12-2024,14-46-59,31,VR_target_stimuli/s0_1.3x_2.6_356.png,125,1.3x,2.6,1,2066,137,meters,jsons/MX_seq32_2_VE125.json,167728,418522,24,Man
31,708669,final-intermixed-textured,v2,jsons/MX_seq32_2_VE125.json,http://54.235.29.9/FacialAge/BNav_EC2/DepthDuration/MX_fS_VE_MTurk/MX_fS_HTML.html#183,183,1920,953,1920,1080,1-12-2024,14-46-59,32,VR_target_stimuli/s34_0.75x_2.8_269_BC.png,125,0.75x,2.8,1,1683,124,meters,jsons/MX_seq32_2_VE125.json,167728,418522,24,Man
32,708669,final-intermixed-textured,v2,jsons/MX_seq32_2_VE125.json,http://54.235.29.9/FacialAge/BNav_EC2/DepthDuration/MX_fS_VE_MTurk/MX_fS_HTML.html#183,183,1920,953,1920,1080,1-12-2024,14-46-59,33,VR_target_stimuli/s13_1x_2.4_310.png,125,1x,2.4,1,1802,125,meters,jsons/MX_seq32_2_VE125.json,167728,418522,24,Man
33,708669,final-intermixed-textured,v2,jsons/MX_seq32_2_VE125.json,http://54.235.29.9/FacialAge/BNav_EC2/DepthDuration/MX_fS_VE_MTurk/MX_fS_HTML.html#183,183,1920,953,1920,1080,1-12-2024,14-46-59,34,catch_stimuli/c3.png,125,,,0,2572,111,meters,jsons/MX_seq32_2_VE125.json,167728,418522,24,Man
34,708669,final-intermixed-textured,v2,jsons/MX_seq32_2_VE125.json,http://54.235.29.9/FacialAge/BNav_EC2/DepthDuration/MX_fS_VE_MTurk/MX_fS_HTML.html#183,183,1920,953,1920,1080,1-12-2024,14-46-59,35,VR_target_stimuli/s14_0.75x_3.83_355.png,125,0.75x,3.83,1,2825,126,meters,jsons/MX_seq32_2_VE125.json,167728,418522,24,Man
35,708669,final-intermixed-textured,v2,jsons/MX_seq32_2_VE125.json,http://54.235.29.9/FacialAge/BNav_EC2/DepthDuration/MX_fS_VE_MTurk/MX_fS_HTML.html#183,183,1920,953,1920,1080,1-12-2024,14-46-59,36,VR_target_stimuli/s47_1.3x_3.45_373_BC.png,125,1.3x,3.45,2,1825,124,meters,jsons/MX_seq32_2_VE125.json,167728,418522,24,Man
36,708669,final-intermixed-textured,v2,jsons/MX_seq32_2_VE125.json,http://54.235.29.9/FacialAge/BNav_EC2/DepthDuration/MX_fS_VE_MTurk/MX_fS_HTML.html#183,183,1920,953,1920,1080,1-12-2024,14-46-59,37,VR_target_stimuli/s29_1x_1.3_250_BC.png,125,1x,1.3,1,1514,126,meters,jsons/MX_seq32_2_VE125.json,167728,418522,24,Man
37,708669,final-intermixed-textured,v2,jsons/MX_seq32_2_VE125.json,http://54.235.29.9/FacialAge/BNav_EC2/DepthDuration/MX_fS_VE_MTurk/MX_fS_HTML.html#183,183,1920,953,1920,1080,1-12-2024,14-46-59,38,VR_target_stimuli/s28_1x_3.2_362.png,125,1x,3.2,2,1684,125,meters,jsons/MX_seq32_2_VE125.json,167728,418522,24,Man
38,708669,final-intermixed-textured,v2,jsons/MX_seq32_2_VE125.json,http://54.235.29.9/FacialAge/BNav_EC2/DepthDuration/MX_fS_VE_MTurk/MX_fS_HTML.html#183,183,1920,953,1920,1080,1-12-2024,14-46-59,39,VR_target_stimuli/s48_0.75x_2.55_243_BC.png,125,0.75x,2.55,2,1859,137,meters,jsons/MX_seq32_2_VE125.json,167728,418522,24,Man
39,708669,final-intermixed-textured,v2,jsons/MX_seq32_2_VE125.json,http://54.235.29.9/FacialAge/BNav_EC2/DepthDuration/MX_fS_VE_MTurk/MX_fS_HTML.html#183,183,1920,953,1920,1080,1-12-2024,14-46-59,40,VR_target_stimuli/s19_1.3x_1.21_270.png,125,1.3x,1.21,1,1778,126,meters,jsons/MX_seq32_2_VE125.json,167728,418522,24,Man
40,708669,final-intermixed-textured,v2,jsons/MX_seq32_2_VE125.json,http://54.235.29.9/FacialAge/BNav_EC2/DepthDuration/MX_fS_VE_MTurk/MX_fS_HTML.html#183,183,1920,953,1920,1080,1-12-2024,14-46-59,41,VR_target_stimuli/s21_0.75x_4.22_374.png,125,0.75x,4.22,2,1961,127,meters,jsons/MX_seq32_2_VE125.json,167728,418522,24,Man
41,708669,final-intermixed-textured,v2,jsons/MX_seq32_2_VE125.json,http://54.235.29.9/FacialAge/BNav_EC2/DepthDuration/MX_fS_VE_MTurk/MX_fS_HTML.html#183,183,1920,953,1920,1080,1-12-2024,14-46-59,42,VR_target_stimuli/s8_1x_3.1_332.png,125,1x,3.1,2,2284,127,meters,jsons/MX_seq32_2_VE125.json,167728,418522,24,Man
42,708669,final-intermixed-textured,v2,jsons/MX_seq32_2_VE125.json,http://54.235.29.9/FacialAge/BNav_EC2/DepthDuration/MX_fS_VE_MTurk/MX_fS_HTML.html#183,183,1920,953,1920,1080,1-12-2024,14-46-59,43,VR_target_stimuli/s27_1.3x_1.76_250.png,125,1.3x,1.76,1,1783,124,meters,jsons/MX_seq32_2_VE125.json,167728,418522,24,Man
43,708669,final-intermixed-textured,v2,jsons/MX_seq32_2_VE125.json,http://54.235.29.9/FacialAge/BNav_EC2/DepthDuration/MX_fS_VE_MTurk/MX_fS_HTML.html#183,183,1920,953,1920,1080,1-12-2024,14-46-59,44,VR_target_stimuli/s15_1x_4.2_390_BC.png,125,1x,4.2,2,1654,125,meters,jsons/MX_seq32_2_VE125.json,167728,418522,24,Man
44,708669,final-intermixed-textured,v2,jsons/MX_seq32_2_VE125.json,http://54.235.29.9/FacialAge/BNav_EC2/DepthDuration/MX_fS_VE_MTurk/MX_fS_HTML.html#183,183,1920,953,1920,1080,1-12-2024,14-46-59,45,catch_stimuli/c4.png,125,,,0,2626,123,meters,jsons/MX_seq32_2_VE125.json,167728,418522,24,Man
45,708669,final-intermixed-textured,v2,jsons/MX_seq32_2_VE125.json,http://54.235.29.9/FacialAge/BNav_EC2/DepthDuration/MX_fS_VE_MTurk/MX_fS_HTML.html#183,183,1920,953,1920,1080,1-12-2024,14-46-59,46,VR_target_stimuli/s4_0.75x_1.4_301_BC.png,125,0.75x,1.4,1,1529,126,meters,jsons/MX_seq32_2_VE125.json,167728,418522,24,Man
46,708669,final-intermixed-textured,v2,jsons/MX_seq32_2_VE125.json,http://54.235.29.9/FacialAge/BNav_EC2/DepthDuration/MX_fS_VE_MTurk/MX_fS_HTML.html#183,183,1920,953,1920,1080,1-12-2024,14-46-59,47,VR_target_stimuli/s35_1.3x_2_338_BC.png,125,1.3x,2.0,1,1735,125,meters,jsons/MX_seq32_2_VE125.json,167728,418522,24,Man
47,708669,final-intermixed-textured,v2,jsons/MX_seq32_2_VE125.json,http://54.235.29.9/FacialAge/BNav_EC2/DepthDuration/MX_fS_VE_MTurk/MX_fS_HTML.html#183,183,1920,953,1920,1080,1-12-2024,14-46-59,48,VR_target_stimuli/s49_1.3x_4.67_354.png,125,1.3x,4.67,2,1429,111,meters,jsons/MX_seq32_2_VE125.json,167728,418522,24,Man
48,708669,final-intermixed-textured,v2,jsons/MX_seq32_2_VE125.json,http://54.235.29.9/FacialAge/BNav_EC2/DepthDuration/MX_fS_VE_MTurk/MX_fS_HTML.html#183,183,1920,953,1920,1080,1-12-2024,14-46-59,49,VR_target_stimuli/s7_1x_1.5_255_BC.png,125,1x,1.5,1,1731,126,meters,jsons/MX_seq32_2_VE125.json,167728,418522,24,Man
49,708669,final-intermixed-textured,v2,jsons/MX_seq32_2_VE125.json,http://54.235.29.9/FacialAge/BNav_EC2/DepthDuration/MX_fS_VE_MTurk/MX_fS_HTML.html#183,183,1920,953,1920,1080,1-12-2024,14-46-59,50,VR_target_stimuli/s20_0.75x_4.99_390.png,125,0.75x,4.99,2,1415,125,meters,jsons/MX_seq32_2_VE125.json,167728,418522,24,Man
50,708669,final-intermixed-textured,v2,jsons/MX_seq32_2_VE125.json,http://54.235.29.9/FacialAge/BNav_EC2/DepthDuration/MX_fS_VE_MTurk/MX_fS_HTML.html#183,183,1920,953,1920,1080,1-12-2024,14-46-59,51,VR_target_stimuli/s31_1x_4.96_333.png,125,1x,4.96,0,2642,126,meters,jsons/MX_seq32_2_VE125.json,167728,418522,24,Man
51,708669,final-intermixed-textured,v2,jsons/MX_seq32_2_VE125.json,http://54.235.29.9/FacialAge/BNav_EC2/DepthDuration/MX_fS_VE_MTurk/MX_fS_HTML.html#183,183,1920,953,1920,1080,1-12-2024,14-46-59,52,VR_target_stimuli/s33_1.3x_3.1_378_BC.png,125,1.3x,3.1,1,1456,127,meters,jsons/MX_seq32_2_VE125.json,167728,418522,24,Man
52,708669,final-intermixed-textured,v2,jsons/MX_seq32_2_VE125.json,http://54.235.29.9/FacialAge/BNav_EC2/DepthDuration/MX_fS_VE_MTurk/MX_fS_HTML.html#183,183,1920,953,1920,1080,1-12-2024,14-46-59,53,catch_stimuli/c5.png,125,,,0,2861,127,meters,jsons/MX_seq32_2_VE125.json,167728,418522,24,Man
53,708669,final-intermixed-textured,v2,jsons/MX_seq32_2_VE125.json,http://54.235.29.9/FacialAge/BNav_EC2/DepthDuration/MX_fS_VE_MTurk/MX_fS_HTML.html#183,183,1920,953,1920,1080,1-12-2024,14-46-59,54,VR_target_stimuli/s52_0.75x_3.2_270_BC.png,125,0.75x,3.2,3,2113,127,meters,jsons/MX_seq32_2_VE125.json,167728,418522,24,Man
54,708669,final-intermixed-textured,v2,jsons/MX_seq32_2_VE125.json,http://54.235.29.9/FacialAge/BNav_EC2/DepthDuration/MX_fS_VE_MTurk/MX_fS_HTML.html#183,183,1920,953,1920,1080,1-12-2024,14-46-59,55,VR_target_stimuli/s32_1.3x_1.5_224.png,125,1.3x,1.5,1,2096,126,meters,jsons/MX_seq32_2_VE125.json,167728,418522,24,Man
55,708669,final-intermixed-textured,v2,jsons/MX_seq32_2_VE125.json,http://54.235.29.9/FacialAge/BNav_EC2/DepthDuration/MX_fS_VE_MTurk/MX_fS_HTML.html#183,183,1920,953,1920,1080,1-12-2024,14-46-59,56,VR_target_stimuli/s18_1x_2.25_353_BC.png,125,1x,2.25,1,1529,125,meters,jsons/MX_seq32_2_VE125.json,167728,418522,24,Man
56,708669,final-intermixed-textured,v2,jsons/MX_seq32_2_VE125.json,http://54.235.29.9/FacialAge/BNav_EC2/DepthDuration/MX_fS_VE_MTurk/MX_fS_HTML.html#183,183,1920,953,1920,1080,1-12-2024,14-46-59,57,VR_target_stimuli/s39_0.75x_1_205_BC.png,125,0.75x,1.0,1,1994,124,meters,jsons/MX_seq32_2_VE125.json,167728,418522,24,Man
57,708669,final-intermixed-textured,v2,jsons/MX_seq32_2_VE125.json,http://54.235.29.9/FacialAge/BNav_EC2/DepthDuration/MX_fS_VE_MTurk/MX_fS_HTML.html#183,183,1920,953,1920,1080,1-12-2024,14-46-59,58,VR_target_stimuli/s51_0.75x_3.64_460.png,125,0.75x,3.64,2,1933,125,meters,jsons/MX_seq32_2_VE125.json,167728,418522,24,Man
58,708669,final-intermixed-textured,v2,jsons/MX_seq32_2_VE125.json,http://54.235.29.9/FacialAge/BNav_EC2/DepthDuration/MX_fS_VE_MTurk/MX_fS_HTML.html#183,183,1920,953,1920,1080,1-12-2024,14-46-59,59,VR_target_stimuli/s43_1.3x_2.2_363_BC.png,125,1.3x,2.2,1,1413,124,meters,jsons/MX_seq32_2_VE125.json,167728,418522,24,Man
59,708669,final-intermixed-textured,v2,jsons/MX_seq32_2_VE125.json,http://54.235.29.9/FacialAge/BNav_EC2/DepthDuration/MX_fS_VE_MTurk/MX_fS_HTML.html#183,183,1920,953,1920,1080,1-12-2024,14-46-59,60,VR_target_stimuli/s24_1x_3.3_349.png,125,1x,3.3,3,1931,125,meters,jsons/MX_seq32_2_VE125.json,167728,418522,24,Man
