,subjID,experimentName,versionName,sequenceName,url,selected_row,windowWidth,windowHeight,screenWidth,screenHeight,startDate,startTime,trial,stimulus,duration,scale,actual_depth,depth_estimate,trial_RT,log_sceneDuration,unitSelection,seq_filepath,experimentTime,totalTime,age,gender
0,712487,final-intermixed-textured,v2,jsons/MX_seq33_2_VE125.json,http://54.235.29.9/FacialAge/BNav_EC2/DepthDuration/MX_fS_VE_MTurk/MX_fS_HTML.html#213,213,1920,1080,1920,1080,1-12-2024,15-25-23,1,VR_target_stimuli/s36_1x_4.1_423_BC.png,125,1x,4.1,10,4458,125,meters,jsons/MX_seq33_2_VE125.json,183015,1364925,22,Man
1,712487,final-intermixed-textured,v2,jsons/MX_seq33_2_VE125.json,http://54.235.29.9/FacialAge/BNav_EC2/DepthDuration/MX_fS_VE_MTurk/MX_fS_HTML.html#213,213,1920,1080,1920,1080,1-12-2024,15-25-23,2,VR_target_stimuli/s40_1.3x_1.2_332.png,125,1.3x,1.2,5,3944,124,meters,jsons/MX_seq33_2_VE125.json,183015,1364925,22,Man
2,712487,final-intermixed-textured,v2,jsons/MX_seq33_2_VE125.json,http://54.235.29.9/FacialAge/BNav_EC2/DepthDuration/MX_fS_VE_MTurk/MX_fS_HTML.html#213,213,1920,1080,1920,1080,1-12-2024,15-25-23,3,VR_target_stimuli/s41_0.75x_2.1_281.png,125,0.75x,2.1,10,3215,117,meters,jsons/MX_seq33_2_VE125.json,183015,1364925,22,Man
3,712487,final-intermixed-textured,v2,jsons/MX_seq33_2_VE125.json,http://54.235.29.9/FacialAge/BNav_EC2/DepthDuration/MX_fS_VE_MTurk/MX_fS_HTML.html#213,213,1920,1080,1920,1080,1-12-2024,15-25-23,4,VR_target_stimuli/s45_1.3x_3.5_377_BC.png,125,1.3x,3.5,10,2882,122,meters,jsons/MX_seq33_2_VE125.json,183015,1364925,22,Man
4,712487,final-intermixed-textured,v2,jsons/MX_seq33_2_VE125.json,http://54.235.29.9/FacialAge/BNav_EC2/DepthDuration/MX_fS_VE_MTurk/MX_fS_HTML.html#213,213,1920,1080,1920,1080,1-12-2024,15-25-23,5,VR_target_stimuli/s23_1x_3.65_353.png,125,1x,3.65,10,3212,123,meters,jsons/MX_seq33_2_VE125.json,183015,1364925,22,Man
5,712487,final-intermixed-textured,v2,jsons/MX_seq33_2_VE125.json,http://54.235.29.9/FacialAge/BNav_EC2/DepthDuration/MX_fS_VE_MTurk/MX_fS_HTML.html#213,213,1920,1080,1920,1080,1-12-2024,15-25-23,6,VR_target_stimuli/s26_0.75x_4_430_BC.png,125,0.75x,4.0,10,2472,126,meters,jsons/MX_seq33_2_VE125.json,183015,1364925,22,Man
6,712487,final-intermixed-textured,v2,jsons/MX_seq33_2_VE125.json,http://54.235.29.9/FacialAge/BNav_EC2/DepthDuration/MX_fS_VE_MTurk/MX_fS_HTML.html#213,213,1920,1080,1920,1080,1-12-2024,15-25-23,7,catch_stimuli/c0.png,125,,,0,2397,123,meters,jsons/MX_seq33_2_VE125.json,183015,1364925,22,Man
7,712487,final-intermixed-textured,v2,jsons/MX_seq33_2_VE125.json,http://54.235.29.9/FacialAge/BNav_EC2/DepthDuration/MX_fS_VE_MTurk/MX_fS_HTML.html#213,213,1920,1080,1920,1080,1-12-2024,15-25-23,8,VR_target_stimuli/s12_0.75x_3.1_364_BC.png,125,0.75x,3.1,10,2727,124,meters,jsons/MX_seq33_2_VE125.json,183015,1364925,22,Man
8,712487,final-intermixed-textured,v2,jsons/MX_seq33_2_VE125.json,http://54.235.29.9/FacialAge/BNav_EC2/DepthDuration/MX_fS_VE_MTurk/MX_fS_HTML.html#213,213,1920,1080,1920,1080,1-12-2024,15-25-23,9,VR_target_stimuli/s30_1.3x_2.3_337_BC.png,125,1.3x,2.3,10,2641,137,meters,jsons/MX_seq33_2_VE125.json,183015,1364925,22,Man
9,712487,final-intermixed-textured,v2,jsons/MX_seq33_2_VE125.json,http://54.235.29.9/FacialAge/BNav_EC2/DepthDuration/MX_fS_VE_MTurk/MX_fS_HTML.html#213,213,1920,1080,1920,1080,1-12-2024,15-25-23,10,VR_target_stimuli/s16_1x_1_219.png,125,1x,1.0,5,2353,122,meters,jsons/MX_seq33_2_VE125.json,183015,1364925,22,Man
10,712487,final-intermixed-textured,v2,jsons/MX_seq33_2_VE125.json,http://54.235.29.9/FacialAge/BNav_EC2/DepthDuration/MX_fS_VE_MTurk/MX_fS_HTML.html#213,213,1920,1080,1920,1080,1-12-2024,15-25-23,11,VR_target_stimuli/s17_1.3x_1.8_300.png,125,1.3x,1.8,10,2811,124,meters,jsons/MX_seq33_2_VE125.json,183015,1364925,22,Man
11,712487,final-intermixed-textured,v2,jsons/MX_seq33_2_VE125.json,http://54.235.29.9/FacialAge/BNav_EC2/DepthDuration/MX_fS_VE_MTurk/MX_fS_HTML.html#213,213,1920,1080,1920,1080,1-12-2024,15-25-23,12,VR_target_stimuli/s5_0.75x_4_375.png,125,0.75x,4.0,10,2495,123,meters,jsons/MX_seq33_2_VE125.json,183015,1364925,22,Man
12,712487,final-intermixed-textured,v2,jsons/MX_seq33_2_VE125.json,http://54.235.29.9/FacialAge/BNav_EC2/DepthDuration/MX_fS_VE_MTurk/MX_fS_HTML.html#213,213,1920,1080,1920,1080,1-12-2024,15-25-23,13,VR_target_stimuli/s37_1x_3.3_563_BC.png,125,1x,3.3,15,2716,137,meters,jsons/MX_seq33_2_VE125.json,183015,1364925,22,Man
13,712487,final-intermixed-textured,v2,jsons/MX_seq33_2_VE125.json,http://54.235.29.9/FacialAge/BNav_EC2/DepthDuration/MX_fS_VE_MTurk/MX_fS_HTML.html#213,213,1920,1080,1920,1080,1-12-2024,15-25-23,14,VR_target_stimuli/s46_0.75x_2.42_343_BC.png,125,0.75x,2.42,10,3175,113,meters,jsons/MX_seq33_2_VE125.json,183015,1364925,22,Man
14,712487,final-intermixed-textured,v2,jsons/MX_seq33_2_VE125.json,http://54.235.29.9/FacialAge/BNav_EC2/DepthDuration/MX_fS_VE_MTurk/MX_fS_HTML.html#213,213,1920,1080,1920,1080,1-12-2024,15-25-23,15,VR_target_stimuli/s22_1.3x_4.29_364.png,125,1.3x,4.29,10,2945,123,meters,jsons/MX_seq33_2_VE125.json,183015,1364925,22,Man
15,712487,final-intermixed-textured,v2,jsons/MX_seq33_2_VE125.json,http://54.235.29.9/FacialAge/BNav_EC2/DepthDuration/MX_fS_VE_MTurk/MX_fS_HTML.html#213,213,1920,1080,1920,1080,1-12-2024,15-25-23,16,VR_target_stimuli/s42_1x_3.2_303_BC.png,125,1x,3.2,10,2616,125,meters,jsons/MX_seq33_2_VE125.json,183015,1364925,22,Man
16,712487,final-intermixed-textured,v2,jsons/MX_seq33_2_VE125.json,http://54.235.29.9/FacialAge/BNav_EC2/DepthDuration/MX_fS_VE_MTurk/MX_fS_HTML.html#213,213,1920,1080,1920,1080,1-12-2024,15-25-23,17,catch_stimuli/c1.png,125,,,0,1969,124,meters,jsons/MX_seq33_2_VE125.json,183015,1364925,22,Man
17,712487,final-intermixed-textured,v2,jsons/MX_seq33_2_VE125.json,http://54.235.29.9/FacialAge/BNav_EC2/DepthDuration/MX_fS_VE_MTurk/MX_fS_HTML.html#213,213,1920,1080,1920,1080,1-12-2024,15-25-23,18,VR_target_stimuli/s25_1x_1.4_290.png,125,1x,1.4,0,1994,121,meters,jsons/MX_seq33_2_VE125.json,183015,1364925,22,Man
18,712487,final-intermixed-textured,v2,jsons/MX_seq33_2_VE125.json,http://54.235.29.9/FacialAge/BNav_EC2/DepthDuration/MX_fS_VE_MTurk/MX_fS_HTML.html#213,213,1920,1080,1920,1080,1-12-2024,15-25-23,19,VR_target_stimuli/s50_0.75x_4.53_517.png,125,0.75x,4.53,15,2478,122,meters,jsons/MX_seq33_2_VE125.json,183015,1364925,22,Man
19,712487,final-intermixed-textured,v2,jsons/MX_seq33_2_VE125.json,http://54.235.29.9/FacialAge/BNav_EC2/DepthDuration/MX_fS_VE_MTurk/MX_fS_HTML.html#213,213,1920,1080,1920,1080,1-12-2024,15-25-23,20,VR_target_stimuli/s53_1.3x_1.6_355_BC.png,125,1.3x,1.6,10,2160,124,meters,jsons/MX_seq33_2_VE125.json,183015,1364925,22,Man
20,712487,final-intermixed-textured,v2,jsons/MX_seq33_2_VE125.json,http://54.235.29.9/FacialAge/BNav_EC2/DepthDuration/MX_fS_VE_MTurk/MX_fS_HTML.html#213,213,1920,1080,1920,1080,1-12-2024,15-25-23,21,VR_target_stimuli/s38_0.75x_3.55_346_BC.png,125,0.75x,3.55,10,2812,128,meters,jsons/MX_seq33_2_VE125.json,183015,1364925,22,Man
21,712487,final-intermixed-textured,v2,jsons/MX_seq33_2_VE125.json,http://54.235.29.9/FacialAge/BNav_EC2/DepthDuration/MX_fS_VE_MTurk/MX_fS_HTML.html#213,213,1920,1080,1920,1080,1-12-2024,15-25-23,22,VR_target_stimuli/s9_1x_1.2_263.png,125,1x,1.2,5,3469,125,meters,jsons/MX_seq33_2_VE125.json,183015,1364925,22,Man
22,712487,final-intermixed-textured,v2,jsons/MX_seq33_2_VE125.json,http://54.235.29.9/FacialAge/BNav_EC2/DepthDuration/MX_fS_VE_MTurk/MX_fS_HTML.html#213,213,1920,1080,1920,1080,1-12-2024,15-25-23,23,VR_target_stimuli/s44_1.3x_4.4_325.png,125,1.3x,4.4,10,2639,124,meters,jsons/MX_seq33_2_VE125.json,183015,1364925,22,Man
23,712487,final-intermixed-textured,v2,jsons/MX_seq33_2_VE125.json,http://54.235.29.9/FacialAge/BNav_EC2/DepthDuration/MX_fS_VE_MTurk/MX_fS_HTML.html#213,213,1920,1080,1920,1080,1-12-2024,15-25-23,24,VR_target_stimuli/s3_1x_5_385_BC.png,125,1x,5.0,10,2575,125,meters,jsons/MX_seq33_2_VE125.json,183015,1364925,22,Man
24,712487,final-intermixed-textured,v2,jsons/MX_seq33_2_VE125.json,http://54.235.29.9/FacialAge/BNav_EC2/DepthDuration/MX_fS_VE_MTurk/MX_fS_HTML.html#213,213,1920,1080,1920,1080,1-12-2024,15-25-23,25,VR_target_stimuli/s1_0.75x_1.7_265.png,125,0.75x,1.7,5,3536,124,meters,jsons/MX_seq33_2_VE125.json,183015,1364925,22,Man
25,712487,final-intermixed-textured,v2,jsons/MX_seq33_2_VE125.json,http://54.235.29.9/FacialAge/BNav_EC2/DepthDuration/MX_fS_VE_MTurk/MX_fS_HTML.html#213,213,1920,1080,1920,1080,1-12-2024,15-25-23,26,catch_stimuli/c2.png,125,,,0,2004,124,meters,jsons/MX_seq33_2_VE125.json,183015,1364925,22,Man
26,712487,final-intermixed-textured,v2,jsons/MX_seq33_2_VE125.json,http://54.235.29.9/FacialAge/BNav_EC2/DepthDuration/MX_fS_VE_MTurk/MX_fS_HTML.html#213,213,1920,1080,1920,1080,1-12-2024,15-25-23,27,VR_target_stimuli/s11_1.3x_5_363_BC.png,125,1.3x,5.0,15,2187,124,meters,jsons/MX_seq33_2_VE125.json,183015,1364925,22,Man
27,712487,final-intermixed-textured,v2,jsons/MX_seq33_2_VE125.json,http://54.235.29.9/FacialAge/BNav_EC2/DepthDuration/MX_fS_VE_MTurk/MX_fS_HTML.html#213,213,1920,1080,1920,1080,1-12-2024,15-25-23,28,VR_target_stimuli/s2_1.3x_2.7_397.png,125,1.3x,2.7,5,2055,122,meters,jsons/MX_seq33_2_VE125.json,183015,1364925,22,Man
28,712487,final-intermixed-textured,v2,jsons/MX_seq33_2_VE125.json,http://54.235.29.9/FacialAge/BNav_EC2/DepthDuration/MX_fS_VE_MTurk/MX_fS_HTML.html#213,213,1920,1080,1920,1080,1-12-2024,15-25-23,29,VR_target_stimuli/s6_1x_2.1_293_BC.png,125,1x,2.1,5,2122,138,meters,jsons/MX_seq33_2_VE125.json,183015,1364925,22,Man
29,712487,final-intermixed-textured,v2,jsons/MX_seq33_2_VE125.json,http://54.235.29.9/FacialAge/BNav_EC2/DepthDuration/MX_fS_VE_MTurk/MX_fS_HTML.html#213,213,1920,1080,1920,1080,1-12-2024,15-25-23,30,VR_target_stimuli/s0_0.75x_2.6_345_BC.png,125,0.75x,2.6,5,2360,124,meters,jsons/MX_seq33_2_VE125.json,183015,1364925,22,Man
30,712487,final-intermixed-textured,v2,jsons/MX_seq33_2_VE125.json,http://54.235.29.9/FacialAge/BNav_EC2/DepthDuration/MX_fS_VE_MTurk/MX_fS_HTML.html#213,213,1920,1080,1920,1080,1-12-2024,15-25-23,31,VR_target_stimuli/s34_1.3x_2.8_294_BC.png,125,1.3x,2.8,10,3142,123,meters,jsons/MX_seq33_2_VE125.json,183015,1364925,22,Man
31,712487,final-intermixed-textured,v2,jsons/MX_seq33_2_VE125.json,http://54.235.29.9/FacialAge/BNav_EC2/DepthDuration/MX_fS_VE_MTurk/MX_fS_HTML.html#213,213,1920,1080,1920,1080,1-12-2024,15-25-23,32,VR_target_stimuli/s13_0.75x_2.4_308.png,125,0.75x,2.4,10,2596,123,meters,jsons/MX_seq33_2_VE125.json,183015,1364925,22,Man
32,712487,final-intermixed-textured,v2,jsons/MX_seq33_2_VE125.json,http://54.235.29.9/FacialAge/BNav_EC2/DepthDuration/MX_fS_VE_MTurk/MX_fS_HTML.html#213,213,1920,1080,1920,1080,1-12-2024,15-25-23,33,VR_target_stimuli/s14_1x_ 3.83_357.png,125,1x,3.83,10,3037,125,meters,jsons/MX_seq33_2_VE125.json,183015,1364925,22,Man
33,712487,final-intermixed-textured,v2,jsons/MX_seq33_2_VE125.json,http://54.235.29.9/FacialAge/BNav_EC2/DepthDuration/MX_fS_VE_MTurk/MX_fS_HTML.html#213,213,1920,1080,1920,1080,1-12-2024,15-25-23,34,catch_stimuli/c3.png,125,,,0,1889,121,meters,jsons/MX_seq33_2_VE125.json,183015,1364925,22,Man
34,712487,final-intermixed-textured,v2,jsons/MX_seq33_2_VE125.json,http://54.235.29.9/FacialAge/BNav_EC2/DepthDuration/MX_fS_VE_MTurk/MX_fS_HTML.html#213,213,1920,1080,1920,1080,1-12-2024,15-25-23,35,VR_target_stimuli/s47_0.75x_3.45_366_BC.png,125,0.75x,3.45,10,2494,124,meters,jsons/MX_seq33_2_VE125.json,183015,1364925,22,Man
35,712487,final-intermixed-textured,v2,jsons/MX_seq33_2_VE125.json,http://54.235.29.9/FacialAge/BNav_EC2/DepthDuration/MX_fS_VE_MTurk/MX_fS_HTML.html#213,213,1920,1080,1920,1080,1-12-2024,15-25-23,36,VR_target_stimuli/s29_1.3x_1.3_253.png,125,1.3x,1.3,5,2257,122,meters,jsons/MX_seq33_2_VE125.json,183015,1364925,22,Man
36,712487,final-intermixed-textured,v2,jsons/MX_seq33_2_VE125.json,http://54.235.29.9/FacialAge/BNav_EC2/DepthDuration/MX_fS_VE_MTurk/MX_fS_HTML.html#213,213,1920,1080,1920,1080,1-12-2024,15-25-23,37,VR_target_stimuli/s28_1x_3.2_362.png,125,1x,3.2,0,2065,139,meters,jsons/MX_seq33_2_VE125.json,183015,1364925,22,Man
37,712487,final-intermixed-textured,v2,jsons/MX_seq33_2_VE125.json,http://54.235.29.9/FacialAge/BNav_EC2/DepthDuration/MX_fS_VE_MTurk/MX_fS_HTML.html#213,213,1920,1080,1920,1080,1-12-2024,15-25-23,38,VR_target_stimuli/s48_1x_2.55_256_BC.png,125,1x,2.55,5,2600,122,meters,jsons/MX_seq33_2_VE125.json,183015,1364925,22,Man
38,712487,final-intermixed-textured,v2,jsons/MX_seq33_2_VE125.json,http://54.235.29.9/FacialAge/BNav_EC2/DepthDuration/MX_fS_VE_MTurk/MX_fS_HTML.html#213,213,1920,1080,1920,1080,1-12-2024,15-25-23,39,VR_target_stimuli/s19_0.75x_1.21_257.png,125,0.75x,1.21,5,2281,123,meters,jsons/MX_seq33_2_VE125.json,183015,1364925,22,Man
39,712487,final-intermixed-textured,v2,jsons/MX_seq33_2_VE125.json,http://54.235.29.9/FacialAge/BNav_EC2/DepthDuration/MX_fS_VE_MTurk/MX_fS_HTML.html#213,213,1920,1080,1920,1080,1-12-2024,15-25-23,40,VR_target_stimuli/s21_1.3x_4.22_384_BC.png,125,1.3x,4.22,5,2267,124,meters,jsons/MX_seq33_2_VE125.json,183015,1364925,22,Man
40,712487,final-intermixed-textured,v2,jsons/MX_seq33_2_VE125.json,http://54.235.29.9/FacialAge/BNav_EC2/DepthDuration/MX_fS_VE_MTurk/MX_fS_HTML.html#213,213,1920,1080,1920,1080,1-12-2024,15-25-23,41,VR_target_stimuli/s8_0.75x_3.1_325.png,125,0.75x,3.1,10,2994,124,meters,jsons/MX_seq33_2_VE125.json,183015,1364925,22,Man
41,712487,final-intermixed-textured,v2,jsons/MX_seq33_2_VE125.json,http://54.235.29.9/FacialAge/BNav_EC2/DepthDuration/MX_fS_VE_MTurk/MX_fS_HTML.html#213,213,1920,1080,1920,1080,1-12-2024,15-25-23,42,VR_target_stimuli/s27_1x_1.76_248_BC.png,125,1x,1.76,5,2123,123,meters,jsons/MX_seq33_2_VE125.json,183015,1364925,22,Man
42,712487,final-intermixed-textured,v2,jsons/MX_seq33_2_VE125.json,http://54.235.29.9/FacialAge/BNav_EC2/DepthDuration/MX_fS_VE_MTurk/MX_fS_HTML.html#213,213,1920,1080,1920,1080,1-12-2024,15-25-23,43,VR_target_stimuli/s15_1.3x_4.2_389.png,125,1.3x,4.2,5,2115,120,meters,jsons/MX_seq33_2_VE125.json,183015,1364925,22,Man
43,712487,final-intermixed-textured,v2,jsons/MX_seq33_2_VE125.json,http://54.235.29.9/FacialAge/BNav_EC2/DepthDuration/MX_fS_VE_MTurk/MX_fS_HTML.html#213,213,1920,1080,1920,1080,1-12-2024,15-25-23,44,VR_target_stimuli/s4_1x_1.4_313.png,125,1x,1.4,5,2666,123,meters,jsons/MX_seq33_2_VE125.json,183015,1364925,22,Man
44,712487,final-intermixed-textured,v2,jsons/MX_seq33_2_VE125.json,http://54.235.29.9/FacialAge/BNav_EC2/DepthDuration/MX_fS_VE_MTurk/MX_fS_HTML.html#213,213,1920,1080,1920,1080,1-12-2024,15-25-23,45,catch_stimuli/c4.png,125,,,0,2110,129,meters,jsons/MX_seq33_2_VE125.json,183015,1364925,22,Man
45,712487,final-intermixed-textured,v2,jsons/MX_seq33_2_VE125.json,http://54.235.29.9/FacialAge/BNav_EC2/DepthDuration/MX_fS_VE_MTurk/MX_fS_HTML.html#213,213,1920,1080,1920,1080,1-12-2024,15-25-23,46,VR_target_stimuli/s35_0.75x_2_323_BC.png,125,0.75x,2.0,10,2457,134,meters,jsons/MX_seq33_2_VE125.json,183015,1364925,22,Man
46,712487,final-intermixed-textured,v2,jsons/MX_seq33_2_VE125.json,http://54.235.29.9/FacialAge/BNav_EC2/DepthDuration/MX_fS_VE_MTurk/MX_fS_HTML.html#213,213,1920,1080,1920,1080,1-12-2024,15-25-23,47,VR_target_stimuli/s49_1.3x_4.67_354_BC.png,125,1.3x,4.67,10,3376,124,meters,jsons/MX_seq33_2_VE125.json,183015,1364925,22,Man
47,712487,final-intermixed-textured,v2,jsons/MX_seq33_2_VE125.json,http://54.235.29.9/FacialAge/BNav_EC2/DepthDuration/MX_fS_VE_MTurk/MX_fS_HTML.html#213,213,1920,1080,1920,1080,1-12-2024,15-25-23,48,VR_target_stimuli/s7_1.3x_1.5_256.png,125,1.3x,1.5,5,2227,135,meters,jsons/MX_seq33_2_VE125.json,183015,1364925,22,Man
48,712487,final-intermixed-textured,v2,jsons/MX_seq33_2_VE125.json,http://54.235.29.9/FacialAge/BNav_EC2/DepthDuration/MX_fS_VE_MTurk/MX_fS_HTML.html#213,213,1920,1080,1920,1080,1-12-2024,15-25-23,49,VR_target_stimuli/s20_1x_4.99_398_BC.png,125,1x,4.99,5,1973,124,meters,jsons/MX_seq33_2_VE125.json,183015,1364925,22,Man
49,712487,final-intermixed-textured,v2,jsons/MX_seq33_2_VE125.json,http://54.235.29.9/FacialAge/BNav_EC2/DepthDuration/MX_fS_VE_MTurk/MX_fS_HTML.html#213,213,1920,1080,1920,1080,1-12-2024,15-25-23,50,VR_target_stimuli/s31_0.75x_4.96_329.png,125,0.75x,4.96,5,2401,124,meters,jsons/MX_seq33_2_VE125.json,183015,1364925,22,Man
50,712487,final-intermixed-textured,v2,jsons/MX_seq33_2_VE125.json,http://54.235.29.9/FacialAge/BNav_EC2/DepthDuration/MX_fS_VE_MTurk/MX_fS_HTML.html#213,213,1920,1080,1920,1080,1-12-2024,15-25-23,51,VR_target_stimuli/s33_1x_3.1_366.png,125,1x,3.1,5,2023,124,meters,jsons/MX_seq33_2_VE125.json,183015,1364925,22,Man
51,712487,final-intermixed-textured,v2,jsons/MX_seq33_2_VE125.json,http://54.235.29.9/FacialAge/BNav_EC2/DepthDuration/MX_fS_VE_MTurk/MX_fS_HTML.html#213,213,1920,1080,1920,1080,1-12-2024,15-25-23,52,VR_target_stimuli/s52_1.3x_3.2_280_BC.png,125,1.3x,3.2,5,2498,138,meters,jsons/MX_seq33_2_VE125.json,183015,1364925,22,Man
52,712487,final-intermixed-textured,v2,jsons/MX_seq33_2_VE125.json,http://54.235.29.9/FacialAge/BNav_EC2/DepthDuration/MX_fS_VE_MTurk/MX_fS_HTML.html#213,213,1920,1080,1920,1080,1-12-2024,15-25-23,53,catch_stimuli/c5.png,125,,,0,2107,125,meters,jsons/MX_seq33_2_VE125.json,183015,1364925,22,Man
53,712487,final-intermixed-textured,v2,jsons/MX_seq33_2_VE125.json,http://54.235.29.9/FacialAge/BNav_EC2/DepthDuration/MX_fS_VE_MTurk/MX_fS_HTML.html#213,213,1920,1080,1920,1080,1-12-2024,15-25-23,54,VR_target_stimuli/s32_0.75x_1.5_213_BC.png,125,0.75x,1.5,10,2744,123,meters,jsons/MX_seq33_2_VE125.json,183015,1364925,22,Man
54,712487,final-intermixed-textured,v2,jsons/MX_seq33_2_VE125.json,http://54.235.29.9/FacialAge/BNav_EC2/DepthDuration/MX_fS_VE_MTurk/MX_fS_HTML.html#213,213,1920,1080,1920,1080,1-12-2024,15-25-23,55,VR_target_stimuli/s18_1.3x_2.25_368_BC.png,125,1.3x,2.25,5,2293,123,meters,jsons/MX_seq33_2_VE125.json,183015,1364925,22,Man
55,712487,final-intermixed-textured,v2,jsons/MX_seq33_2_VE125.json,http://54.235.29.9/FacialAge/BNav_EC2/DepthDuration/MX_fS_VE_MTurk/MX_fS_HTML.html#213,213,1920,1080,1920,1080,1-12-2024,15-25-23,56,VR_target_stimuli/s39_1x_1_207_BC.png,125,1x,1.0,5,1343,123,meters,jsons/MX_seq33_2_VE125.json,183015,1364925,22,Man
56,712487,final-intermixed-textured,v2,jsons/MX_seq33_2_VE125.json,http://54.235.29.9/FacialAge/BNav_EC2/DepthDuration/MX_fS_VE_MTurk/MX_fS_HTML.html#213,213,1920,1080,1920,1080,1-12-2024,15-25-23,57,VR_target_stimuli/s51_0.75x_3.64_460_BC.png,125,0.75x,3.64,5,1466,124,meters,jsons/MX_seq33_2_VE125.json,183015,1364925,22,Man
57,712487,final-intermixed-textured,v2,jsons/MX_seq33_2_VE125.json,http://54.235.29.9/FacialAge/BNav_EC2/DepthDuration/MX_fS_VE_MTurk/MX_fS_HTML.html#213,213,1920,1080,1920,1080,1-12-2024,15-25-23,58,VR_target_stimuli/s43_0.75x_2.2_348.png,125,0.75x,2.2,5,2218,124,meters,jsons/MX_seq33_2_VE125.json,183015,1364925,22,Man
58,712487,final-intermixed-textured,v2,jsons/MX_seq33_2_VE125.json,http://54.235.29.9/FacialAge/BNav_EC2/DepthDuration/MX_fS_VE_MTurk/MX_fS_HTML.html#213,213,1920,1080,1920,1080,1-12-2024,15-25-23,59,VR_target_stimuli/s24_1.3x_3.3_352.png,125,1.3x,3.3,5,3185,123,meters,jsons/MX_seq33_2_VE125.json,183015,1364925,22,Man
59,712487,final-intermixed-textured,v2,jsons/MX_seq33_2_VE125.json,http://54.235.29.9/FacialAge/BNav_EC2/DepthDuration/MX_fS_VE_MTurk/MX_fS_HTML.html#213,213,1920,1080,1920,1080,1-12-2024,15-25-23,60,VR_target_stimuli/s10_1x_2.7_324.png,125,1x,2.7,5,2181,125,meters,jsons/MX_seq33_2_VE125.json,183015,1364925,22,Man
