,subjID,experimentName,versionName,sequenceName,url,selected_row,windowWidth,windowHeight,screenWidth,screenHeight,startDate,startTime,trial,stimulus,duration,scale,actual_depth,depth_estimate,trial_RT,log_sceneDuration,unitSelection,seq_filepath,experimentTime,totalTime,age,gender
0,718540,final-intermixed-textured,v2,jsons/MX_seq21_1_VE125.json,http://54.235.29.9/FacialAge/BNav_EC2/DepthDuration/MX_fS_VE_MTurk/MX_fS_HTML.html#75,75,1536,864,1536,864,1-12-2024,22-40-32,1,VR_target_stimuli/s7_1.3x_1.5_256.png,125,1.3x,1.5,3,3635,123,meters,jsons/MX_seq21_1_VE125.json,233881,448685,30,Woman
1,718540,final-intermixed-textured,v2,jsons/MX_seq21_1_VE125.json,http://54.235.29.9/FacialAge/BNav_EC2/DepthDuration/MX_fS_VE_MTurk/MX_fS_HTML.html#75,75,1536,864,1536,864,1-12-2024,22-40-32,2,VR_target_stimuli/s20_0.75x_4.99_390.png,125,0.75x,4.99,5,2934,123,meters,jsons/MX_seq21_1_VE125.json,233881,448685,30,Woman
2,718540,final-intermixed-textured,v2,jsons/MX_seq21_1_VE125.json,http://54.235.29.9/FacialAge/BNav_EC2/DepthDuration/MX_fS_VE_MTurk/MX_fS_HTML.html#75,75,1536,864,1536,864,1-12-2024,22-40-32,3,VR_target_stimuli/s31_1x_4.96_333_BC.png,125,1x,4.96,4,4032,124,meters,jsons/MX_seq21_1_VE125.json,233881,448685,30,Woman
3,718540,final-intermixed-textured,v2,jsons/MX_seq21_1_VE125.json,http://54.235.29.9/FacialAge/BNav_EC2/DepthDuration/MX_fS_VE_MTurk/MX_fS_HTML.html#75,75,1536,864,1536,864,1-12-2024,22-40-32,4,VR_target_stimuli/s33_0.75x_3.1_361_BC.png,125,0.75x,3.1,3,2753,125,meters,jsons/MX_seq21_1_VE125.json,233881,448685,30,Woman
4,718540,final-intermixed-textured,v2,jsons/MX_seq21_1_VE125.json,http://54.235.29.9/FacialAge/BNav_EC2/DepthDuration/MX_fS_VE_MTurk/MX_fS_HTML.html#75,75,1536,864,1536,864,1-12-2024,22-40-32,5,VR_target_stimuli/s52_1.3x_3.2_280_BC.png,125,1.3x,3.2,3,3770,125,meters,jsons/MX_seq21_1_VE125.json,233881,448685,30,Woman
5,718540,final-intermixed-textured,v2,jsons/MX_seq21_1_VE125.json,http://54.235.29.9/FacialAge/BNav_EC2/DepthDuration/MX_fS_VE_MTurk/MX_fS_HTML.html#75,75,1536,864,1536,864,1-12-2024,22-40-32,6,VR_target_stimuli/s32_1x_1.5_218.png,125,1x,1.5,2,3174,123,meters,jsons/MX_seq21_1_VE125.json,233881,448685,30,Woman
6,718540,final-intermixed-textured,v2,jsons/MX_seq21_1_VE125.json,http://54.235.29.9/FacialAge/BNav_EC2/DepthDuration/MX_fS_VE_MTurk/MX_fS_HTML.html#75,75,1536,864,1536,864,1-12-2024,22-40-32,7,catch_stimuli/c0.png,125,,,0,3342,123,meters,jsons/MX_seq21_1_VE125.json,233881,448685,30,Woman
7,718540,final-intermixed-textured,v2,jsons/MX_seq21_1_VE125.json,http://54.235.29.9/FacialAge/BNav_EC2/DepthDuration/MX_fS_VE_MTurk/MX_fS_HTML.html#75,75,1536,864,1536,864,1-12-2024,22-40-32,8,VR_target_stimuli/s18_1x_2.25_353.png,125,1x,2.25,2,4246,124,meters,jsons/MX_seq21_1_VE125.json,233881,448685,30,Woman
8,718540,final-intermixed-textured,v2,jsons/MX_seq21_1_VE125.json,http://54.235.29.9/FacialAge/BNav_EC2/DepthDuration/MX_fS_VE_MTurk/MX_fS_HTML.html#75,75,1536,864,1536,864,1-12-2024,22-40-32,9,VR_target_stimuli/s39_0.75x_1_205.png,125,0.75x,1.0,1,3136,123,meters,jsons/MX_seq21_1_VE125.json,233881,448685,30,Woman
9,718540,final-intermixed-textured,v2,jsons/MX_seq21_1_VE125.json,http://54.235.29.9/FacialAge/BNav_EC2/DepthDuration/MX_fS_VE_MTurk/MX_fS_HTML.html#75,75,1536,864,1536,864,1-12-2024,22-40-32,10,VR_target_stimuli/s51_1.3x_3.64_479_BC.png,125,1.3x,3.64,2,3016,125,meters,jsons/MX_seq21_1_VE125.json,233881,448685,30,Woman
10,718540,final-intermixed-textured,v2,jsons/MX_seq21_1_VE125.json,http://54.235.29.9/FacialAge/BNav_EC2/DepthDuration/MX_fS_VE_MTurk/MX_fS_HTML.html#75,75,1536,864,1536,864,1-12-2024,22-40-32,11,VR_target_stimuli/s43_0.75x_2.2_348_BC.png,125,0.75x,2.2,3,3389,123,meters,jsons/MX_seq21_1_VE125.json,233881,448685,30,Woman
11,718540,final-intermixed-textured,v2,jsons/MX_seq21_1_VE125.json,http://54.235.29.9/FacialAge/BNav_EC2/DepthDuration/MX_fS_VE_MTurk/MX_fS_HTML.html#75,75,1536,864,1536,864,1-12-2024,22-40-32,12,VR_target_stimuli/s24_1x_3.3_349_BC.png,125,1x,3.3,4,3260,124,meters,jsons/MX_seq21_1_VE125.json,233881,448685,30,Woman
12,718540,final-intermixed-textured,v2,jsons/MX_seq21_1_VE125.json,http://54.235.29.9/FacialAge/BNav_EC2/DepthDuration/MX_fS_VE_MTurk/MX_fS_HTML.html#75,75,1536,864,1536,864,1-12-2024,22-40-32,13,VR_target_stimuli/s10_1.3x_2.7_325.png,125,1.3x,2.7,3,4355,125,meters,jsons/MX_seq21_1_VE125.json,233881,448685,30,Woman
13,718540,final-intermixed-textured,v2,jsons/MX_seq21_1_VE125.json,http://54.235.29.9/FacialAge/BNav_EC2/DepthDuration/MX_fS_VE_MTurk/MX_fS_HTML.html#75,75,1536,864,1536,864,1-12-2024,22-40-32,14,VR_target_stimuli/s36_1x_4.1_423.png,125,1x,4.1,4,3813,124,meters,jsons/MX_seq21_1_VE125.json,233881,448685,30,Woman
14,718540,final-intermixed-textured,v2,jsons/MX_seq21_1_VE125.json,http://54.235.29.9/FacialAge/BNav_EC2/DepthDuration/MX_fS_VE_MTurk/MX_fS_HTML.html#75,75,1536,864,1536,864,1-12-2024,22-40-32,15,VR_target_stimuli/s40_0.75x_1.2_308_BC.png,125,0.75x,1.2,3,4461,126,meters,jsons/MX_seq21_1_VE125.json,233881,448685,30,Woman
15,718540,final-intermixed-textured,v2,jsons/MX_seq21_1_VE125.json,http://54.235.29.9/FacialAge/BNav_EC2/DepthDuration/MX_fS_VE_MTurk/MX_fS_HTML.html#75,75,1536,864,1536,864,1-12-2024,22-40-32,16,VR_target_stimuli/s41_1.3x_2.1_294_BC.png,125,1.3x,2.1,3,2694,124,meters,jsons/MX_seq21_1_VE125.json,233881,448685,30,Woman
16,718540,final-intermixed-textured,v2,jsons/MX_seq21_1_VE125.json,http://54.235.29.9/FacialAge/BNav_EC2/DepthDuration/MX_fS_VE_MTurk/MX_fS_HTML.html#75,75,1536,864,1536,864,1-12-2024,22-40-32,17,catch_stimuli/c1.png,125,,,0,3224,123,meters,jsons/MX_seq21_1_VE125.json,233881,448685,30,Woman
17,718540,final-intermixed-textured,v2,jsons/MX_seq21_1_VE125.json,http://54.235.29.9/FacialAge/BNav_EC2/DepthDuration/MX_fS_VE_MTurk/MX_fS_HTML.html#75,75,1536,864,1536,864,1-12-2024,22-40-32,18,VR_target_stimuli/s45_1.3x_3.5_377.png,125,1.3x,3.5,4,2962,119,meters,jsons/MX_seq21_1_VE125.json,233881,448685,30,Woman
18,718540,final-intermixed-textured,v2,jsons/MX_seq21_1_VE125.json,http://54.235.29.9/FacialAge/BNav_EC2/DepthDuration/MX_fS_VE_MTurk/MX_fS_HTML.html#75,75,1536,864,1536,864,1-12-2024,22-40-32,19,VR_target_stimuli/s23_1x_3.65_353_BC.png,125,1x,3.65,2,4239,124,meters,jsons/MX_seq21_1_VE125.json,233881,448685,30,Woman
19,718540,final-intermixed-textured,v2,jsons/MX_seq21_1_VE125.json,http://54.235.29.9/FacialAge/BNav_EC2/DepthDuration/MX_fS_VE_MTurk/MX_fS_HTML.html#75,75,1536,864,1536,864,1-12-2024,22-40-32,20,VR_target_stimuli/s26_0.75x_4_430.png,125,0.75x,4.0,3,3113,126,meters,jsons/MX_seq21_1_VE125.json,233881,448685,30,Woman
20,718540,final-intermixed-textured,v2,jsons/MX_seq21_1_VE125.json,http://54.235.29.9/FacialAge/BNav_EC2/DepthDuration/MX_fS_VE_MTurk/MX_fS_HTML.html#75,75,1536,864,1536,864,1-12-2024,22-40-32,21,VR_target_stimuli/s12_1x_3.1_372_BC.png,125,1x,3.1,3,3128,124,meters,jsons/MX_seq21_1_VE125.json,233881,448685,30,Woman
21,718540,final-intermixed-textured,v2,jsons/MX_seq21_1_VE125.json,http://54.235.29.9/FacialAge/BNav_EC2/DepthDuration/MX_fS_VE_MTurk/MX_fS_HTML.html#75,75,1536,864,1536,864,1-12-2024,22-40-32,22,VR_target_stimuli/s30_1.3x_2.3_337.png,125,1.3x,2.3,3,2937,123,meters,jsons/MX_seq21_1_VE125.json,233881,448685,30,Woman
22,718540,final-intermixed-textured,v2,jsons/MX_seq21_1_VE125.json,http://54.235.29.9/FacialAge/BNav_EC2/DepthDuration/MX_fS_VE_MTurk/MX_fS_HTML.html#75,75,1536,864,1536,864,1-12-2024,22-40-32,23,VR_target_stimuli/s16_0.75x_1_217_BC.png,125,0.75x,1.0,1,3290,122,meters,jsons/MX_seq21_1_VE125.json,233881,448685,30,Woman
23,718540,final-intermixed-textured,v2,jsons/MX_seq21_1_VE125.json,http://54.235.29.9/FacialAge/BNav_EC2/DepthDuration/MX_fS_VE_MTurk/MX_fS_HTML.html#75,75,1536,864,1536,864,1-12-2024,22-40-32,24,VR_target_stimuli/s17_1.3x_1.8_300_BC.png,125,1.3x,1.8,3,2853,124,meters,jsons/MX_seq21_1_VE125.json,233881,448685,30,Woman
24,718540,final-intermixed-textured,v2,jsons/MX_seq21_1_VE125.json,http://54.235.29.9/FacialAge/BNav_EC2/DepthDuration/MX_fS_VE_MTurk/MX_fS_HTML.html#75,75,1536,864,1536,864,1-12-2024,22-40-32,25,VR_target_stimuli/s5_1x_4_378.png,125,1x,4.0,4,2911,124,meters,jsons/MX_seq21_1_VE125.json,233881,448685,30,Woman
25,718540,final-intermixed-textured,v2,jsons/MX_seq21_1_VE125.json,http://54.235.29.9/FacialAge/BNav_EC2/DepthDuration/MX_fS_VE_MTurk/MX_fS_HTML.html#75,75,1536,864,1536,864,1-12-2024,22-40-32,26,catch_stimuli/c2.png,125,,,0,3136,123,meters,jsons/MX_seq21_1_VE125.json,233881,448685,30,Woman
26,718540,final-intermixed-textured,v2,jsons/MX_seq21_1_VE125.json,http://54.235.29.9/FacialAge/BNav_EC2/DepthDuration/MX_fS_VE_MTurk/MX_fS_HTML.html#75,75,1536,864,1536,864,1-12-2024,22-40-32,27,VR_target_stimuli/s37_0.75x_3.3_567.png,125,0.75x,3.3,5,3148,124,meters,jsons/MX_seq21_1_VE125.json,233881,448685,30,Woman
27,718540,final-intermixed-textured,v2,jsons/MX_seq21_1_VE125.json,http://54.235.29.9/FacialAge/BNav_EC2/DepthDuration/MX_fS_VE_MTurk/MX_fS_HTML.html#75,75,1536,864,1536,864,1-12-2024,22-40-32,28,VR_target_stimuli/s46_0.75x_2.42_343_BC.png,125,0.75x,2.42,3,3613,125,meters,jsons/MX_seq21_1_VE125.json,233881,448685,30,Woman
28,718540,final-intermixed-textured,v2,jsons/MX_seq21_1_VE125.json,http://54.235.29.9/FacialAge/BNav_EC2/DepthDuration/MX_fS_VE_MTurk/MX_fS_HTML.html#75,75,1536,864,1536,864,1-12-2024,22-40-32,29,VR_target_stimuli/s22_1.3x_4.29_364.png,125,1.3x,4.29,4,2550,125,meters,jsons/MX_seq21_1_VE125.json,233881,448685,30,Woman
29,718540,final-intermixed-textured,v2,jsons/MX_seq21_1_VE125.json,http://54.235.29.9/FacialAge/BNav_EC2/DepthDuration/MX_fS_VE_MTurk/MX_fS_HTML.html#75,75,1536,864,1536,864,1-12-2024,22-40-32,30,VR_target_stimuli/s42_1x_3.2_303_BC.png,125,1x,3.2,3,3692,125,meters,jsons/MX_seq21_1_VE125.json,233881,448685,30,Woman
30,718540,final-intermixed-textured,v2,jsons/MX_seq21_1_VE125.json,http://54.235.29.9/FacialAge/BNav_EC2/DepthDuration/MX_fS_VE_MTurk/MX_fS_HTML.html#75,75,1536,864,1536,864,1-12-2024,22-40-32,31,VR_target_stimuli/s25_0.75x_1.4_281.png,125,0.75x,1.4,3,3626,125,meters,jsons/MX_seq21_1_VE125.json,233881,448685,30,Woman
31,718540,final-intermixed-textured,v2,jsons/MX_seq21_1_VE125.json,http://54.235.29.9/FacialAge/BNav_EC2/DepthDuration/MX_fS_VE_MTurk/MX_fS_HTML.html#75,75,1536,864,1536,864,1-12-2024,22-40-32,32,VR_target_stimuli/s50_1x_4.53_518.png,125,1x,4.53,4,3143,123,meters,jsons/MX_seq21_1_VE125.json,233881,448685,30,Woman
32,718540,final-intermixed-textured,v2,jsons/MX_seq21_1_VE125.json,http://54.235.29.9/FacialAge/BNav_EC2/DepthDuration/MX_fS_VE_MTurk/MX_fS_HTML.html#75,75,1536,864,1536,864,1-12-2024,22-40-32,33,VR_target_stimuli/s53_1.3x_1.6_355_BC.png,125,1.3x,1.6,2,2889,123,meters,jsons/MX_seq21_1_VE125.json,233881,448685,30,Woman
33,718540,final-intermixed-textured,v2,jsons/MX_seq21_1_VE125.json,http://54.235.29.9/FacialAge/BNav_EC2/DepthDuration/MX_fS_VE_MTurk/MX_fS_HTML.html#75,75,1536,864,1536,864,1-12-2024,22-40-32,34,catch_stimuli/c3.png,125,,,0,3294,123,meters,jsons/MX_seq21_1_VE125.json,233881,448685,30,Woman
34,718540,final-intermixed-textured,v2,jsons/MX_seq21_1_VE125.json,http://54.235.29.9/FacialAge/BNav_EC2/DepthDuration/MX_fS_VE_MTurk/MX_fS_HTML.html#75,75,1536,864,1536,864,1-12-2024,22-40-32,35,VR_target_stimuli/s38_1x_3.55_353_BC.png,125,1x,3.55,3,5904,123,meters,jsons/MX_seq21_1_VE125.json,233881,448685,30,Woman
35,718540,final-intermixed-textured,v2,jsons/MX_seq21_1_VE125.json,http://54.235.29.9/FacialAge/BNav_EC2/DepthDuration/MX_fS_VE_MTurk/MX_fS_HTML.html#75,75,1536,864,1536,864,1-12-2024,22-40-32,36,VR_target_stimuli/s9_0.75x_1.2_260_BC.png,125,0.75x,1.2,0,3397,123,meters,jsons/MX_seq21_1_VE125.json,233881,448685,30,Woman
36,718540,final-intermixed-textured,v2,jsons/MX_seq21_1_VE125.json,http://54.235.29.9/FacialAge/BNav_EC2/DepthDuration/MX_fS_VE_MTurk/MX_fS_HTML.html#75,75,1536,864,1536,864,1-12-2024,22-40-32,37,VR_target_stimuli/s44_1.3x_4.4_325.png,125,1.3x,4.4,5,2659,124,meters,jsons/MX_seq21_1_VE125.json,233881,448685,30,Woman
37,718540,final-intermixed-textured,v2,jsons/MX_seq21_1_VE125.json,http://54.235.29.9/FacialAge/BNav_EC2/DepthDuration/MX_fS_VE_MTurk/MX_fS_HTML.html#75,75,1536,864,1536,864,1-12-2024,22-40-32,38,VR_target_stimuli/s3_1.3x_5_390_BC.png,125,1.3x,5.0,4,3028,125,meters,jsons/MX_seq21_1_VE125.json,233881,448685,30,Woman
38,718540,final-intermixed-textured,v2,jsons/MX_seq21_1_VE125.json,http://54.235.29.9/FacialAge/BNav_EC2/DepthDuration/MX_fS_VE_MTurk/MX_fS_HTML.html#75,75,1536,864,1536,864,1-12-2024,22-40-32,39,VR_target_stimuli/s1_1x_1.7_262.png,125,1x,1.7,3,2848,124,meters,jsons/MX_seq21_1_VE125.json,233881,448685,30,Woman
39,718540,final-intermixed-textured,v2,jsons/MX_seq21_1_VE125.json,http://54.235.29.9/FacialAge/BNav_EC2/DepthDuration/MX_fS_VE_MTurk/MX_fS_HTML.html#75,75,1536,864,1536,864,1-12-2024,22-40-32,40,VR_target_stimuli/s11_0.75x_5_359.png,125,0.75x,5.0,4,3248,125,meters,jsons/MX_seq21_1_VE125.json,233881,448685,30,Woman
40,718540,final-intermixed-textured,v2,jsons/MX_seq21_1_VE125.json,http://54.235.29.9/FacialAge/BNav_EC2/DepthDuration/MX_fS_VE_MTurk/MX_fS_HTML.html#75,75,1536,864,1536,864,1-12-2024,22-40-32,41,VR_target_stimuli/s2_1x_2.7_390_BC.png,125,1x,2.7,2,6524,122,meters,jsons/MX_seq21_1_VE125.json,233881,448685,30,Woman
41,718540,final-intermixed-textured,v2,jsons/MX_seq21_1_VE125.json,http://54.235.29.9/FacialAge/BNav_EC2/DepthDuration/MX_fS_VE_MTurk/MX_fS_HTML.html#75,75,1536,864,1536,864,1-12-2024,22-40-32,42,VR_target_stimuli/s6_1.3x_2.1_298_BC.png,125,1.3x,2.1,3,3255,125,meters,jsons/MX_seq21_1_VE125.json,233881,448685,30,Woman
42,718540,final-intermixed-textured,v2,jsons/MX_seq21_1_VE125.json,http://54.235.29.9/FacialAge/BNav_EC2/DepthDuration/MX_fS_VE_MTurk/MX_fS_HTML.html#75,75,1536,864,1536,864,1-12-2024,22-40-32,43,VR_target_stimuli/s0_0.75x_2.6_345.png,125,0.75x,2.6,3,2993,124,meters,jsons/MX_seq21_1_VE125.json,233881,448685,30,Woman
43,718540,final-intermixed-textured,v2,jsons/MX_seq21_1_VE125.json,http://54.235.29.9/FacialAge/BNav_EC2/DepthDuration/MX_fS_VE_MTurk/MX_fS_HTML.html#75,75,1536,864,1536,864,1-12-2024,22-40-32,44,VR_target_stimuli/s34_1.3x_2.8_294.png,125,1.3x,2.8,3,2952,124,meters,jsons/MX_seq21_1_VE125.json,233881,448685,30,Woman
44,718540,final-intermixed-textured,v2,jsons/MX_seq21_1_VE125.json,http://54.235.29.9/FacialAge/BNav_EC2/DepthDuration/MX_fS_VE_MTurk/MX_fS_HTML.html#75,75,1536,864,1536,864,1-12-2024,22-40-32,45,catch_stimuli/c4.png,125,,,0,2975,126,meters,jsons/MX_seq21_1_VE125.json,233881,448685,30,Woman
45,718540,final-intermixed-textured,v2,jsons/MX_seq21_1_VE125.json,http://54.235.29.9/FacialAge/BNav_EC2/DepthDuration/MX_fS_VE_MTurk/MX_fS_HTML.html#75,75,1536,864,1536,864,1-12-2024,22-40-32,46,VR_target_stimuli/s13_1x_2.4_310.png,125,1x,2.4,3,3090,123,meters,jsons/MX_seq21_1_VE125.json,233881,448685,30,Woman
46,718540,final-intermixed-textured,v2,jsons/MX_seq21_1_VE125.json,http://54.235.29.9/FacialAge/BNav_EC2/DepthDuration/MX_fS_VE_MTurk/MX_fS_HTML.html#75,75,1536,864,1536,864,1-12-2024,22-40-32,47,VR_target_stimuli/s14_0.75x_3.83_355_BC.png,125,0.75x,3.83,4,2936,124,meters,jsons/MX_seq21_1_VE125.json,233881,448685,30,Woman
47,718540,final-intermixed-textured,v2,jsons/MX_seq21_1_VE125.json,http://54.235.29.9/FacialAge/BNav_EC2/DepthDuration/MX_fS_VE_MTurk/MX_fS_HTML.html#75,75,1536,864,1536,864,1-12-2024,22-40-32,48,VR_target_stimuli/s47_0.75x_3.45_366_BC.png,125,0.75x,3.45,4,3690,126,meters,jsons/MX_seq21_1_VE125.json,233881,448685,30,Woman
48,718540,final-intermixed-textured,v2,jsons/MX_seq21_1_VE125.json,http://54.235.29.9/FacialAge/BNav_EC2/DepthDuration/MX_fS_VE_MTurk/MX_fS_HTML.html#75,75,1536,864,1536,864,1-12-2024,22-40-32,49,VR_target_stimuli/s29_1.3x_1.3_253_BC.png,125,1.3x,1.3,2,4059,124,meters,jsons/MX_seq21_1_VE125.json,233881,448685,30,Woman
49,718540,final-intermixed-textured,v2,jsons/MX_seq21_1_VE125.json,http://54.235.29.9/FacialAge/BNav_EC2/DepthDuration/MX_fS_VE_MTurk/MX_fS_HTML.html#75,75,1536,864,1536,864,1-12-2024,22-40-32,50,VR_target_stimuli/s28_1x_3.2_362_BC.png,125,1x,3.2,3,3077,124,meters,jsons/MX_seq21_1_VE125.json,233881,448685,30,Woman
50,718540,final-intermixed-textured,v2,jsons/MX_seq21_1_VE125.json,http://54.235.29.9/FacialAge/BNav_EC2/DepthDuration/MX_fS_VE_MTurk/MX_fS_HTML.html#75,75,1536,864,1536,864,1-12-2024,22-40-32,51,VR_target_stimuli/s48_1.3x_2.55_255.png,125,1.3x,2.55,3,3306,124,meters,jsons/MX_seq21_1_VE125.json,233881,448685,30,Woman
51,718540,final-intermixed-textured,v2,jsons/MX_seq21_1_VE125.json,http://54.235.29.9/FacialAge/BNav_EC2/DepthDuration/MX_fS_VE_MTurk/MX_fS_HTML.html#75,75,1536,864,1536,864,1-12-2024,22-40-32,52,VR_target_stimuli/s19_0.75x_1.21_257.png,125,0.75x,1.21,3,3335,123,meters,jsons/MX_seq21_1_VE125.json,233881,448685,30,Woman
52,718540,final-intermixed-textured,v2,jsons/MX_seq21_1_VE125.json,http://54.235.29.9/FacialAge/BNav_EC2/DepthDuration/MX_fS_VE_MTurk/MX_fS_HTML.html#75,75,1536,864,1536,864,1-12-2024,22-40-32,53,catch_stimuli/c5.png,125,,,0,3188,125,meters,jsons/MX_seq21_1_VE125.json,233881,448685,30,Woman
53,718540,final-intermixed-textured,v2,jsons/MX_seq21_1_VE125.json,http://54.235.29.9/FacialAge/BNav_EC2/DepthDuration/MX_fS_VE_MTurk/MX_fS_HTML.html#75,75,1536,864,1536,864,1-12-2024,22-40-32,54,VR_target_stimuli/s21_1x_4.22_379.png,125,1x,4.22,4,5349,123,meters,jsons/MX_seq21_1_VE125.json,233881,448685,30,Woman
54,718540,final-intermixed-textured,v2,jsons/MX_seq21_1_VE125.json,http://54.235.29.9/FacialAge/BNav_EC2/DepthDuration/MX_fS_VE_MTurk/MX_fS_HTML.html#75,75,1536,864,1536,864,1-12-2024,22-40-32,55,VR_target_stimuli/s8_0.75x_3.1_325_BC.png,125,0.75x,3.1,3,2870,125,meters,jsons/MX_seq21_1_VE125.json,233881,448685,30,Woman
55,718540,final-intermixed-textured,v2,jsons/MX_seq21_1_VE125.json,http://54.235.29.9/FacialAge/BNav_EC2/DepthDuration/MX_fS_VE_MTurk/MX_fS_HTML.html#75,75,1536,864,1536,864,1-12-2024,22-40-32,56,VR_target_stimuli/s27_1.3x_1.76_250_BC.png,125,1.3x,1.76,3,3040,126,meters,jsons/MX_seq21_1_VE125.json,233881,448685,30,Woman
56,718540,final-intermixed-textured,v2,jsons/MX_seq21_1_VE125.json,http://54.235.29.9/FacialAge/BNav_EC2/DepthDuration/MX_fS_VE_MTurk/MX_fS_HTML.html#75,75,1536,864,1536,864,1-12-2024,22-40-32,57,VR_target_stimuli/s15_1x_4.2_390.png,125,1x,4.2,4,2937,125,meters,jsons/MX_seq21_1_VE125.json,233881,448685,30,Woman
57,718540,final-intermixed-textured,v2,jsons/MX_seq21_1_VE125.json,http://54.235.29.9/FacialAge/BNav_EC2/DepthDuration/MX_fS_VE_MTurk/MX_fS_HTML.html#75,75,1536,864,1536,864,1-12-2024,22-40-32,58,VR_target_stimuli/s4_1x_1.4_313_BC.png,125,1x,1.4,3,3043,124,meters,jsons/MX_seq21_1_VE125.json,233881,448685,30,Woman
58,718540,final-intermixed-textured,v2,jsons/MX_seq21_1_VE125.json,http://54.235.29.9/FacialAge/BNav_EC2/DepthDuration/MX_fS_VE_MTurk/MX_fS_HTML.html#75,75,1536,864,1536,864,1-12-2024,22-40-32,59,VR_target_stimuli/s35_0.75x_2_323.png,125,0.75x,2.0,3,3000,124,meters,jsons/MX_seq21_1_VE125.json,233881,448685,30,Woman
59,718540,final-intermixed-textured,v2,jsons/MX_seq21_1_VE125.json,http://54.235.29.9/FacialAge/BNav_EC2/DepthDuration/MX_fS_VE_MTurk/MX_fS_HTML.html#75,75,1536,864,1536,864,1-12-2024,22-40-32,60,VR_target_stimuli/s49_1.3x_4.67_354.png,125,1.3x,4.67,4,2980,121,meters,jsons/MX_seq21_1_VE125.json,233881,448685,30,Woman
