,subjID,experimentName,versionName,sequenceName,url,selected_row,windowWidth,windowHeight,screenWidth,screenHeight,startDate,startTime,trial,stimulus,duration,scale,actual_depth,depth_estimate,trial_RT,log_sceneDuration,unitSelection,seq_filepath,experimentTime,totalTime,age,gender
0,759689,final-intermixed-textured,v2,jsons/MX_seq21_0_VE125.json,http://54.235.29.9/FacialAge/BNav_EC2/DepthDuration/MX_fS_VE_MTurk/MX_fS_HTML.html#293,293,1920,1080,1920,1080,1-12-2024,17-36-19,1,VR_target_stimuli/s7_0.75x_1.5_253_BC.png,125,0.75x,1.5,0.5,30006,126,meters,jsons/MX_seq21_0_VE125.json,400706,1827994,31,Man
1,759689,final-intermixed-textured,v2,jsons/MX_seq21_0_VE125.json,http://54.235.29.9/FacialAge/BNav_EC2/DepthDuration/MX_fS_VE_MTurk/MX_fS_HTML.html#293,293,1920,1080,1920,1080,1-12-2024,17-36-19,2,VR_target_stimuli/s20_1x_4.99_398_BC.png,125,1x,4.99,1.6,12661,127,meters,jsons/MX_seq21_0_VE125.json,400706,1827994,31,Man
2,759689,final-intermixed-textured,v2,jsons/MX_seq21_0_VE125.json,http://54.235.29.9/FacialAge/BNav_EC2/DepthDuration/MX_fS_VE_MTurk/MX_fS_HTML.html#293,293,1920,1080,1920,1080,1-12-2024,17-36-19,3,VR_target_stimuli/s31_1.3x_4.96_342_BC.png,125,1.3x,4.96,0.0,5115,127,meters,jsons/MX_seq21_0_VE125.json,400706,1827994,31,Man
3,759689,final-intermixed-textured,v2,jsons/MX_seq21_0_VE125.json,http://54.235.29.9/FacialAge/BNav_EC2/DepthDuration/MX_fS_VE_MTurk/MX_fS_HTML.html#293,293,1920,1080,1920,1080,1-12-2024,17-36-19,4,VR_target_stimuli/s33_1x_3.1_366.png,125,1x,3.1,1.0,4985,128,meters,jsons/MX_seq21_0_VE125.json,400706,1827994,31,Man
4,759689,final-intermixed-textured,v2,jsons/MX_seq21_0_VE125.json,http://54.235.29.9/FacialAge/BNav_EC2/DepthDuration/MX_fS_VE_MTurk/MX_fS_HTML.html#293,293,1920,1080,1920,1080,1-12-2024,17-36-19,5,VR_target_stimuli/s52_0.75x_3.2_270.png,125,0.75x,3.2,0.1,6587,126,meters,jsons/MX_seq21_0_VE125.json,400706,1827994,31,Man
5,759689,final-intermixed-textured,v2,jsons/MX_seq21_0_VE125.json,http://54.235.29.9/FacialAge/BNav_EC2/DepthDuration/MX_fS_VE_MTurk/MX_fS_HTML.html#293,293,1920,1080,1920,1080,1-12-2024,17-36-19,6,VR_target_stimuli/s32_1.3x_1.5_224.png,125,1.3x,1.5,0.1,5218,124,meters,jsons/MX_seq21_0_VE125.json,400706,1827994,31,Man
6,759689,final-intermixed-textured,v2,jsons/MX_seq21_0_VE125.json,http://54.235.29.9/FacialAge/BNav_EC2/DepthDuration/MX_fS_VE_MTurk/MX_fS_HTML.html#293,293,1920,1080,1920,1080,1-12-2024,17-36-19,7,catch_stimuli/c0.png,125,,,0.0,3866,124,meters,jsons/MX_seq21_0_VE125.json,400706,1827994,31,Man
7,759689,final-intermixed-textured,v2,jsons/MX_seq21_0_VE125.json,http://54.235.29.9/FacialAge/BNav_EC2/DepthDuration/MX_fS_VE_MTurk/MX_fS_HTML.html#293,293,1920,1080,1920,1080,1-12-2024,17-36-19,8,VR_target_stimuli/s18_1.3x_2.25_368_BC.png,125,1.3x,2.25,1.5,7739,124,meters,jsons/MX_seq21_0_VE125.json,400706,1827994,31,Man
8,759689,final-intermixed-textured,v2,jsons/MX_seq21_0_VE125.json,http://54.235.29.9/FacialAge/BNav_EC2/DepthDuration/MX_fS_VE_MTurk/MX_fS_HTML.html#293,293,1920,1080,1920,1080,1-12-2024,17-36-19,9,VR_target_stimuli/s39_1x_1_207_BC.png,125,1x,1.0,1.1,8545,125,meters,jsons/MX_seq21_0_VE125.json,400706,1827994,31,Man
9,759689,final-intermixed-textured,v2,jsons/MX_seq21_0_VE125.json,http://54.235.29.9/FacialAge/BNav_EC2/DepthDuration/MX_fS_VE_MTurk/MX_fS_HTML.html#293,293,1920,1080,1920,1080,1-12-2024,17-36-19,10,VR_target_stimuli/s51_0.75x_3.64_460.png,125,0.75x,3.64,1.5,5512,127,meters,jsons/MX_seq21_0_VE125.json,400706,1827994,31,Man
10,759689,final-intermixed-textured,v2,jsons/MX_seq21_0_VE125.json,http://54.235.29.9/FacialAge/BNav_EC2/DepthDuration/MX_fS_VE_MTurk/MX_fS_HTML.html#293,293,1920,1080,1920,1080,1-12-2024,17-36-19,11,VR_target_stimuli/s43_1x_2.2_354.png,125,1x,2.2,1.5,5589,121,meters,jsons/MX_seq21_0_VE125.json,400706,1827994,31,Man
11,759689,final-intermixed-textured,v2,jsons/MX_seq21_0_VE125.json,http://54.235.29.9/FacialAge/BNav_EC2/DepthDuration/MX_fS_VE_MTurk/MX_fS_HTML.html#293,293,1920,1080,1920,1080,1-12-2024,17-36-19,12,VR_target_stimuli/s24_1.3x_3.3_352.png,125,1.3x,3.3,1.3,4584,131,meters,jsons/MX_seq21_0_VE125.json,400706,1827994,31,Man
12,759689,final-intermixed-textured,v2,jsons/MX_seq21_0_VE125.json,http://54.235.29.9/FacialAge/BNav_EC2/DepthDuration/MX_fS_VE_MTurk/MX_fS_HTML.html#293,293,1920,1080,1920,1080,1-12-2024,17-36-19,13,VR_target_stimuli/s10_0.75x_2.7_321_BC.png,125,0.75x,2.7,0.8,7669,126,meters,jsons/MX_seq21_0_VE125.json,400706,1827994,31,Man
13,759689,final-intermixed-textured,v2,jsons/MX_seq21_0_VE125.json,http://54.235.29.9/FacialAge/BNav_EC2/DepthDuration/MX_fS_VE_MTurk/MX_fS_HTML.html#293,293,1920,1080,1920,1080,1-12-2024,17-36-19,14,VR_target_stimuli/s36_1.3x_4.1_442_BC.png,125,1.3x,4.1,1.6,4903,124,meters,jsons/MX_seq21_0_VE125.json,400706,1827994,31,Man
14,759689,final-intermixed-textured,v2,jsons/MX_seq21_0_VE125.json,http://54.235.29.9/FacialAge/BNav_EC2/DepthDuration/MX_fS_VE_MTurk/MX_fS_HTML.html#293,293,1920,1080,1920,1080,1-12-2024,17-36-19,15,VR_target_stimuli/s40_1x_1.2_319_BC.png,125,1x,1.2,1.3,5058,124,meters,jsons/MX_seq21_0_VE125.json,400706,1827994,31,Man
15,759689,final-intermixed-textured,v2,jsons/MX_seq21_0_VE125.json,http://54.235.29.9/FacialAge/BNav_EC2/DepthDuration/MX_fS_VE_MTurk/MX_fS_HTML.html#293,293,1920,1080,1920,1080,1-12-2024,17-36-19,16,VR_target_stimuli/s41_0.75x_2.1_281.png,125,0.75x,2.1,0.5,7815,124,meters,jsons/MX_seq21_0_VE125.json,400706,1827994,31,Man
16,759689,final-intermixed-textured,v2,jsons/MX_seq21_0_VE125.json,http://54.235.29.9/FacialAge/BNav_EC2/DepthDuration/MX_fS_VE_MTurk/MX_fS_HTML.html#293,293,1920,1080,1920,1080,1-12-2024,17-36-19,17,catch_stimuli/c1.png,125,,,1.0,5411,126,meters,jsons/MX_seq21_0_VE125.json,400706,1827994,31,Man
17,759689,final-intermixed-textured,v2,jsons/MX_seq21_0_VE125.json,http://54.235.29.9/FacialAge/BNav_EC2/DepthDuration/MX_fS_VE_MTurk/MX_fS_HTML.html#293,293,1920,1080,1920,1080,1-12-2024,17-36-19,18,VR_target_stimuli/s45_0.75x_3.5_362_BC.png,125,0.75x,3.5,0.9,6797,123,meters,jsons/MX_seq21_0_VE125.json,400706,1827994,31,Man
18,759689,final-intermixed-textured,v2,jsons/MX_seq21_0_VE125.json,http://54.235.29.9/FacialAge/BNav_EC2/DepthDuration/MX_fS_VE_MTurk/MX_fS_HTML.html#293,293,1920,1080,1920,1080,1-12-2024,17-36-19,19,VR_target_stimuli/s23_1.3x_3.65_354.png,125,1.3x,3.65,0.8,10975,127,meters,jsons/MX_seq21_0_VE125.json,400706,1827994,31,Man
19,759689,final-intermixed-textured,v2,jsons/MX_seq21_0_VE125.json,http://54.235.29.9/FacialAge/BNav_EC2/DepthDuration/MX_fS_VE_MTurk/MX_fS_HTML.html#293,293,1920,1080,1920,1080,1-12-2024,17-36-19,20,VR_target_stimuli/s26_1x_4_433.png,125,1x,4.0,1.0,2708,126,meters,jsons/MX_seq21_0_VE125.json,400706,1827994,31,Man
20,759689,final-intermixed-textured,v2,jsons/MX_seq21_0_VE125.json,http://54.235.29.9/FacialAge/BNav_EC2/DepthDuration/MX_fS_VE_MTurk/MX_fS_HTML.html#293,293,1920,1080,1920,1080,1-12-2024,17-36-19,21,VR_target_stimuli/s12_1.3x_3.1_375.png,125,1.3x,3.1,1.0,2932,112,meters,jsons/MX_seq21_0_VE125.json,400706,1827994,31,Man
21,759689,final-intermixed-textured,v2,jsons/MX_seq21_0_VE125.json,http://54.235.29.9/FacialAge/BNav_EC2/DepthDuration/MX_fS_VE_MTurk/MX_fS_HTML.html#293,293,1920,1080,1920,1080,1-12-2024,17-36-19,22,VR_target_stimuli/s30_0.75x_2.3_332.png,125,0.75x,2.3,0.8,5788,126,meters,jsons/MX_seq21_0_VE125.json,400706,1827994,31,Man
22,759689,final-intermixed-textured,v2,jsons/MX_seq21_0_VE125.json,http://54.235.29.9/FacialAge/BNav_EC2/DepthDuration/MX_fS_VE_MTurk/MX_fS_HTML.html#293,293,1920,1080,1920,1080,1-12-2024,17-36-19,23,VR_target_stimuli/s16_1x_1_219_BC.png,125,1x,1.0,0.7,4742,121,meters,jsons/MX_seq21_0_VE125.json,400706,1827994,31,Man
23,759689,final-intermixed-textured,v2,jsons/MX_seq21_0_VE125.json,http://54.235.29.9/FacialAge/BNav_EC2/DepthDuration/MX_fS_VE_MTurk/MX_fS_HTML.html#293,293,1920,1080,1920,1080,1-12-2024,17-36-19,24,VR_target_stimuli/s17_0.75x_1.8_285_BC.png,125,0.75x,1.8,0.8,6991,125,meters,jsons/MX_seq21_0_VE125.json,400706,1827994,31,Man
24,759689,final-intermixed-textured,v2,jsons/MX_seq21_0_VE125.json,http://54.235.29.9/FacialAge/BNav_EC2/DepthDuration/MX_fS_VE_MTurk/MX_fS_HTML.html#293,293,1920,1080,1920,1080,1-12-2024,17-36-19,25,VR_target_stimuli/s5_1.3x_4_393_BC.png,125,1.3x,4.0,0.6,4745,127,meters,jsons/MX_seq21_0_VE125.json,400706,1827994,31,Man
25,759689,final-intermixed-textured,v2,jsons/MX_seq21_0_VE125.json,http://54.235.29.9/FacialAge/BNav_EC2/DepthDuration/MX_fS_VE_MTurk/MX_fS_HTML.html#293,293,1920,1080,1920,1080,1-12-2024,17-36-19,26,catch_stimuli/c2.png,125,,,0.0,3209,127,meters,jsons/MX_seq21_0_VE125.json,400706,1827994,31,Man
26,759689,final-intermixed-textured,v2,jsons/MX_seq21_0_VE125.json,http://54.235.29.9/FacialAge/BNav_EC2/DepthDuration/MX_fS_VE_MTurk/MX_fS_HTML.html#293,293,1920,1080,1920,1080,1-12-2024,17-36-19,27,VR_target_stimuli/s37_1x_3.3_563.png,125,1x,3.3,1.8,5551,125,meters,jsons/MX_seq21_0_VE125.json,400706,1827994,31,Man
27,759689,final-intermixed-textured,v2,jsons/MX_seq21_0_VE125.json,http://54.235.29.9/FacialAge/BNav_EC2/DepthDuration/MX_fS_VE_MTurk/MX_fS_HTML.html#293,293,1920,1080,1920,1080,1-12-2024,17-36-19,28,VR_target_stimuli/s46_1x_2.42_348_BC.png,125,1x,2.42,1.0,3150,125,meters,jsons/MX_seq21_0_VE125.json,400706,1827994,31,Man
28,759689,final-intermixed-textured,v2,jsons/MX_seq21_0_VE125.json,http://54.235.29.9/FacialAge/BNav_EC2/DepthDuration/MX_fS_VE_MTurk/MX_fS_HTML.html#293,293,1920,1080,1920,1080,1-12-2024,17-36-19,29,VR_target_stimuli/s22_0.75x_4.29_348.png,125,0.75x,4.29,0.6,7892,124,meters,jsons/MX_seq21_0_VE125.json,400706,1827994,31,Man
29,759689,final-intermixed-textured,v2,jsons/MX_seq21_0_VE125.json,http://54.235.29.9/FacialAge/BNav_EC2/DepthDuration/MX_fS_VE_MTurk/MX_fS_HTML.html#293,293,1920,1080,1920,1080,1-12-2024,17-36-19,30,VR_target_stimuli/s42_1.3x_3.2_305.png,125,1.3x,3.2,0.3,5668,126,meters,jsons/MX_seq21_0_VE125.json,400706,1827994,31,Man
30,759689,final-intermixed-textured,v2,jsons/MX_seq21_0_VE125.json,http://54.235.29.9/FacialAge/BNav_EC2/DepthDuration/MX_fS_VE_MTurk/MX_fS_HTML.html#293,293,1920,1080,1920,1080,1-12-2024,17-36-19,31,VR_target_stimuli/s25_1x_1.4_290.png,125,1x,1.4,0.5,4524,137,meters,jsons/MX_seq21_0_VE125.json,400706,1827994,31,Man
31,759689,final-intermixed-textured,v2,jsons/MX_seq21_0_VE125.json,http://54.235.29.9/FacialAge/BNav_EC2/DepthDuration/MX_fS_VE_MTurk/MX_fS_HTML.html#293,293,1920,1080,1920,1080,1-12-2024,17-36-19,32,VR_target_stimuli/s50_1.3x_4.53_518_BC.png,125,1.3x,4.53,1.7,4442,126,meters,jsons/MX_seq21_0_VE125.json,400706,1827994,31,Man
32,759689,final-intermixed-textured,v2,jsons/MX_seq21_0_VE125.json,http://54.235.29.9/FacialAge/BNav_EC2/DepthDuration/MX_fS_VE_MTurk/MX_fS_HTML.html#293,293,1920,1080,1920,1080,1-12-2024,17-36-19,33,VR_target_stimuli/s53_0.75x_1.6_403_BC.png,125,0.75x,1.6,1.6,4943,125,meters,jsons/MX_seq21_0_VE125.json,400706,1827994,31,Man
33,759689,final-intermixed-textured,v2,jsons/MX_seq21_0_VE125.json,http://54.235.29.9/FacialAge/BNav_EC2/DepthDuration/MX_fS_VE_MTurk/MX_fS_HTML.html#293,293,1920,1080,1920,1080,1-12-2024,17-36-19,34,catch_stimuli/c3.png,125,,,0.0,2808,102,meters,jsons/MX_seq21_0_VE125.json,400706,1827994,31,Man
34,759689,final-intermixed-textured,v2,jsons/MX_seq21_0_VE125.json,http://54.235.29.9/FacialAge/BNav_EC2/DepthDuration/MX_fS_VE_MTurk/MX_fS_HTML.html#293,293,1920,1080,1920,1080,1-12-2024,17-36-19,35,VR_target_stimuli/s38_1.3x_3.55_358_BC.png,125,1.3x,3.55,1.1,6311,122,meters,jsons/MX_seq21_0_VE125.json,400706,1827994,31,Man
35,759689,final-intermixed-textured,v2,jsons/MX_seq21_0_VE125.json,http://54.235.29.9/FacialAge/BNav_EC2/DepthDuration/MX_fS_VE_MTurk/MX_fS_HTML.html#293,293,1920,1080,1920,1080,1-12-2024,17-36-19,36,VR_target_stimuli/s9_1x_1.2_263_BC.png,125,1x,1.2,1.0,3134,127,meters,jsons/MX_seq21_0_VE125.json,400706,1827994,31,Man
36,759689,final-intermixed-textured,v2,jsons/MX_seq21_0_VE125.json,http://54.235.29.9/FacialAge/BNav_EC2/DepthDuration/MX_fS_VE_MTurk/MX_fS_HTML.html#293,293,1920,1080,1920,1080,1-12-2024,17-36-19,37,VR_target_stimuli/s44_0.75x_4.4_314.png,125,0.75x,4.4,0.1,4495,127,meters,jsons/MX_seq21_0_VE125.json,400706,1827994,31,Man
37,759689,final-intermixed-textured,v2,jsons/MX_seq21_0_VE125.json,http://54.235.29.9/FacialAge/BNav_EC2/DepthDuration/MX_fS_VE_MTurk/MX_fS_HTML.html#293,293,1920,1080,1920,1080,1-12-2024,17-36-19,38,VR_target_stimuli/s3_0.75x_5_381_BC.png,125,0.75x,5.0,0.3,8248,127,meters,jsons/MX_seq21_0_VE125.json,400706,1827994,31,Man
38,759689,final-intermixed-textured,v2,jsons/MX_seq21_0_VE125.json,http://54.235.29.9/FacialAge/BNav_EC2/DepthDuration/MX_fS_VE_MTurk/MX_fS_HTML.html#293,293,1920,1080,1920,1080,1-12-2024,17-36-19,39,VR_target_stimuli/s1_1.3x_1.7_261.png,125,1.3x,1.7,0.5,9222,126,meters,jsons/MX_seq21_0_VE125.json,400706,1827994,31,Man
39,759689,final-intermixed-textured,v2,jsons/MX_seq21_0_VE125.json,http://54.235.29.9/FacialAge/BNav_EC2/DepthDuration/MX_fS_VE_MTurk/MX_fS_HTML.html#293,293,1920,1080,1920,1080,1-12-2024,17-36-19,40,VR_target_stimuli/s11_1x_5_361.png,125,1x,5.0,0.3,5152,127,meters,jsons/MX_seq21_0_VE125.json,400706,1827994,31,Man
40,759689,final-intermixed-textured,v2,jsons/MX_seq21_0_VE125.json,http://54.235.29.9/FacialAge/BNav_EC2/DepthDuration/MX_fS_VE_MTurk/MX_fS_HTML.html#293,293,1920,1080,1920,1080,1-12-2024,17-36-19,41,VR_target_stimuli/s2_1.3x_2.7_397_BC.png,125,1.3x,2.7,0.5,4977,135,meters,jsons/MX_seq21_0_VE125.json,400706,1827994,31,Man
41,759689,final-intermixed-textured,v2,jsons/MX_seq21_0_VE125.json,http://54.235.29.9/FacialAge/BNav_EC2/DepthDuration/MX_fS_VE_MTurk/MX_fS_HTML.html#293,293,1920,1080,1920,1080,1-12-2024,17-36-19,42,VR_target_stimuli/s6_0.75x_2.1_290_BC.png,125,0.75x,2.1,0.5,5305,126,meters,jsons/MX_seq21_0_VE125.json,400706,1827994,31,Man
42,759689,final-intermixed-textured,v2,jsons/MX_seq21_0_VE125.json,http://54.235.29.9/FacialAge/BNav_EC2/DepthDuration/MX_fS_VE_MTurk/MX_fS_HTML.html#293,293,1920,1080,1920,1080,1-12-2024,17-36-19,43,VR_target_stimuli/s0_1x_2.6_351.png,125,1x,2.6,0.5,4304,126,meters,jsons/MX_seq21_0_VE125.json,400706,1827994,31,Man
43,759689,final-intermixed-textured,v2,jsons/MX_seq21_0_VE125.json,http://54.235.29.9/FacialAge/BNav_EC2/DepthDuration/MX_fS_VE_MTurk/MX_fS_HTML.html#293,293,1920,1080,1920,1080,1-12-2024,17-36-19,44,VR_target_stimuli/s34_0.75x_2.8_269.png,125,0.75x,2.8,0.1,4182,127,meters,jsons/MX_seq21_0_VE125.json,400706,1827994,31,Man
44,759689,final-intermixed-textured,v2,jsons/MX_seq21_0_VE125.json,http://54.235.29.9/FacialAge/BNav_EC2/DepthDuration/MX_fS_VE_MTurk/MX_fS_HTML.html#293,293,1920,1080,1920,1080,1-12-2024,17-36-19,45,catch_stimuli/c4.png,125,,,0.0,10785,120,meters,jsons/MX_seq21_0_VE125.json,400706,1827994,31,Man
45,759689,final-intermixed-textured,v2,jsons/MX_seq21_0_VE125.json,http://54.235.29.9/FacialAge/BNav_EC2/DepthDuration/MX_fS_VE_MTurk/MX_fS_HTML.html#293,293,1920,1080,1920,1080,1-12-2024,17-36-19,46,VR_target_stimuli/s13_1.3x_2.4_313.png,125,1.3x,2.4,0.8,12483,127,meters,jsons/MX_seq21_0_VE125.json,400706,1827994,31,Man
46,759689,final-intermixed-textured,v2,jsons/MX_seq21_0_VE125.json,http://54.235.29.9/FacialAge/BNav_EC2/DepthDuration/MX_fS_VE_MTurk/MX_fS_HTML.html#293,293,1920,1080,1920,1080,1-12-2024,17-36-19,47,VR_target_stimuli/s14_1x_ 3.83_357_BC.png,125,1x,3.83,0.6,4801,124,meters,jsons/MX_seq21_0_VE125.json,400706,1827994,31,Man
47,759689,final-intermixed-textured,v2,jsons/MX_seq21_0_VE125.json,http://54.235.29.9/FacialAge/BNav_EC2/DepthDuration/MX_fS_VE_MTurk/MX_fS_HTML.html#293,293,1920,1080,1920,1080,1-12-2024,17-36-19,48,VR_target_stimuli/s47_1x_3.45_370.png,125,1x,3.45,0.6,4854,127,meters,jsons/MX_seq21_0_VE125.json,400706,1827994,31,Man
48,759689,final-intermixed-textured,v2,jsons/MX_seq21_0_VE125.json,http://54.235.29.9/FacialAge/BNav_EC2/DepthDuration/MX_fS_VE_MTurk/MX_fS_HTML.html#293,293,1920,1080,1920,1080,1-12-2024,17-36-19,49,VR_target_stimuli/s29_0.75x_1.3_246_BC.png,125,0.75x,1.3,0.6,6413,114,meters,jsons/MX_seq21_0_VE125.json,400706,1827994,31,Man
49,759689,final-intermixed-textured,v2,jsons/MX_seq21_0_VE125.json,http://54.235.29.9/FacialAge/BNav_EC2/DepthDuration/MX_fS_VE_MTurk/MX_fS_HTML.html#293,293,1920,1080,1920,1080,1-12-2024,17-36-19,50,VR_target_stimuli/s28_1.3x_3.2_365.png,125,1.3x,3.2,0.8,9408,125,meters,jsons/MX_seq21_0_VE125.json,400706,1827994,31,Man
50,759689,final-intermixed-textured,v2,jsons/MX_seq21_0_VE125.json,http://54.235.29.9/FacialAge/BNav_EC2/DepthDuration/MX_fS_VE_MTurk/MX_fS_HTML.html#293,293,1920,1080,1920,1080,1-12-2024,17-36-19,51,VR_target_stimuli/s48_0.75x_2.55_243.png,125,0.75x,2.55,0.1,4183,125,meters,jsons/MX_seq21_0_VE125.json,400706,1827994,31,Man
51,759689,final-intermixed-textured,v2,jsons/MX_seq21_0_VE125.json,http://54.235.29.9/FacialAge/BNav_EC2/DepthDuration/MX_fS_VE_MTurk/MX_fS_HTML.html#293,293,1920,1080,1920,1080,1-12-2024,17-36-19,52,VR_target_stimuli/s19_1x_1.21_263_BC.png,125,1x,1.21,0.6,6046,126,meters,jsons/MX_seq21_0_VE125.json,400706,1827994,31,Man
52,759689,final-intermixed-textured,v2,jsons/MX_seq21_0_VE125.json,http://54.235.29.9/FacialAge/BNav_EC2/DepthDuration/MX_fS_VE_MTurk/MX_fS_HTML.html#293,293,1920,1080,1920,1080,1-12-2024,17-36-19,53,catch_stimuli/c5.png,125,,,0.0,3872,123,meters,jsons/MX_seq21_0_VE125.json,400706,1827994,31,Man
53,759689,final-intermixed-textured,v2,jsons/MX_seq21_0_VE125.json,http://54.235.29.9/FacialAge/BNav_EC2/DepthDuration/MX_fS_VE_MTurk/MX_fS_HTML.html#293,293,1920,1080,1920,1080,1-12-2024,17-36-19,54,VR_target_stimuli/s21_1.3x_4.22_384_BC.png,125,1.3x,4.22,0.4,4818,127,meters,jsons/MX_seq21_0_VE125.json,400706,1827994,31,Man
54,759689,final-intermixed-textured,v2,jsons/MX_seq21_0_VE125.json,http://54.235.29.9/FacialAge/BNav_EC2/DepthDuration/MX_fS_VE_MTurk/MX_fS_HTML.html#293,293,1920,1080,1920,1080,1-12-2024,17-36-19,55,VR_target_stimuli/s8_1x_3.1_332_BC.png,125,1x,3.1,0.5,5451,127,meters,jsons/MX_seq21_0_VE125.json,400706,1827994,31,Man
55,759689,final-intermixed-textured,v2,jsons/MX_seq21_0_VE125.json,http://54.235.29.9/FacialAge/BNav_EC2/DepthDuration/MX_fS_VE_MTurk/MX_fS_HTML.html#293,293,1920,1080,1920,1080,1-12-2024,17-36-19,56,VR_target_stimuli/s27_0.75x_1.76_243_BC.png,125,0.75x,1.76,0.5,4485,122,meters,jsons/MX_seq21_0_VE125.json,400706,1827994,31,Man
56,759689,final-intermixed-textured,v2,jsons/MX_seq21_0_VE125.json,http://54.235.29.9/FacialAge/BNav_EC2/DepthDuration/MX_fS_VE_MTurk/MX_fS_HTML.html#293,293,1920,1080,1920,1080,1-12-2024,17-36-19,57,VR_target_stimuli/s15_1.3x_4.2_389.png,125,1.3x,4.2,0.5,4389,127,meters,jsons/MX_seq21_0_VE125.json,400706,1827994,31,Man
57,759689,final-intermixed-textured,v2,jsons/MX_seq21_0_VE125.json,http://54.235.29.9/FacialAge/BNav_EC2/DepthDuration/MX_fS_VE_MTurk/MX_fS_HTML.html#293,293,1920,1080,1920,1080,1-12-2024,17-36-19,58,VR_target_stimuli/s4_1.3x_1.4_328_BC.png,125,1.3x,1.4,0.5,4366,122,meters,jsons/MX_seq21_0_VE125.json,400706,1827994,31,Man
58,759689,final-intermixed-textured,v2,jsons/MX_seq21_0_VE125.json,http://54.235.29.9/FacialAge/BNav_EC2/DepthDuration/MX_fS_VE_MTurk/MX_fS_HTML.html#293,293,1920,1080,1920,1080,1-12-2024,17-36-19,59,VR_target_stimuli/s35_1x_2_331.png,125,1x,2.0,0.5,4767,128,meters,jsons/MX_seq21_0_VE125.json,400706,1827994,31,Man
59,759689,final-intermixed-textured,v2,jsons/MX_seq21_0_VE125.json,http://54.235.29.9/FacialAge/BNav_EC2/DepthDuration/MX_fS_VE_MTurk/MX_fS_HTML.html#293,293,1920,1080,1920,1080,1-12-2024,17-36-19,60,VR_target_stimuli/s49_0.75x_4.67_328.png,125,0.75x,4.67,0.1,4599,125,meters,jsons/MX_seq21_0_VE125.json,400706,1827994,31,Man
