,subjID,experimentName,versionName,sequenceName,url,selected_row,windowWidth,windowHeight,screenWidth,screenHeight,startDate,startTime,trial,stimulus,duration,scale,actual_depth,depth_estimate,trial_RT,log_sceneDuration,unitSelection,seq_filepath,experimentTime,totalTime,age,gender
0,762589,final-intermixed-textured,v2,jsons/MX_seq37_1_VE125_flipped.json,http://54.235.29.9/FacialAge/BNav_EC2/DepthDuration/MX_fS_VE_MTurk/MX_fS_HTML.html#33,33,2560,1313,2560,1440,1-12-2024,12-48-11,1,VR_target_stimuli/s23_1.3x_3.65_354_BC.png,125,1.3x,3.65,2.0,4389,125,meters,jsons/MX_seq37_1_VE125_flipped.json,234766,468278,33,Man
1,762589,final-intermixed-textured,v2,jsons/MX_seq37_1_VE125_flipped.json,http://54.235.29.9/FacialAge/BNav_EC2/DepthDuration/MX_fS_VE_MTurk/MX_fS_HTML.html#33,33,2560,1313,2560,1440,1-12-2024,12-48-11,2,VR_target_stimuli/s26_0.75x_4_430_BC.png,125,0.75x,4.0,3.0,1884,124,meters,jsons/MX_seq37_1_VE125_flipped.json,234766,468278,33,Man
2,762589,final-intermixed-textured,v2,jsons/MX_seq37_1_VE125_flipped.json,http://54.235.29.9/FacialAge/BNav_EC2/DepthDuration/MX_fS_VE_MTurk/MX_fS_HTML.html#33,33,2560,1313,2560,1440,1-12-2024,12-48-11,3,VR_target_stimuli/s12_1x_3.1_372_BC.png,125,1x,3.1,3.0,4708,113,meters,jsons/MX_seq37_1_VE125_flipped.json,234766,468278,33,Man
3,762589,final-intermixed-textured,v2,jsons/MX_seq37_1_VE125_flipped.json,http://54.235.29.9/FacialAge/BNav_EC2/DepthDuration/MX_fS_VE_MTurk/MX_fS_HTML.html#33,33,2560,1313,2560,1440,1-12-2024,12-48-11,4,VR_target_stimuli/s30_0.75x_2.3_332.png,125,0.75x,2.3,3.0,2377,126,meters,jsons/MX_seq37_1_VE125_flipped.json,234766,468278,33,Man
4,762589,final-intermixed-textured,v2,jsons/MX_seq37_1_VE125_flipped.json,http://54.235.29.9/FacialAge/BNav_EC2/DepthDuration/MX_fS_VE_MTurk/MX_fS_HTML.html#33,33,2560,1313,2560,1440,1-12-2024,12-48-11,5,VR_target_stimuli/s16_1.3x_1_223.png,125,1.3x,1.0,1.5,10947,124,meters,jsons/MX_seq37_1_VE125_flipped.json,234766,468278,33,Man
5,762589,final-intermixed-textured,v2,jsons/MX_seq37_1_VE125_flipped.json,http://54.235.29.9/FacialAge/BNav_EC2/DepthDuration/MX_fS_VE_MTurk/MX_fS_HTML.html#33,33,2560,1313,2560,1440,1-12-2024,12-48-11,6,VR_target_stimuli/s17_1x_1.8_291.png,125,1x,1.8,2.0,4672,120,meters,jsons/MX_seq37_1_VE125_flipped.json,234766,468278,33,Man
6,762589,final-intermixed-textured,v2,jsons/MX_seq37_1_VE125_flipped.json,http://54.235.29.9/FacialAge/BNav_EC2/DepthDuration/MX_fS_VE_MTurk/MX_fS_HTML.html#33,33,2560,1313,2560,1440,1-12-2024,12-48-11,7,catch_stimuli/c0_BC.png,125,,,0.0,2300,118,meters,jsons/MX_seq37_1_VE125_flipped.json,234766,468278,33,Man
7,762589,final-intermixed-textured,v2,jsons/MX_seq37_1_VE125_flipped.json,http://54.235.29.9/FacialAge/BNav_EC2/DepthDuration/MX_fS_VE_MTurk/MX_fS_HTML.html#33,33,2560,1313,2560,1440,1-12-2024,12-48-11,8,VR_target_stimuli/s5_1x_4_378_BC.png,125,1x,4.0,2.0,6989,118,meters,jsons/MX_seq37_1_VE125_flipped.json,234766,468278,33,Man
8,762589,final-intermixed-textured,v2,jsons/MX_seq37_1_VE125_flipped.json,http://54.235.29.9/FacialAge/BNav_EC2/DepthDuration/MX_fS_VE_MTurk/MX_fS_HTML.html#33,33,2560,1313,2560,1440,1-12-2024,12-48-11,9,VR_target_stimuli/s37_0.75x_3.3_567_BC.png,125,0.75x,3.3,3.0,2584,123,meters,jsons/MX_seq37_1_VE125_flipped.json,234766,468278,33,Man
9,762589,final-intermixed-textured,v2,jsons/MX_seq37_1_VE125_flipped.json,http://54.235.29.9/FacialAge/BNav_EC2/DepthDuration/MX_fS_VE_MTurk/MX_fS_HTML.html#33,33,2560,1313,2560,1440,1-12-2024,12-48-11,10,VR_target_stimuli/s46_1.3x_2.42_354_BC.png,125,1.3x,2.42,0.0,3492,123,meters,jsons/MX_seq37_1_VE125_flipped.json,234766,468278,33,Man
10,762589,final-intermixed-textured,v2,jsons/MX_seq37_1_VE125_flipped.json,http://54.235.29.9/FacialAge/BNav_EC2/DepthDuration/MX_fS_VE_MTurk/MX_fS_HTML.html#33,33,2560,1313,2560,1440,1-12-2024,12-48-11,11,VR_target_stimuli/s22_0.75x_4.29_348.png,125,0.75x,4.29,5.0,4008,125,meters,jsons/MX_seq37_1_VE125_flipped.json,234766,468278,33,Man
11,762589,final-intermixed-textured,v2,jsons/MX_seq37_1_VE125_flipped.json,http://54.235.29.9/FacialAge/BNav_EC2/DepthDuration/MX_fS_VE_MTurk/MX_fS_HTML.html#33,33,2560,1313,2560,1440,1-12-2024,12-48-11,12,VR_target_stimuli/s42_1x_3.2_303.png,125,1x,3.2,4.0,3011,124,meters,jsons/MX_seq37_1_VE125_flipped.json,234766,468278,33,Man
12,762589,final-intermixed-textured,v2,jsons/MX_seq37_1_VE125_flipped.json,http://54.235.29.9/FacialAge/BNav_EC2/DepthDuration/MX_fS_VE_MTurk/MX_fS_HTML.html#33,33,2560,1313,2560,1440,1-12-2024,12-48-11,13,VR_target_stimuli/s25_1.3x_1.4_299.png,125,1.3x,1.4,2.5,4015,139,meters,jsons/MX_seq37_1_VE125_flipped.json,234766,468278,33,Man
13,762589,final-intermixed-textured,v2,jsons/MX_seq37_1_VE125_flipped.json,http://54.235.29.9/FacialAge/BNav_EC2/DepthDuration/MX_fS_VE_MTurk/MX_fS_HTML.html#33,33,2560,1313,2560,1440,1-12-2024,12-48-11,14,VR_target_stimuli/s50_1x_4.53_518.png,125,1x,4.53,0.0,2459,122,meters,jsons/MX_seq37_1_VE125_flipped.json,234766,468278,33,Man
14,762589,final-intermixed-textured,v2,jsons/MX_seq37_1_VE125_flipped.json,http://54.235.29.9/FacialAge/BNav_EC2/DepthDuration/MX_fS_VE_MTurk/MX_fS_HTML.html#33,33,2560,1313,2560,1440,1-12-2024,12-48-11,15,VR_target_stimuli/s53_0.75x_1.6_403_BC.png,125,0.75x,1.6,1.5,5083,123,meters,jsons/MX_seq37_1_VE125_flipped.json,234766,468278,33,Man
15,762589,final-intermixed-textured,v2,jsons/MX_seq37_1_VE125_flipped.json,http://54.235.29.9/FacialAge/BNav_EC2/DepthDuration/MX_fS_VE_MTurk/MX_fS_HTML.html#33,33,2560,1313,2560,1440,1-12-2024,12-48-11,16,VR_target_stimuli/s38_1.3x_3.55_358.png,125,1.3x,3.55,4.0,8075,124,meters,jsons/MX_seq37_1_VE125_flipped.json,234766,468278,33,Man
16,762589,final-intermixed-textured,v2,jsons/MX_seq37_1_VE125_flipped.json,http://54.235.29.9/FacialAge/BNav_EC2/DepthDuration/MX_fS_VE_MTurk/MX_fS_HTML.html#33,33,2560,1313,2560,1440,1-12-2024,12-48-11,17,catch_stimuli/c1_BC.png,125,,,0.0,2058,122,meters,jsons/MX_seq37_1_VE125_flipped.json,234766,468278,33,Man
17,762589,final-intermixed-textured,v2,jsons/MX_seq37_1_VE125_flipped.json,http://54.235.29.9/FacialAge/BNav_EC2/DepthDuration/MX_fS_VE_MTurk/MX_fS_HTML.html#33,33,2560,1313,2560,1440,1-12-2024,12-48-11,18,VR_target_stimuli/s9_1.3x_1.2_276_BC.png,125,1.3x,1.2,1.5,3247,124,meters,jsons/MX_seq37_1_VE125_flipped.json,234766,468278,33,Man
18,762589,final-intermixed-textured,v2,jsons/MX_seq37_1_VE125_flipped.json,http://54.235.29.9/FacialAge/BNav_EC2/DepthDuration/MX_fS_VE_MTurk/MX_fS_HTML.html#33,33,2560,1313,2560,1440,1-12-2024,12-48-11,19,VR_target_stimuli/s44_1x_4.4_317_BC.png,125,1x,4.4,3.0,1853,128,meters,jsons/MX_seq37_1_VE125_flipped.json,234766,468278,33,Man
19,762589,final-intermixed-textured,v2,jsons/MX_seq37_1_VE125_flipped.json,http://54.235.29.9/FacialAge/BNav_EC2/DepthDuration/MX_fS_VE_MTurk/MX_fS_HTML.html#33,33,2560,1313,2560,1440,1-12-2024,12-48-11,20,VR_target_stimuli/s3_0.75x_5_381.png,125,0.75x,5.0,6.0,2577,124,meters,jsons/MX_seq37_1_VE125_flipped.json,234766,468278,33,Man
20,762589,final-intermixed-textured,v2,jsons/MX_seq37_1_VE125_flipped.json,http://54.235.29.9/FacialAge/BNav_EC2/DepthDuration/MX_fS_VE_MTurk/MX_fS_HTML.html#33,33,2560,1313,2560,1440,1-12-2024,12-48-11,21,VR_target_stimuli/s1_1x_1.7_262.png,125,1x,1.7,2.0,3011,125,meters,jsons/MX_seq37_1_VE125_flipped.json,234766,468278,33,Man
21,762589,final-intermixed-textured,v2,jsons/MX_seq37_1_VE125_flipped.json,http://54.235.29.9/FacialAge/BNav_EC2/DepthDuration/MX_fS_VE_MTurk/MX_fS_HTML.html#33,33,2560,1313,2560,1440,1-12-2024,12-48-11,22,VR_target_stimuli/s11_1.3x_5_363.png,125,1.3x,5.0,3.0,2645,124,meters,jsons/MX_seq37_1_VE125_flipped.json,234766,468278,33,Man
22,762589,final-intermixed-textured,v2,jsons/MX_seq37_1_VE125_flipped.json,http://54.235.29.9/FacialAge/BNav_EC2/DepthDuration/MX_fS_VE_MTurk/MX_fS_HTML.html#33,33,2560,1313,2560,1440,1-12-2024,12-48-11,23,VR_target_stimuli/s2_0.75x_2.7_384.png,125,0.75x,2.7,3.0,2658,121,meters,jsons/MX_seq37_1_VE125_flipped.json,234766,468278,33,Man
23,762589,final-intermixed-textured,v2,jsons/MX_seq37_1_VE125_flipped.json,http://54.235.29.9/FacialAge/BNav_EC2/DepthDuration/MX_fS_VE_MTurk/MX_fS_HTML.html#33,33,2560,1313,2560,1440,1-12-2024,12-48-11,24,VR_target_stimuli/s6_1.3x_2.1_298_BC.png,125,1.3x,2.1,3.0,3840,125,meters,jsons/MX_seq37_1_VE125_flipped.json,234766,468278,33,Man
24,762589,final-intermixed-textured,v2,jsons/MX_seq37_1_VE125_flipped.json,http://54.235.29.9/FacialAge/BNav_EC2/DepthDuration/MX_fS_VE_MTurk/MX_fS_HTML.html#33,33,2560,1313,2560,1440,1-12-2024,12-48-11,25,VR_target_stimuli/s0_1x_2.6_351_BC.png,125,1x,2.6,3.0,1682,124,meters,jsons/MX_seq37_1_VE125_flipped.json,234766,468278,33,Man
25,762589,final-intermixed-textured,v2,jsons/MX_seq37_1_VE125_flipped.json,http://54.235.29.9/FacialAge/BNav_EC2/DepthDuration/MX_fS_VE_MTurk/MX_fS_HTML.html#33,33,2560,1313,2560,1440,1-12-2024,12-48-11,26,catch_stimuli/c2_BC.png,125,,,0.0,2683,125,meters,jsons/MX_seq37_1_VE125_flipped.json,234766,468278,33,Man
26,762589,final-intermixed-textured,v2,jsons/MX_seq37_1_VE125_flipped.json,http://54.235.29.9/FacialAge/BNav_EC2/DepthDuration/MX_fS_VE_MTurk/MX_fS_HTML.html#33,33,2560,1313,2560,1440,1-12-2024,12-48-11,27,VR_target_stimuli/s34_0.75x_2.8_269_BC.png,125,0.75x,2.8,5.0,3132,122,meters,jsons/MX_seq37_1_VE125_flipped.json,234766,468278,33,Man
27,762589,final-intermixed-textured,v2,jsons/MX_seq37_1_VE125_flipped.json,http://54.235.29.9/FacialAge/BNav_EC2/DepthDuration/MX_fS_VE_MTurk/MX_fS_HTML.html#33,33,2560,1313,2560,1440,1-12-2024,12-48-11,28,VR_target_stimuli/s13_0.75x_2.4_308.png,125,0.75x,2.4,4.0,2505,125,meters,jsons/MX_seq37_1_VE125_flipped.json,234766,468278,33,Man
28,762589,final-intermixed-textured,v2,jsons/MX_seq37_1_VE125_flipped.json,http://54.235.29.9/FacialAge/BNav_EC2/DepthDuration/MX_fS_VE_MTurk/MX_fS_HTML.html#33,33,2560,1313,2560,1440,1-12-2024,12-48-11,29,VR_target_stimuli/s14_1.3x_3.83_359.png,125,1.3x,3.83,5.0,3914,123,meters,jsons/MX_seq37_1_VE125_flipped.json,234766,468278,33,Man
29,762589,final-intermixed-textured,v2,jsons/MX_seq37_1_VE125_flipped.json,http://54.235.29.9/FacialAge/BNav_EC2/DepthDuration/MX_fS_VE_MTurk/MX_fS_HTML.html#33,33,2560,1313,2560,1440,1-12-2024,12-48-11,30,VR_target_stimuli/s47_1x_3.45_370_BC.png,125,1x,3.45,4.0,3854,124,meters,jsons/MX_seq37_1_VE125_flipped.json,234766,468278,33,Man
30,762589,final-intermixed-textured,v2,jsons/MX_seq37_1_VE125_flipped.json,http://54.235.29.9/FacialAge/BNav_EC2/DepthDuration/MX_fS_VE_MTurk/MX_fS_HTML.html#33,33,2560,1313,2560,1440,1-12-2024,12-48-11,31,VR_target_stimuli/s29_0.75x_1.3_246_BC.png,125,0.75x,1.3,3.0,1889,126,meters,jsons/MX_seq37_1_VE125_flipped.json,234766,468278,33,Man
31,762589,final-intermixed-textured,v2,jsons/MX_seq37_1_VE125_flipped.json,http://54.235.29.9/FacialAge/BNav_EC2/DepthDuration/MX_fS_VE_MTurk/MX_fS_HTML.html#33,33,2560,1313,2560,1440,1-12-2024,12-48-11,32,VR_target_stimuli/s28_1x_3.2_362.png,125,1x,3.2,3.0,1860,123,meters,jsons/MX_seq37_1_VE125_flipped.json,234766,468278,33,Man
32,762589,final-intermixed-textured,v2,jsons/MX_seq37_1_VE125_flipped.json,http://54.235.29.9/FacialAge/BNav_EC2/DepthDuration/MX_fS_VE_MTurk/MX_fS_HTML.html#33,33,2560,1313,2560,1440,1-12-2024,12-48-11,33,VR_target_stimuli/s48_1.3x_2.55_255_BC.png,125,1.3x,2.55,3.0,2771,138,meters,jsons/MX_seq37_1_VE125_flipped.json,234766,468278,33,Man
33,762589,final-intermixed-textured,v2,jsons/MX_seq37_1_VE125_flipped.json,http://54.235.29.9/FacialAge/BNav_EC2/DepthDuration/MX_fS_VE_MTurk/MX_fS_HTML.html#33,33,2560,1313,2560,1440,1-12-2024,12-48-11,34,catch_stimuli/c3_BC.png,125,,,0.0,2627,124,meters,jsons/MX_seq37_1_VE125_flipped.json,234766,468278,33,Man
34,762589,final-intermixed-textured,v2,jsons/MX_seq37_1_VE125_flipped.json,http://54.235.29.9/FacialAge/BNav_EC2/DepthDuration/MX_fS_VE_MTurk/MX_fS_HTML.html#33,33,2560,1313,2560,1440,1-12-2024,12-48-11,35,VR_target_stimuli/s19_1x_1.21_263_BC.png,125,1x,1.21,1.5,7600,124,meters,jsons/MX_seq37_1_VE125_flipped.json,234766,468278,33,Man
35,762589,final-intermixed-textured,v2,jsons/MX_seq37_1_VE125_flipped.json,http://54.235.29.9/FacialAge/BNav_EC2/DepthDuration/MX_fS_VE_MTurk/MX_fS_HTML.html#33,33,2560,1313,2560,1440,1-12-2024,12-48-11,36,VR_target_stimuli/s21_0.75x_4.22_374.png,125,0.75x,4.22,0.0,8223,125,meters,jsons/MX_seq37_1_VE125_flipped.json,234766,468278,33,Man
36,762589,final-intermixed-textured,v2,jsons/MX_seq37_1_VE125_flipped.json,http://54.235.29.9/FacialAge/BNav_EC2/DepthDuration/MX_fS_VE_MTurk/MX_fS_HTML.html#33,33,2560,1313,2560,1440,1-12-2024,12-48-11,37,VR_target_stimuli/s8_1.3x_3.1_345_BC.png,125,1.3x,3.1,3.0,5891,122,meters,jsons/MX_seq37_1_VE125_flipped.json,234766,468278,33,Man
37,762589,final-intermixed-textured,v2,jsons/MX_seq37_1_VE125_flipped.json,http://54.235.29.9/FacialAge/BNav_EC2/DepthDuration/MX_fS_VE_MTurk/MX_fS_HTML.html#33,33,2560,1313,2560,1440,1-12-2024,12-48-11,38,VR_target_stimuli/s27_1.3x_1.76_250.png,125,1.3x,1.76,3.0,2618,113,meters,jsons/MX_seq37_1_VE125_flipped.json,234766,468278,33,Man
38,762589,final-intermixed-textured,v2,jsons/MX_seq37_1_VE125_flipped.json,http://54.235.29.9/FacialAge/BNav_EC2/DepthDuration/MX_fS_VE_MTurk/MX_fS_HTML.html#33,33,2560,1313,2560,1440,1-12-2024,12-48-11,39,VR_target_stimuli/s15_1x_4.2_390.png,125,1x,4.2,6.0,2786,124,meters,jsons/MX_seq37_1_VE125_flipped.json,234766,468278,33,Man
39,762589,final-intermixed-textured,v2,jsons/MX_seq37_1_VE125_flipped.json,http://54.235.29.9/FacialAge/BNav_EC2/DepthDuration/MX_fS_VE_MTurk/MX_fS_HTML.html#33,33,2560,1313,2560,1440,1-12-2024,12-48-11,40,VR_target_stimuli/s4_0.75x_1.4_301_BC.png,125,0.75x,1.4,3.0,1947,122,meters,jsons/MX_seq37_1_VE125_flipped.json,234766,468278,33,Man
40,762589,final-intermixed-textured,v2,jsons/MX_seq37_1_VE125_flipped.json,http://54.235.29.9/FacialAge/BNav_EC2/DepthDuration/MX_fS_VE_MTurk/MX_fS_HTML.html#33,33,2560,1313,2560,1440,1-12-2024,12-48-11,41,VR_target_stimuli/s35_1x_2_331.png,125,1x,2.0,3.0,1467,124,meters,jsons/MX_seq37_1_VE125_flipped.json,234766,468278,33,Man
41,762589,final-intermixed-textured,v2,jsons/MX_seq37_1_VE125_flipped.json,http://54.235.29.9/FacialAge/BNav_EC2/DepthDuration/MX_fS_VE_MTurk/MX_fS_HTML.html#33,33,2560,1313,2560,1440,1-12-2024,12-48-11,42,VR_target_stimuli/s49_1.3x_4.67_354_BC.png,125,1.3x,4.67,7.0,5063,124,meters,jsons/MX_seq37_1_VE125_flipped.json,234766,468278,33,Man
42,762589,final-intermixed-textured,v2,jsons/MX_seq37_1_VE125_flipped.json,http://54.235.29.9/FacialAge/BNav_EC2/DepthDuration/MX_fS_VE_MTurk/MX_fS_HTML.html#33,33,2560,1313,2560,1440,1-12-2024,12-48-11,43,VR_target_stimuli/s7_0.75x_1.5_253_BC.png,125,0.75x,1.5,2.0,4056,124,meters,jsons/MX_seq37_1_VE125_flipped.json,234766,468278,33,Man
43,762589,final-intermixed-textured,v2,jsons/MX_seq37_1_VE125_flipped.json,http://54.235.29.9/FacialAge/BNav_EC2/DepthDuration/MX_fS_VE_MTurk/MX_fS_HTML.html#33,33,2560,1313,2560,1440,1-12-2024,12-48-11,44,VR_target_stimuli/s20_1.3x_4.99_412.png,125,1.3x,4.99,5.0,2349,129,meters,jsons/MX_seq37_1_VE125_flipped.json,234766,468278,33,Man
44,762589,final-intermixed-textured,v2,jsons/MX_seq37_1_VE125_flipped.json,http://54.235.29.9/FacialAge/BNav_EC2/DepthDuration/MX_fS_VE_MTurk/MX_fS_HTML.html#33,33,2560,1313,2560,1440,1-12-2024,12-48-11,45,catch_stimuli/c4_BC.png,125,,,0.0,2134,125,meters,jsons/MX_seq37_1_VE125_flipped.json,234766,468278,33,Man
45,762589,final-intermixed-textured,v2,jsons/MX_seq37_1_VE125_flipped.json,http://54.235.29.9/FacialAge/BNav_EC2/DepthDuration/MX_fS_VE_MTurk/MX_fS_HTML.html#33,33,2560,1313,2560,1440,1-12-2024,12-48-11,46,VR_target_stimuli/s31_1x_4.96_333_BC.png,125,1x,4.96,3.0,2583,125,meters,jsons/MX_seq37_1_VE125_flipped.json,234766,468278,33,Man
46,762589,final-intermixed-textured,v2,jsons/MX_seq37_1_VE125_flipped.json,http://54.235.29.9/FacialAge/BNav_EC2/DepthDuration/MX_fS_VE_MTurk/MX_fS_HTML.html#33,33,2560,1313,2560,1440,1-12-2024,12-48-11,47,VR_target_stimuli/s33_0.75x_3.1_361.png,125,0.75x,3.1,4.0,1469,124,meters,jsons/MX_seq37_1_VE125_flipped.json,234766,468278,33,Man
47,762589,final-intermixed-textured,v2,jsons/MX_seq37_1_VE125_flipped.json,http://54.235.29.9/FacialAge/BNav_EC2/DepthDuration/MX_fS_VE_MTurk/MX_fS_HTML.html#33,33,2560,1313,2560,1440,1-12-2024,12-48-11,48,VR_target_stimuli/s52_0.75x_3.2_270_BC.png,125,0.75x,3.2,3.0,1504,127,meters,jsons/MX_seq37_1_VE125_flipped.json,234766,468278,33,Man
48,762589,final-intermixed-textured,v2,jsons/MX_seq37_1_VE125_flipped.json,http://54.235.29.9/FacialAge/BNav_EC2/DepthDuration/MX_fS_VE_MTurk/MX_fS_HTML.html#33,33,2560,1313,2560,1440,1-12-2024,12-48-11,49,VR_target_stimuli/s32_1.3x_1.5_224.png,125,1.3x,1.5,2.5,3806,122,meters,jsons/MX_seq37_1_VE125_flipped.json,234766,468278,33,Man
49,762589,final-intermixed-textured,v2,jsons/MX_seq37_1_VE125_flipped.json,http://54.235.29.9/FacialAge/BNav_EC2/DepthDuration/MX_fS_VE_MTurk/MX_fS_HTML.html#33,33,2560,1313,2560,1440,1-12-2024,12-48-11,50,VR_target_stimuli/s18_1x_2.25_353.png,125,1x,2.25,3.0,2166,118,meters,jsons/MX_seq37_1_VE125_flipped.json,234766,468278,33,Man
50,762589,final-intermixed-textured,v2,jsons/MX_seq37_1_VE125_flipped.json,http://54.235.29.9/FacialAge/BNav_EC2/DepthDuration/MX_fS_VE_MTurk/MX_fS_HTML.html#33,33,2560,1313,2560,1440,1-12-2024,12-48-11,51,VR_target_stimuli/s39_1.3x_1_208_BC.png,125,1.3x,1.0,1.5,3050,124,meters,jsons/MX_seq37_1_VE125_flipped.json,234766,468278,33,Man
51,762589,final-intermixed-textured,v2,jsons/MX_seq37_1_VE125_flipped.json,http://54.235.29.9/FacialAge/BNav_EC2/DepthDuration/MX_fS_VE_MTurk/MX_fS_HTML.html#33,33,2560,1313,2560,1440,1-12-2024,12-48-11,52,VR_target_stimuli/s51_0.75x_3.64_460.png,125,0.75x,3.64,2.0,2762,122,meters,jsons/MX_seq37_1_VE125_flipped.json,234766,468278,33,Man
52,762589,final-intermixed-textured,v2,jsons/MX_seq37_1_VE125_flipped.json,http://54.235.29.9/FacialAge/BNav_EC2/DepthDuration/MX_fS_VE_MTurk/MX_fS_HTML.html#33,33,2560,1313,2560,1440,1-12-2024,12-48-11,53,catch_stimuli/c5_BC.png,125,,,0.0,2020,126,meters,jsons/MX_seq37_1_VE125_flipped.json,234766,468278,33,Man
53,762589,final-intermixed-textured,v2,jsons/MX_seq37_1_VE125_flipped.json,http://54.235.29.9/FacialAge/BNav_EC2/DepthDuration/MX_fS_VE_MTurk/MX_fS_HTML.html#33,33,2560,1313,2560,1440,1-12-2024,12-48-11,54,VR_target_stimuli/s43_1x_2.2_354_BC.png,125,1x,2.2,3.0,2269,139,meters,jsons/MX_seq37_1_VE125_flipped.json,234766,468278,33,Man
54,762589,final-intermixed-textured,v2,jsons/MX_seq37_1_VE125_flipped.json,http://54.235.29.9/FacialAge/BNav_EC2/DepthDuration/MX_fS_VE_MTurk/MX_fS_HTML.html#33,33,2560,1313,2560,1440,1-12-2024,12-48-11,55,VR_target_stimuli/s24_0.75x_3.3_344.png,125,0.75x,3.3,4.0,1507,126,meters,jsons/MX_seq37_1_VE125_flipped.json,234766,468278,33,Man
55,762589,final-intermixed-textured,v2,jsons/MX_seq37_1_VE125_flipped.json,http://54.235.29.9/FacialAge/BNav_EC2/DepthDuration/MX_fS_VE_MTurk/MX_fS_HTML.html#33,33,2560,1313,2560,1440,1-12-2024,12-48-11,56,VR_target_stimuli/s10_1.3x_2.7_325.png,125,1.3x,2.7,3.0,4184,122,meters,jsons/MX_seq37_1_VE125_flipped.json,234766,468278,33,Man
56,762589,final-intermixed-textured,v2,jsons/MX_seq37_1_VE125_flipped.json,http://54.235.29.9/FacialAge/BNav_EC2/DepthDuration/MX_fS_VE_MTurk/MX_fS_HTML.html#33,33,2560,1313,2560,1440,1-12-2024,12-48-11,57,VR_target_stimuli/s36_1x_4.1_423_BC.png,125,1x,4.1,4.0,1518,124,meters,jsons/MX_seq37_1_VE125_flipped.json,234766,468278,33,Man
57,762589,final-intermixed-textured,v2,jsons/MX_seq37_1_VE125_flipped.json,http://54.235.29.9/FacialAge/BNav_EC2/DepthDuration/MX_fS_VE_MTurk/MX_fS_HTML.html#33,33,2560,1313,2560,1440,1-12-2024,12-48-11,58,VR_target_stimuli/s40_1x_1.2_319.png,125,1x,1.2,1.5,5676,124,meters,jsons/MX_seq37_1_VE125_flipped.json,234766,468278,33,Man
58,762589,final-intermixed-textured,v2,jsons/MX_seq37_1_VE125_flipped.json,http://54.235.29.9/FacialAge/BNav_EC2/DepthDuration/MX_fS_VE_MTurk/MX_fS_HTML.html#33,33,2560,1313,2560,1440,1-12-2024,12-48-11,59,VR_target_stimuli/s41_0.75x_2.1_281_BC.png,125,0.75x,2.1,3.0,2975,125,meters,jsons/MX_seq37_1_VE125_flipped.json,234766,468278,33,Man
59,762589,final-intermixed-textured,v2,jsons/MX_seq37_1_VE125_flipped.json,http://54.235.29.9/FacialAge/BNav_EC2/DepthDuration/MX_fS_VE_MTurk/MX_fS_HTML.html#33,33,2560,1313,2560,1440,1-12-2024,12-48-11,60,VR_target_stimuli/s45_1.3x_3.5_377_BC.png,125,1.3x,3.5,4.0,2882,129,meters,jsons/MX_seq37_1_VE125_flipped.json,234766,468278,33,Man
