,subjID,experimentName,versionName,sequenceName,url,selected_row,windowWidth,windowHeight,screenWidth,screenHeight,startDate,startTime,trial,stimulus,duration,scale,actual_depth,depth_estimate,trial_RT,log_sceneDuration,unitSelection,seq_filepath,experimentTime,totalTime,age,gender
0,781908,final-intermixed-textured,v2,jsons/MX_seq48_0_VE125_flipped.json,http://54.235.29.9/FacialAge/BNav_EC2/DepthDuration/MX_fS_VE_MTurk/MX_fS_HTML.html#9,9,1920,945,1920,1080,1-12-2024,13-32-42,1,VR_target_stimuli/s25_0.75x_1.4_281_BC.png,125,0.75x,1.4,8,6678,111,meters,jsons/MX_seq48_0_VE125_flipped.json,277192,600460,34,Man
1,781908,final-intermixed-textured,v2,jsons/MX_seq48_0_VE125_flipped.json,http://54.235.29.9/FacialAge/BNav_EC2/DepthDuration/MX_fS_VE_MTurk/MX_fS_HTML.html#9,9,1920,945,1920,1080,1-12-2024,13-32-42,2,VR_target_stimuli/s50_1x_4.53_518.png,125,1x,4.53,12,4832,124,meters,jsons/MX_seq48_0_VE125_flipped.json,277192,600460,34,Man
2,781908,final-intermixed-textured,v2,jsons/MX_seq48_0_VE125_flipped.json,http://54.235.29.9/FacialAge/BNav_EC2/DepthDuration/MX_fS_VE_MTurk/MX_fS_HTML.html#9,9,1920,945,1920,1080,1-12-2024,13-32-42,3,VR_target_stimuli/s53_1.3x_1.6_355.png,125,1.3x,1.6,3,4074,124,meters,jsons/MX_seq48_0_VE125_flipped.json,277192,600460,34,Man
3,781908,final-intermixed-textured,v2,jsons/MX_seq48_0_VE125_flipped.json,http://54.235.29.9/FacialAge/BNav_EC2/DepthDuration/MX_fS_VE_MTurk/MX_fS_HTML.html#9,9,1920,945,1920,1080,1-12-2024,13-32-42,4,VR_target_stimuli/s38_1x_3.55_353_BC.png,125,1x,3.55,9,5209,126,meters,jsons/MX_seq48_0_VE125_flipped.json,277192,600460,34,Man
4,781908,final-intermixed-textured,v2,jsons/MX_seq48_0_VE125_flipped.json,http://54.235.29.9/FacialAge/BNav_EC2/DepthDuration/MX_fS_VE_MTurk/MX_fS_HTML.html#9,9,1920,945,1920,1080,1-12-2024,13-32-42,5,VR_target_stimuli/s9_0.75x_1.2_260.png,125,0.75x,1.2,3,4461,124,meters,jsons/MX_seq48_0_VE125_flipped.json,277192,600460,34,Man
5,781908,final-intermixed-textured,v2,jsons/MX_seq48_0_VE125_flipped.json,http://54.235.29.9/FacialAge/BNav_EC2/DepthDuration/MX_fS_VE_MTurk/MX_fS_HTML.html#9,9,1920,945,1920,1080,1-12-2024,13-32-42,6,VR_target_stimuli/s44_1.3x_4.4_325_BC.png,125,1.3x,4.4,8,6848,125,meters,jsons/MX_seq48_0_VE125_flipped.json,277192,600460,34,Man
6,781908,final-intermixed-textured,v2,jsons/MX_seq48_0_VE125_flipped.json,http://54.235.29.9/FacialAge/BNav_EC2/DepthDuration/MX_fS_VE_MTurk/MX_fS_HTML.html#9,9,1920,945,1920,1080,1-12-2024,13-32-42,7,catch_stimuli/c0_BC.png,125,,,0,3587,126,meters,jsons/MX_seq48_0_VE125_flipped.json,277192,600460,34,Man
7,781908,final-intermixed-textured,v2,jsons/MX_seq48_0_VE125_flipped.json,http://54.235.29.9/FacialAge/BNav_EC2/DepthDuration/MX_fS_VE_MTurk/MX_fS_HTML.html#9,9,1920,945,1920,1080,1-12-2024,13-32-42,8,VR_target_stimuli/s3_1.3x_5_390.png,125,1.3x,5.0,9,6311,126,meters,jsons/MX_seq48_0_VE125_flipped.json,277192,600460,34,Man
8,781908,final-intermixed-textured,v2,jsons/MX_seq48_0_VE125_flipped.json,http://54.235.29.9/FacialAge/BNav_EC2/DepthDuration/MX_fS_VE_MTurk/MX_fS_HTML.html#9,9,1920,945,1920,1080,1-12-2024,13-32-42,9,VR_target_stimuli/s1_1x_1.7_262_BC.png,125,1x,1.7,4,3347,125,meters,jsons/MX_seq48_0_VE125_flipped.json,277192,600460,34,Man
9,781908,final-intermixed-textured,v2,jsons/MX_seq48_0_VE125_flipped.json,http://54.235.29.9/FacialAge/BNav_EC2/DepthDuration/MX_fS_VE_MTurk/MX_fS_HTML.html#9,9,1920,945,1920,1080,1-12-2024,13-32-42,10,VR_target_stimuli/s11_0.75x_5_359.png,125,0.75x,5.0,7,4151,127,meters,jsons/MX_seq48_0_VE125_flipped.json,277192,600460,34,Man
10,781908,final-intermixed-textured,v2,jsons/MX_seq48_0_VE125_flipped.json,http://54.235.29.9/FacialAge/BNav_EC2/DepthDuration/MX_fS_VE_MTurk/MX_fS_HTML.html#9,9,1920,945,1920,1080,1-12-2024,13-32-42,11,VR_target_stimuli/s2_1x_2.7_390.png,125,1x,2.7,5,3589,112,meters,jsons/MX_seq48_0_VE125_flipped.json,277192,600460,34,Man
11,781908,final-intermixed-textured,v2,jsons/MX_seq48_0_VE125_flipped.json,http://54.235.29.9/FacialAge/BNav_EC2/DepthDuration/MX_fS_VE_MTurk/MX_fS_HTML.html#9,9,1920,945,1920,1080,1-12-2024,13-32-42,12,VR_target_stimuli/s6_1.3x_2.1_298_BC.png,125,1.3x,2.1,2,5060,127,meters,jsons/MX_seq48_0_VE125_flipped.json,277192,600460,34,Man
12,781908,final-intermixed-textured,v2,jsons/MX_seq48_0_VE125_flipped.json,http://54.235.29.9/FacialAge/BNav_EC2/DepthDuration/MX_fS_VE_MTurk/MX_fS_HTML.html#9,9,1920,945,1920,1080,1-12-2024,13-32-42,13,VR_target_stimuli/s0_0.75x_2.6_345_BC.png,125,0.75x,2.6,3,3472,124,meters,jsons/MX_seq48_0_VE125_flipped.json,277192,600460,34,Man
13,781908,final-intermixed-textured,v2,jsons/MX_seq48_0_VE125_flipped.json,http://54.235.29.9/FacialAge/BNav_EC2/DepthDuration/MX_fS_VE_MTurk/MX_fS_HTML.html#9,9,1920,945,1920,1080,1-12-2024,13-32-42,14,VR_target_stimuli/s34_1.3x_2.8_294.png,125,1.3x,2.8,3,4019,126,meters,jsons/MX_seq48_0_VE125_flipped.json,277192,600460,34,Man
14,781908,final-intermixed-textured,v2,jsons/MX_seq48_0_VE125_flipped.json,http://54.235.29.9/FacialAge/BNav_EC2/DepthDuration/MX_fS_VE_MTurk/MX_fS_HTML.html#9,9,1920,945,1920,1080,1-12-2024,13-32-42,15,VR_target_stimuli/s13_1x_2.4_310_BC.png,125,1x,2.4,3,2882,126,meters,jsons/MX_seq48_0_VE125_flipped.json,277192,600460,34,Man
15,781908,final-intermixed-textured,v2,jsons/MX_seq48_0_VE125_flipped.json,http://54.235.29.9/FacialAge/BNav_EC2/DepthDuration/MX_fS_VE_MTurk/MX_fS_HTML.html#9,9,1920,945,1920,1080,1-12-2024,13-32-42,16,VR_target_stimuli/s14_0.75x_3.83_355.png,125,0.75x,3.83,4,3524,124,meters,jsons/MX_seq48_0_VE125_flipped.json,277192,600460,34,Man
16,781908,final-intermixed-textured,v2,jsons/MX_seq48_0_VE125_flipped.json,http://54.235.29.9/FacialAge/BNav_EC2/DepthDuration/MX_fS_VE_MTurk/MX_fS_HTML.html#9,9,1920,945,1920,1080,1-12-2024,13-32-42,17,catch_stimuli/c1_BC.png,125,,,0,4174,126,meters,jsons/MX_seq48_0_VE125_flipped.json,277192,600460,34,Man
17,781908,final-intermixed-textured,v2,jsons/MX_seq48_0_VE125_flipped.json,http://54.235.29.9/FacialAge/BNav_EC2/DepthDuration/MX_fS_VE_MTurk/MX_fS_HTML.html#9,9,1920,945,1920,1080,1-12-2024,13-32-42,18,VR_target_stimuli/s47_0.75x_3.45_366_BC.png,125,0.75x,3.45,3,6428,128,meters,jsons/MX_seq48_0_VE125_flipped.json,277192,600460,34,Man
18,781908,final-intermixed-textured,v2,jsons/MX_seq48_0_VE125_flipped.json,http://54.235.29.9/FacialAge/BNav_EC2/DepthDuration/MX_fS_VE_MTurk/MX_fS_HTML.html#9,9,1920,945,1920,1080,1-12-2024,13-32-42,19,VR_target_stimuli/s29_1.3x_1.3_253_BC.png,125,1.3x,1.3,2,3909,126,meters,jsons/MX_seq48_0_VE125_flipped.json,277192,600460,34,Man
19,781908,final-intermixed-textured,v2,jsons/MX_seq48_0_VE125_flipped.json,http://54.235.29.9/FacialAge/BNav_EC2/DepthDuration/MX_fS_VE_MTurk/MX_fS_HTML.html#9,9,1920,945,1920,1080,1-12-2024,13-32-42,20,VR_target_stimuli/s28_1x_3.2_362.png,125,1x,3.2,3,4856,125,meters,jsons/MX_seq48_0_VE125_flipped.json,277192,600460,34,Man
20,781908,final-intermixed-textured,v2,jsons/MX_seq48_0_VE125_flipped.json,http://54.235.29.9/FacialAge/BNav_EC2/DepthDuration/MX_fS_VE_MTurk/MX_fS_HTML.html#9,9,1920,945,1920,1080,1-12-2024,13-32-42,21,VR_target_stimuli/s48_1.3x_2.55_255.png,125,1.3x,2.55,2,7968,126,meters,jsons/MX_seq48_0_VE125_flipped.json,277192,600460,34,Man
21,781908,final-intermixed-textured,v2,jsons/MX_seq48_0_VE125_flipped.json,http://54.235.29.9/FacialAge/BNav_EC2/DepthDuration/MX_fS_VE_MTurk/MX_fS_HTML.html#9,9,1920,945,1920,1080,1-12-2024,13-32-42,22,VR_target_stimuli/s19_0.75x_1.21_257.png,125,0.75x,1.21,2,4718,127,meters,jsons/MX_seq48_0_VE125_flipped.json,277192,600460,34,Man
22,781908,final-intermixed-textured,v2,jsons/MX_seq48_0_VE125_flipped.json,http://54.235.29.9/FacialAge/BNav_EC2/DepthDuration/MX_fS_VE_MTurk/MX_fS_HTML.html#9,9,1920,945,1920,1080,1-12-2024,13-32-42,23,VR_target_stimuli/s21_1x_4.22_379_BC.png,125,1x,4.22,3,5357,127,meters,jsons/MX_seq48_0_VE125_flipped.json,277192,600460,34,Man
23,781908,final-intermixed-textured,v2,jsons/MX_seq48_0_VE125_flipped.json,http://54.235.29.9/FacialAge/BNav_EC2/DepthDuration/MX_fS_VE_MTurk/MX_fS_HTML.html#9,9,1920,945,1920,1080,1-12-2024,13-32-42,24,VR_target_stimuli/s8_0.75x_3.1_325_BC.png,125,0.75x,3.1,4,4318,127,meters,jsons/MX_seq48_0_VE125_flipped.json,277192,600460,34,Man
24,781908,final-intermixed-textured,v2,jsons/MX_seq48_0_VE125_flipped.json,http://54.235.29.9/FacialAge/BNav_EC2/DepthDuration/MX_fS_VE_MTurk/MX_fS_HTML.html#9,9,1920,945,1920,1080,1-12-2024,13-32-42,25,VR_target_stimuli/s27_1.3x_1.76_250_BC.png,125,1.3x,1.76,2,3846,126,meters,jsons/MX_seq48_0_VE125_flipped.json,277192,600460,34,Man
25,781908,final-intermixed-textured,v2,jsons/MX_seq48_0_VE125_flipped.json,http://54.235.29.9/FacialAge/BNav_EC2/DepthDuration/MX_fS_VE_MTurk/MX_fS_HTML.html#9,9,1920,945,1920,1080,1-12-2024,13-32-42,26,catch_stimuli/c2_BC.png,125,,,0,4596,123,meters,jsons/MX_seq48_0_VE125_flipped.json,277192,600460,34,Man
26,781908,final-intermixed-textured,v2,jsons/MX_seq48_0_VE125_flipped.json,http://54.235.29.9/FacialAge/BNav_EC2/DepthDuration/MX_fS_VE_MTurk/MX_fS_HTML.html#9,9,1920,945,1920,1080,1-12-2024,13-32-42,27,VR_target_stimuli/s15_1x_4.2_390.png,125,1x,4.2,4,3110,127,meters,jsons/MX_seq48_0_VE125_flipped.json,277192,600460,34,Man
27,781908,final-intermixed-textured,v2,jsons/MX_seq48_0_VE125_flipped.json,http://54.235.29.9/FacialAge/BNav_EC2/DepthDuration/MX_fS_VE_MTurk/MX_fS_HTML.html#9,9,1920,945,1920,1080,1-12-2024,13-32-42,28,VR_target_stimuli/s4_1x_1.4_313_BC.png,125,1x,1.4,3,6682,126,meters,jsons/MX_seq48_0_VE125_flipped.json,277192,600460,34,Man
28,781908,final-intermixed-textured,v2,jsons/MX_seq48_0_VE125_flipped.json,http://54.235.29.9/FacialAge/BNav_EC2/DepthDuration/MX_fS_VE_MTurk/MX_fS_HTML.html#9,9,1920,945,1920,1080,1-12-2024,13-32-42,29,VR_target_stimuli/s35_0.75x_2_323_BC.png,125,0.75x,2.0,2,5283,125,meters,jsons/MX_seq48_0_VE125_flipped.json,277192,600460,34,Man
29,781908,final-intermixed-textured,v2,jsons/MX_seq48_0_VE125_flipped.json,http://54.235.29.9/FacialAge/BNav_EC2/DepthDuration/MX_fS_VE_MTurk/MX_fS_HTML.html#9,9,1920,945,1920,1080,1-12-2024,13-32-42,30,VR_target_stimuli/s49_1.3x_4.67_354_BC.png,125,1.3x,4.67,5,2803,126,meters,jsons/MX_seq48_0_VE125_flipped.json,277192,600460,34,Man
30,781908,final-intermixed-textured,v2,jsons/MX_seq48_0_VE125_flipped.json,http://54.235.29.9/FacialAge/BNav_EC2/DepthDuration/MX_fS_VE_MTurk/MX_fS_HTML.html#9,9,1920,945,1920,1080,1-12-2024,13-32-42,31,VR_target_stimuli/s7_1x_1.5_255.png,125,1x,1.5,2,4735,125,meters,jsons/MX_seq48_0_VE125_flipped.json,277192,600460,34,Man
31,781908,final-intermixed-textured,v2,jsons/MX_seq48_0_VE125_flipped.json,http://54.235.29.9/FacialAge/BNav_EC2/DepthDuration/MX_fS_VE_MTurk/MX_fS_HTML.html#9,9,1920,945,1920,1080,1-12-2024,13-32-42,32,VR_target_stimuli/s20_1.3x_4.99_412.png,125,1.3x,4.99,4,3290,125,meters,jsons/MX_seq48_0_VE125_flipped.json,277192,600460,34,Man
32,781908,final-intermixed-textured,v2,jsons/MX_seq48_0_VE125_flipped.json,http://54.235.29.9/FacialAge/BNav_EC2/DepthDuration/MX_fS_VE_MTurk/MX_fS_HTML.html#9,9,1920,945,1920,1080,1-12-2024,13-32-42,33,VR_target_stimuli/s31_0.75x_4.96_329.png,125,0.75x,4.96,2,4155,123,meters,jsons/MX_seq48_0_VE125_flipped.json,277192,600460,34,Man
33,781908,final-intermixed-textured,v2,jsons/MX_seq48_0_VE125_flipped.json,http://54.235.29.9/FacialAge/BNav_EC2/DepthDuration/MX_fS_VE_MTurk/MX_fS_HTML.html#9,9,1920,945,1920,1080,1-12-2024,13-32-42,34,catch_stimuli/c3_BC.png,125,,,0,2709,127,meters,jsons/MX_seq48_0_VE125_flipped.json,277192,600460,34,Man
34,781908,final-intermixed-textured,v2,jsons/MX_seq48_0_VE125_flipped.json,http://54.235.29.9/FacialAge/BNav_EC2/DepthDuration/MX_fS_VE_MTurk/MX_fS_HTML.html#9,9,1920,945,1920,1080,1-12-2024,13-32-42,35,VR_target_stimuli/s33_1.3x_3.1_378_BC.png,125,1.3x,3.1,2,5005,125,meters,jsons/MX_seq48_0_VE125_flipped.json,277192,600460,34,Man
35,781908,final-intermixed-textured,v2,jsons/MX_seq48_0_VE125_flipped.json,http://54.235.29.9/FacialAge/BNav_EC2/DepthDuration/MX_fS_VE_MTurk/MX_fS_HTML.html#9,9,1920,945,1920,1080,1-12-2024,13-32-42,36,VR_target_stimuli/s52_1x_3.2_275.png,125,1x,3.2,3,3398,125,meters,jsons/MX_seq48_0_VE125_flipped.json,277192,600460,34,Man
36,781908,final-intermixed-textured,v2,jsons/MX_seq48_0_VE125_flipped.json,http://54.235.29.9/FacialAge/BNav_EC2/DepthDuration/MX_fS_VE_MTurk/MX_fS_HTML.html#9,9,1920,945,1920,1080,1-12-2024,13-32-42,37,VR_target_stimuli/s32_0.75x_1.5_213.png,125,0.75x,1.5,2,3702,121,meters,jsons/MX_seq48_0_VE125_flipped.json,277192,600460,34,Man
37,781908,final-intermixed-textured,v2,jsons/MX_seq48_0_VE125_flipped.json,http://54.235.29.9/FacialAge/BNav_EC2/DepthDuration/MX_fS_VE_MTurk/MX_fS_HTML.html#9,9,1920,945,1920,1080,1-12-2024,13-32-42,38,VR_target_stimuli/s18_0.75x_2.25_341_BC.png,125,0.75x,2.25,2,2247,124,meters,jsons/MX_seq48_0_VE125_flipped.json,277192,600460,34,Man
38,781908,final-intermixed-textured,v2,jsons/MX_seq48_0_VE125_flipped.json,http://54.235.29.9/FacialAge/BNav_EC2/DepthDuration/MX_fS_VE_MTurk/MX_fS_HTML.html#9,9,1920,945,1920,1080,1-12-2024,13-32-42,39,VR_target_stimuli/s39_1.3x_1_208.png,125,1.3x,1.0,1,3752,125,meters,jsons/MX_seq48_0_VE125_flipped.json,277192,600460,34,Man
39,781908,final-intermixed-textured,v2,jsons/MX_seq48_0_VE125_flipped.json,http://54.235.29.9/FacialAge/BNav_EC2/DepthDuration/MX_fS_VE_MTurk/MX_fS_HTML.html#9,9,1920,945,1920,1080,1-12-2024,13-32-42,40,VR_target_stimuli/s51_1x_3.64_461_BC.png,125,1x,3.64,2,3208,128,meters,jsons/MX_seq48_0_VE125_flipped.json,277192,600460,34,Man
40,781908,final-intermixed-textured,v2,jsons/MX_seq48_0_VE125_flipped.json,http://54.235.29.9/FacialAge/BNav_EC2/DepthDuration/MX_fS_VE_MTurk/MX_fS_HTML.html#9,9,1920,945,1920,1080,1-12-2024,13-32-42,41,VR_target_stimuli/s43_1.3x_2.2_363.png,125,1.3x,2.2,2,2592,125,meters,jsons/MX_seq48_0_VE125_flipped.json,277192,600460,34,Man
41,781908,final-intermixed-textured,v2,jsons/MX_seq48_0_VE125_flipped.json,http://54.235.29.9/FacialAge/BNav_EC2/DepthDuration/MX_fS_VE_MTurk/MX_fS_HTML.html#9,9,1920,945,1920,1080,1-12-2024,13-32-42,42,VR_target_stimuli/s24_0.75x_3.3_344.png,125,0.75x,3.3,2,3790,135,meters,jsons/MX_seq48_0_VE125_flipped.json,277192,600460,34,Man
42,781908,final-intermixed-textured,v2,jsons/MX_seq48_0_VE125_flipped.json,http://54.235.29.9/FacialAge/BNav_EC2/DepthDuration/MX_fS_VE_MTurk/MX_fS_HTML.html#9,9,1920,945,1920,1080,1-12-2024,13-32-42,43,VR_target_stimuli/s10_1x_2.7_324.png,125,1x,2.7,3,2353,124,meters,jsons/MX_seq48_0_VE125_flipped.json,277192,600460,34,Man
43,781908,final-intermixed-textured,v2,jsons/MX_seq48_0_VE125_flipped.json,http://54.235.29.9/FacialAge/BNav_EC2/DepthDuration/MX_fS_VE_MTurk/MX_fS_HTML.html#9,9,1920,945,1920,1080,1-12-2024,13-32-42,44,VR_target_stimuli/s36_0.75x_4.1_407_BC.png,125,0.75x,4.1,4,4502,124,meters,jsons/MX_seq48_0_VE125_flipped.json,277192,600460,34,Man
44,781908,final-intermixed-textured,v2,jsons/MX_seq48_0_VE125_flipped.json,http://54.235.29.9/FacialAge/BNav_EC2/DepthDuration/MX_fS_VE_MTurk/MX_fS_HTML.html#9,9,1920,945,1920,1080,1-12-2024,13-32-42,45,catch_stimuli/c4_BC.png,125,,,0,3681,125,meters,jsons/MX_seq48_0_VE125_flipped.json,277192,600460,34,Man
45,781908,final-intermixed-textured,v2,jsons/MX_seq48_0_VE125_flipped.json,http://54.235.29.9/FacialAge/BNav_EC2/DepthDuration/MX_fS_VE_MTurk/MX_fS_HTML.html#9,9,1920,945,1920,1080,1-12-2024,13-32-42,46,VR_target_stimuli/s40_1.3x_1.2_332_BC.png,125,1.3x,1.2,2,5476,126,meters,jsons/MX_seq48_0_VE125_flipped.json,277192,600460,34,Man
46,781908,final-intermixed-textured,v2,jsons/MX_seq48_0_VE125_flipped.json,http://54.235.29.9/FacialAge/BNav_EC2/DepthDuration/MX_fS_VE_MTurk/MX_fS_HTML.html#9,9,1920,945,1920,1080,1-12-2024,13-32-42,47,VR_target_stimuli/s41_1x_2.1_286_BC.png,125,1x,2.1,3,3714,110,meters,jsons/MX_seq48_0_VE125_flipped.json,277192,600460,34,Man
47,781908,final-intermixed-textured,v2,jsons/MX_seq48_0_VE125_flipped.json,http://54.235.29.9/FacialAge/BNav_EC2/DepthDuration/MX_fS_VE_MTurk/MX_fS_HTML.html#9,9,1920,945,1920,1080,1-12-2024,13-32-42,48,VR_target_stimuli/s45_1x_3.5_368.png,125,1x,3.5,2,2926,128,meters,jsons/MX_seq48_0_VE125_flipped.json,277192,600460,34,Man
48,781908,final-intermixed-textured,v2,jsons/MX_seq48_0_VE125_flipped.json,http://54.235.29.9/FacialAge/BNav_EC2/DepthDuration/MX_fS_VE_MTurk/MX_fS_HTML.html#9,9,1920,945,1920,1080,1-12-2024,13-32-42,49,VR_target_stimuli/s23_0.75x_3.65_351_BC.png,125,0.75x,3.65,2,2220,110,meters,jsons/MX_seq48_0_VE125_flipped.json,277192,600460,34,Man
49,781908,final-intermixed-textured,v2,jsons/MX_seq48_0_VE125_flipped.json,http://54.235.29.9/FacialAge/BNav_EC2/DepthDuration/MX_fS_VE_MTurk/MX_fS_HTML.html#9,9,1920,945,1920,1080,1-12-2024,13-32-42,50,VR_target_stimuli/s26_1.3x_4_441_BC.png,125,1.3x,4.0,2,6349,123,meters,jsons/MX_seq48_0_VE125_flipped.json,277192,600460,34,Man
50,781908,final-intermixed-textured,v2,jsons/MX_seq48_0_VE125_flipped.json,http://54.235.29.9/FacialAge/BNav_EC2/DepthDuration/MX_fS_VE_MTurk/MX_fS_HTML.html#9,9,1920,945,1920,1080,1-12-2024,13-32-42,51,VR_target_stimuli/s12_0.75x_3.1_364.png,125,0.75x,3.1,3,3909,124,meters,jsons/MX_seq48_0_VE125_flipped.json,277192,600460,34,Man
51,781908,final-intermixed-textured,v2,jsons/MX_seq48_0_VE125_flipped.json,http://54.235.29.9/FacialAge/BNav_EC2/DepthDuration/MX_fS_VE_MTurk/MX_fS_HTML.html#9,9,1920,945,1920,1080,1-12-2024,13-32-42,52,VR_target_stimuli/s30_1x_2.3_334_BC.png,125,1x,2.3,3,2375,124,meters,jsons/MX_seq48_0_VE125_flipped.json,277192,600460,34,Man
52,781908,final-intermixed-textured,v2,jsons/MX_seq48_0_VE125_flipped.json,http://54.235.29.9/FacialAge/BNav_EC2/DepthDuration/MX_fS_VE_MTurk/MX_fS_HTML.html#9,9,1920,945,1920,1080,1-12-2024,13-32-42,53,catch_stimuli/c5_BC.png,125,,,0,2784,124,meters,jsons/MX_seq48_0_VE125_flipped.json,277192,600460,34,Man
53,781908,final-intermixed-textured,v2,jsons/MX_seq48_0_VE125_flipped.json,http://54.235.29.9/FacialAge/BNav_EC2/DepthDuration/MX_fS_VE_MTurk/MX_fS_HTML.html#9,9,1920,945,1920,1080,1-12-2024,13-32-42,54,VR_target_stimuli/s16_1.3x_1_223.png,125,1.3x,1.0,0,2596,126,meters,jsons/MX_seq48_0_VE125_flipped.json,277192,600460,34,Man
54,781908,final-intermixed-textured,v2,jsons/MX_seq48_0_VE125_flipped.json,http://54.235.29.9/FacialAge/BNav_EC2/DepthDuration/MX_fS_VE_MTurk/MX_fS_HTML.html#9,9,1920,945,1920,1080,1-12-2024,13-32-42,55,VR_target_stimuli/s17_1x_1.8_291.png,125,1x,1.8,2,2793,124,meters,jsons/MX_seq48_0_VE125_flipped.json,277192,600460,34,Man
55,781908,final-intermixed-textured,v2,jsons/MX_seq48_0_VE125_flipped.json,http://54.235.29.9/FacialAge/BNav_EC2/DepthDuration/MX_fS_VE_MTurk/MX_fS_HTML.html#9,9,1920,945,1920,1080,1-12-2024,13-32-42,56,VR_target_stimuli/s5_0.75x_4_375_BC.png,125,0.75x,4.0,4,3590,125,meters,jsons/MX_seq48_0_VE125_flipped.json,277192,600460,34,Man
56,781908,final-intermixed-textured,v2,jsons/MX_seq48_0_VE125_flipped.json,http://54.235.29.9/FacialAge/BNav_EC2/DepthDuration/MX_fS_VE_MTurk/MX_fS_HTML.html#9,9,1920,945,1920,1080,1-12-2024,13-32-42,57,VR_target_stimuli/s37_1.3x_3.3_555_BC.png,125,1.3x,3.3,3,4127,126,meters,jsons/MX_seq48_0_VE125_flipped.json,277192,600460,34,Man
57,781908,final-intermixed-textured,v2,jsons/MX_seq48_0_VE125_flipped.json,http://54.235.29.9/FacialAge/BNav_EC2/DepthDuration/MX_fS_VE_MTurk/MX_fS_HTML.html#9,9,1920,945,1920,1080,1-12-2024,13-32-42,58,VR_target_stimuli/s46_1.3x_2.42_354.png,125,1.3x,2.42,3,4277,139,meters,jsons/MX_seq48_0_VE125_flipped.json,277192,600460,34,Man
58,781908,final-intermixed-textured,v2,jsons/MX_seq48_0_VE125_flipped.json,http://54.235.29.9/FacialAge/BNav_EC2/DepthDuration/MX_fS_VE_MTurk/MX_fS_HTML.html#9,9,1920,945,1920,1080,1-12-2024,13-32-42,59,VR_target_stimuli/s22_1x_4.29_354_BC.png,125,1x,4.29,4,2702,126,meters,jsons/MX_seq48_0_VE125_flipped.json,277192,600460,34,Man
59,781908,final-intermixed-textured,v2,jsons/MX_seq48_0_VE125_flipped.json,http://54.235.29.9/FacialAge/BNav_EC2/DepthDuration/MX_fS_VE_MTurk/MX_fS_HTML.html#9,9,1920,945,1920,1080,1-12-2024,13-32-42,60,VR_target_stimuli/s42_0.75x_3.2_301.png,125,0.75x,3.2,3,3654,126,meters,jsons/MX_seq48_0_VE125_flipped.json,277192,600460,34,Man
