,subjID,experimentName,versionName,sequenceName,url,selected_row,windowWidth,windowHeight,screenWidth,screenHeight,startDate,startTime,trial,stimulus,duration,scale,actual_depth,depth_estimate,trial_RT,log_sceneDuration,unitSelection,seq_filepath,experimentTime,totalTime,age,gender
0,808156,final-intermixed-textured,v2,jsons/MX_seq46_2_VE125_flipped.json,http://54.235.29.9/FacialAge/BNav_EC2/DepthDuration/MX_fS_VE_MTurk/MX_fS_HTML.html#205,205,1272,645,1280,720,1-12-2024,16-26-53,1,VR_target_stimuli/s22_1x_4.29_354.png,125,1x,4.29,5.0,5102,115,meters,jsons/MX_seq46_2_VE125_flipped.json,179880,403143,22,Woman
1,808156,final-intermixed-textured,v2,jsons/MX_seq46_2_VE125_flipped.json,http://54.235.29.9/FacialAge/BNav_EC2/DepthDuration/MX_fS_VE_MTurk/MX_fS_HTML.html#205,205,1272,645,1280,720,1-12-2024,16-26-53,2,VR_target_stimuli/s42_1.3x_3.2_305.png,125,1.3x,3.2,5.0,2466,123,meters,jsons/MX_seq46_2_VE125_flipped.json,179880,403143,22,Woman
2,808156,final-intermixed-textured,v2,jsons/MX_seq46_2_VE125_flipped.json,http://54.235.29.9/FacialAge/BNav_EC2/DepthDuration/MX_fS_VE_MTurk/MX_fS_HTML.html#205,205,1272,645,1280,720,1-12-2024,16-26-53,3,VR_target_stimuli/s25_0.75x_1.4_281_BC.png,125,0.75x,1.4,4.0,2324,122,meters,jsons/MX_seq46_2_VE125_flipped.json,179880,403143,22,Woman
3,808156,final-intermixed-textured,v2,jsons/MX_seq46_2_VE125_flipped.json,http://54.235.29.9/FacialAge/BNav_EC2/DepthDuration/MX_fS_VE_MTurk/MX_fS_HTML.html#205,205,1272,645,1280,720,1-12-2024,16-26-53,4,VR_target_stimuli/s50_1.3x_4.53_518_BC.png,125,1.3x,4.53,2.0,2225,121,meters,jsons/MX_seq46_2_VE125_flipped.json,179880,403143,22,Woman
4,808156,final-intermixed-textured,v2,jsons/MX_seq46_2_VE125_flipped.json,http://54.235.29.9/FacialAge/BNav_EC2/DepthDuration/MX_fS_VE_MTurk/MX_fS_HTML.html#205,205,1272,645,1280,720,1-12-2024,16-26-53,5,VR_target_stimuli/s53_1x_1.6_387_BC.png,125,1x,1.6,1.0,1997,122,meters,jsons/MX_seq46_2_VE125_flipped.json,179880,403143,22,Woman
5,808156,final-intermixed-textured,v2,jsons/MX_seq46_2_VE125_flipped.json,http://54.235.29.9/FacialAge/BNav_EC2/DepthDuration/MX_fS_VE_MTurk/MX_fS_HTML.html#205,205,1272,645,1280,720,1-12-2024,16-26-53,6,VR_target_stimuli/s38_0.75x_3.55_346.png,125,0.75x,3.55,2.0,2778,124,meters,jsons/MX_seq46_2_VE125_flipped.json,179880,403143,22,Woman
6,808156,final-intermixed-textured,v2,jsons/MX_seq46_2_VE125_flipped.json,http://54.235.29.9/FacialAge/BNav_EC2/DepthDuration/MX_fS_VE_MTurk/MX_fS_HTML.html#205,205,1272,645,1280,720,1-12-2024,16-26-53,7,catch_stimuli/c0_BC.png,125,,,0.0,2878,120,meters,jsons/MX_seq46_2_VE125_flipped.json,179880,403143,22,Woman
7,808156,final-intermixed-textured,v2,jsons/MX_seq46_2_VE125_flipped.json,http://54.235.29.9/FacialAge/BNav_EC2/DepthDuration/MX_fS_VE_MTurk/MX_fS_HTML.html#205,205,1272,645,1280,720,1-12-2024,16-26-53,8,VR_target_stimuli/s9_0.75x_1.2_260.png,125,0.75x,1.2,1.0,5419,122,meters,jsons/MX_seq46_2_VE125_flipped.json,179880,403143,22,Woman
8,808156,final-intermixed-textured,v2,jsons/MX_seq46_2_VE125_flipped.json,http://54.235.29.9/FacialAge/BNav_EC2/DepthDuration/MX_fS_VE_MTurk/MX_fS_HTML.html#205,205,1272,645,1280,720,1-12-2024,16-26-53,9,VR_target_stimuli/s44_1.3x_4.4_325.png,125,1.3x,4.4,2.0,2188,123,meters,jsons/MX_seq46_2_VE125_flipped.json,179880,403143,22,Woman
9,808156,final-intermixed-textured,v2,jsons/MX_seq46_2_VE125_flipped.json,http://54.235.29.9/FacialAge/BNav_EC2/DepthDuration/MX_fS_VE_MTurk/MX_fS_HTML.html#205,205,1272,645,1280,720,1-12-2024,16-26-53,10,VR_target_stimuli/s3_1x_5_385_BC.png,125,1x,5.0,3.0,3824,123,meters,jsons/MX_seq46_2_VE125_flipped.json,179880,403143,22,Woman
10,808156,final-intermixed-textured,v2,jsons/MX_seq46_2_VE125_flipped.json,http://54.235.29.9/FacialAge/BNav_EC2/DepthDuration/MX_fS_VE_MTurk/MX_fS_HTML.html#205,205,1272,645,1280,720,1-12-2024,16-26-53,11,VR_target_stimuli/s1_1.3x_1.7_261_BC.png,125,1.3x,1.7,1.0,2131,122,meters,jsons/MX_seq46_2_VE125_flipped.json,179880,403143,22,Woman
11,808156,final-intermixed-textured,v2,jsons/MX_seq46_2_VE125_flipped.json,http://54.235.29.9/FacialAge/BNav_EC2/DepthDuration/MX_fS_VE_MTurk/MX_fS_HTML.html#205,205,1272,645,1280,720,1-12-2024,16-26-53,12,VR_target_stimuli/s11_0.75x_5_359_BC.png,125,0.75x,5.0,3.0,2132,124,meters,jsons/MX_seq46_2_VE125_flipped.json,179880,403143,22,Woman
12,808156,final-intermixed-textured,v2,jsons/MX_seq46_2_VE125_flipped.json,http://54.235.29.9/FacialAge/BNav_EC2/DepthDuration/MX_fS_VE_MTurk/MX_fS_HTML.html#205,205,1272,645,1280,720,1-12-2024,16-26-53,13,VR_target_stimuli/s2_1x_2.7_390.png,125,1x,2.7,1.0,1601,121,meters,jsons/MX_seq46_2_VE125_flipped.json,179880,403143,22,Woman
13,808156,final-intermixed-textured,v2,jsons/MX_seq46_2_VE125_flipped.json,http://54.235.29.9/FacialAge/BNav_EC2/DepthDuration/MX_fS_VE_MTurk/MX_fS_HTML.html#205,205,1272,645,1280,720,1-12-2024,16-26-53,14,VR_target_stimuli/s6_0.75x_2.1_290_BC.png,125,0.75x,2.1,1.0,1774,123,meters,jsons/MX_seq46_2_VE125_flipped.json,179880,403143,22,Woman
14,808156,final-intermixed-textured,v2,jsons/MX_seq46_2_VE125_flipped.json,http://54.235.29.9/FacialAge/BNav_EC2/DepthDuration/MX_fS_VE_MTurk/MX_fS_HTML.html#205,205,1272,645,1280,720,1-12-2024,16-26-53,15,VR_target_stimuli/s0_1.3x_2.6_356.png,125,1.3x,2.6,1.0,2104,122,meters,jsons/MX_seq46_2_VE125_flipped.json,179880,403143,22,Woman
15,808156,final-intermixed-textured,v2,jsons/MX_seq46_2_VE125_flipped.json,http://54.235.29.9/FacialAge/BNav_EC2/DepthDuration/MX_fS_VE_MTurk/MX_fS_HTML.html#205,205,1272,645,1280,720,1-12-2024,16-26-53,16,VR_target_stimuli/s34_1x_2.8_283.png,125,1x,2.8,1.0,1579,134,meters,jsons/MX_seq46_2_VE125_flipped.json,179880,403143,22,Woman
16,808156,final-intermixed-textured,v2,jsons/MX_seq46_2_VE125_flipped.json,http://54.235.29.9/FacialAge/BNav_EC2/DepthDuration/MX_fS_VE_MTurk/MX_fS_HTML.html#205,205,1272,645,1280,720,1-12-2024,16-26-53,17,catch_stimuli/c1_BC.png,125,,,0.0,2518,123,meters,jsons/MX_seq46_2_VE125_flipped.json,179880,403143,22,Woman
17,808156,final-intermixed-textured,v2,jsons/MX_seq46_2_VE125_flipped.json,http://54.235.29.9/FacialAge/BNav_EC2/DepthDuration/MX_fS_VE_MTurk/MX_fS_HTML.html#205,205,1272,645,1280,720,1-12-2024,16-26-53,18,VR_target_stimuli/s13_1x_2.4_310_BC.png,125,1x,2.4,2.0,2045,122,meters,jsons/MX_seq46_2_VE125_flipped.json,179880,403143,22,Woman
18,808156,final-intermixed-textured,v2,jsons/MX_seq46_2_VE125_flipped.json,http://54.235.29.9/FacialAge/BNav_EC2/DepthDuration/MX_fS_VE_MTurk/MX_fS_HTML.html#205,205,1272,645,1280,720,1-12-2024,16-26-53,19,VR_target_stimuli/s14_0.75x_3.83_355.png,125,0.75x,3.83,3.0,2120,123,meters,jsons/MX_seq46_2_VE125_flipped.json,179880,403143,22,Woman
19,808156,final-intermixed-textured,v2,jsons/MX_seq46_2_VE125_flipped.json,http://54.235.29.9/FacialAge/BNav_EC2/DepthDuration/MX_fS_VE_MTurk/MX_fS_HTML.html#205,205,1272,645,1280,720,1-12-2024,16-26-53,20,VR_target_stimuli/s47_1.3x_3.45_373_BC.png,125,1.3x,3.45,2.0,1599,124,meters,jsons/MX_seq46_2_VE125_flipped.json,179880,403143,22,Woman
20,808156,final-intermixed-textured,v2,jsons/MX_seq46_2_VE125_flipped.json,http://54.235.29.9/FacialAge/BNav_EC2/DepthDuration/MX_fS_VE_MTurk/MX_fS_HTML.html#205,205,1272,645,1280,720,1-12-2024,16-26-53,21,VR_target_stimuli/s29_0.75x_1.3_246.png,125,0.75x,1.3,1.0,1441,134,meters,jsons/MX_seq46_2_VE125_flipped.json,179880,403143,22,Woman
21,808156,final-intermixed-textured,v2,jsons/MX_seq46_2_VE125_flipped.json,http://54.235.29.9/FacialAge/BNav_EC2/DepthDuration/MX_fS_VE_MTurk/MX_fS_HTML.html#205,205,1272,645,1280,720,1-12-2024,16-26-53,22,VR_target_stimuli/s28_1x_3.2_362.png,125,1x,3.2,2.0,1781,124,meters,jsons/MX_seq46_2_VE125_flipped.json,179880,403143,22,Woman
22,808156,final-intermixed-textured,v2,jsons/MX_seq46_2_VE125_flipped.json,http://54.235.29.9/FacialAge/BNav_EC2/DepthDuration/MX_fS_VE_MTurk/MX_fS_HTML.html#205,205,1272,645,1280,720,1-12-2024,16-26-53,23,VR_target_stimuli/s48_1.3x_2.55_255.png,125,1.3x,2.55,1.0,2504,134,meters,jsons/MX_seq46_2_VE125_flipped.json,179880,403143,22,Woman
23,808156,final-intermixed-textured,v2,jsons/MX_seq46_2_VE125_flipped.json,http://54.235.29.9/FacialAge/BNav_EC2/DepthDuration/MX_fS_VE_MTurk/MX_fS_HTML.html#205,205,1272,645,1280,720,1-12-2024,16-26-53,24,VR_target_stimuli/s19_1x_1.21_263_BC.png,125,1x,1.21,0.5,10065,123,meters,jsons/MX_seq46_2_VE125_flipped.json,179880,403143,22,Woman
24,808156,final-intermixed-textured,v2,jsons/MX_seq46_2_VE125_flipped.json,http://54.235.29.9/FacialAge/BNav_EC2/DepthDuration/MX_fS_VE_MTurk/MX_fS_HTML.html#205,205,1272,645,1280,720,1-12-2024,16-26-53,25,VR_target_stimuli/s21_0.75x_4.22_374_BC.png,125,0.75x,4.22,2.0,2285,124,meters,jsons/MX_seq46_2_VE125_flipped.json,179880,403143,22,Woman
25,808156,final-intermixed-textured,v2,jsons/MX_seq46_2_VE125_flipped.json,http://54.235.29.9/FacialAge/BNav_EC2/DepthDuration/MX_fS_VE_MTurk/MX_fS_HTML.html#205,205,1272,645,1280,720,1-12-2024,16-26-53,26,catch_stimuli/c2_BC.png,125,,,0.0,2020,122,meters,jsons/MX_seq46_2_VE125_flipped.json,179880,403143,22,Woman
26,808156,final-intermixed-textured,v2,jsons/MX_seq46_2_VE125_flipped.json,http://54.235.29.9/FacialAge/BNav_EC2/DepthDuration/MX_fS_VE_MTurk/MX_fS_HTML.html#205,205,1272,645,1280,720,1-12-2024,16-26-53,27,VR_target_stimuli/s8_1.3x_3.1_345_BC.png,125,1.3x,3.1,2.0,2119,123,meters,jsons/MX_seq46_2_VE125_flipped.json,179880,403143,22,Woman
27,808156,final-intermixed-textured,v2,jsons/MX_seq46_2_VE125_flipped.json,http://54.235.29.9/FacialAge/BNav_EC2/DepthDuration/MX_fS_VE_MTurk/MX_fS_HTML.html#205,205,1272,645,1280,720,1-12-2024,16-26-53,28,VR_target_stimuli/s27_1.3x_1.76_250_BC.png,125,1.3x,1.76,1.0,2439,122,meters,jsons/MX_seq46_2_VE125_flipped.json,179880,403143,22,Woman
28,808156,final-intermixed-textured,v2,jsons/MX_seq46_2_VE125_flipped.json,http://54.235.29.9/FacialAge/BNav_EC2/DepthDuration/MX_fS_VE_MTurk/MX_fS_HTML.html#205,205,1272,645,1280,720,1-12-2024,16-26-53,29,VR_target_stimuli/s15_1x_4.2_390.png,125,1x,4.2,3.0,2025,122,meters,jsons/MX_seq46_2_VE125_flipped.json,179880,403143,22,Woman
29,808156,final-intermixed-textured,v2,jsons/MX_seq46_2_VE125_flipped.json,http://54.235.29.9/FacialAge/BNav_EC2/DepthDuration/MX_fS_VE_MTurk/MX_fS_HTML.html#205,205,1272,645,1280,720,1-12-2024,16-26-53,30,VR_target_stimuli/s4_0.75x_1.4_301.png,125,0.75x,1.4,1.0,1759,115,meters,jsons/MX_seq46_2_VE125_flipped.json,179880,403143,22,Woman
30,808156,final-intermixed-textured,v2,jsons/MX_seq46_2_VE125_flipped.json,http://54.235.29.9/FacialAge/BNav_EC2/DepthDuration/MX_fS_VE_MTurk/MX_fS_HTML.html#205,205,1272,645,1280,720,1-12-2024,16-26-53,31,VR_target_stimuli/s35_1.3x_2_338.png,125,1.3x,2.0,0.5,5043,122,meters,jsons/MX_seq46_2_VE125_flipped.json,179880,403143,22,Woman
31,808156,final-intermixed-textured,v2,jsons/MX_seq46_2_VE125_flipped.json,http://54.235.29.9/FacialAge/BNav_EC2/DepthDuration/MX_fS_VE_MTurk/MX_fS_HTML.html#205,205,1272,645,1280,720,1-12-2024,16-26-53,32,VR_target_stimuli/s49_0.75x_4.67_328_BC.png,125,0.75x,4.67,2.0,1850,113,meters,jsons/MX_seq46_2_VE125_flipped.json,179880,403143,22,Woman
32,808156,final-intermixed-textured,v2,jsons/MX_seq46_2_VE125_flipped.json,http://54.235.29.9/FacialAge/BNav_EC2/DepthDuration/MX_fS_VE_MTurk/MX_fS_HTML.html#205,205,1272,645,1280,720,1-12-2024,16-26-53,33,VR_target_stimuli/s7_1x_1.5_255_BC.png,125,1x,1.5,1.0,1972,120,meters,jsons/MX_seq46_2_VE125_flipped.json,179880,403143,22,Woman
33,808156,final-intermixed-textured,v2,jsons/MX_seq46_2_VE125_flipped.json,http://54.235.29.9/FacialAge/BNav_EC2/DepthDuration/MX_fS_VE_MTurk/MX_fS_HTML.html#205,205,1272,645,1280,720,1-12-2024,16-26-53,34,catch_stimuli/c3_BC.png,125,,,0.5,6893,124,meters,jsons/MX_seq46_2_VE125_flipped.json,179880,403143,22,Woman
34,808156,final-intermixed-textured,v2,jsons/MX_seq46_2_VE125_flipped.json,http://54.235.29.9/FacialAge/BNav_EC2/DepthDuration/MX_fS_VE_MTurk/MX_fS_HTML.html#205,205,1272,645,1280,720,1-12-2024,16-26-53,35,VR_target_stimuli/s20_0.75x_4.99_390_BC.png,125,0.75x,4.99,3.0,2217,123,meters,jsons/MX_seq46_2_VE125_flipped.json,179880,403143,22,Woman
35,808156,final-intermixed-textured,v2,jsons/MX_seq46_2_VE125_flipped.json,http://54.235.29.9/FacialAge/BNav_EC2/DepthDuration/MX_fS_VE_MTurk/MX_fS_HTML.html#205,205,1272,645,1280,720,1-12-2024,16-26-53,36,VR_target_stimuli/s31_1.3x_4.96_342.png,125,1.3x,4.96,1.0,1589,122,meters,jsons/MX_seq46_2_VE125_flipped.json,179880,403143,22,Woman
36,808156,final-intermixed-textured,v2,jsons/MX_seq46_2_VE125_flipped.json,http://54.235.29.9/FacialAge/BNav_EC2/DepthDuration/MX_fS_VE_MTurk/MX_fS_HTML.html#205,205,1272,645,1280,720,1-12-2024,16-26-53,37,VR_target_stimuli/s33_1x_3.1_366.png,125,1x,3.1,2.0,1946,122,meters,jsons/MX_seq46_2_VE125_flipped.json,179880,403143,22,Woman
37,808156,final-intermixed-textured,v2,jsons/MX_seq46_2_VE125_flipped.json,http://54.235.29.9/FacialAge/BNav_EC2/DepthDuration/MX_fS_VE_MTurk/MX_fS_HTML.html#205,205,1272,645,1280,720,1-12-2024,16-26-53,38,VR_target_stimuli/s52_1x_3.2_275_BC.png,125,1x,3.2,2.0,1617,122,meters,jsons/MX_seq46_2_VE125_flipped.json,179880,403143,22,Woman
38,808156,final-intermixed-textured,v2,jsons/MX_seq46_2_VE125_flipped.json,http://54.235.29.9/FacialAge/BNav_EC2/DepthDuration/MX_fS_VE_MTurk/MX_fS_HTML.html#205,205,1272,645,1280,720,1-12-2024,16-26-53,39,VR_target_stimuli/s32_0.75x_1.5_213.png,125,0.75x,1.5,3.0,1965,112,meters,jsons/MX_seq46_2_VE125_flipped.json,179880,403143,22,Woman
39,808156,final-intermixed-textured,v2,jsons/MX_seq46_2_VE125_flipped.json,http://54.235.29.9/FacialAge/BNav_EC2/DepthDuration/MX_fS_VE_MTurk/MX_fS_HTML.html#205,205,1272,645,1280,720,1-12-2024,16-26-53,40,VR_target_stimuli/s18_1.3x_2.25_368_BC.png,125,1.3x,2.25,1.0,1463,121,meters,jsons/MX_seq46_2_VE125_flipped.json,179880,403143,22,Woman
40,808156,final-intermixed-textured,v2,jsons/MX_seq46_2_VE125_flipped.json,http://54.235.29.9/FacialAge/BNav_EC2/DepthDuration/MX_fS_VE_MTurk/MX_fS_HTML.html#205,205,1272,645,1280,720,1-12-2024,16-26-53,41,VR_target_stimuli/s39_0.75x_1_205.png,125,0.75x,1.0,0.5,4037,117,meters,jsons/MX_seq46_2_VE125_flipped.json,179880,403143,22,Woman
41,808156,final-intermixed-textured,v2,jsons/MX_seq46_2_VE125_flipped.json,http://54.235.29.9/FacialAge/BNav_EC2/DepthDuration/MX_fS_VE_MTurk/MX_fS_HTML.html#205,205,1272,645,1280,720,1-12-2024,16-26-53,42,VR_target_stimuli/s51_1x_3.64_461_BC.png,125,1x,3.64,1.0,1982,125,meters,jsons/MX_seq46_2_VE125_flipped.json,179880,403143,22,Woman
42,808156,final-intermixed-textured,v2,jsons/MX_seq46_2_VE125_flipped.json,http://54.235.29.9/FacialAge/BNav_EC2/DepthDuration/MX_fS_VE_MTurk/MX_fS_HTML.html#205,205,1272,645,1280,720,1-12-2024,16-26-53,43,VR_target_stimuli/s43_1.3x_2.2_363_BC.png,125,1.3x,2.2,2.0,1658,124,meters,jsons/MX_seq46_2_VE125_flipped.json,179880,403143,22,Woman
43,808156,final-intermixed-textured,v2,jsons/MX_seq46_2_VE125_flipped.json,http://54.235.29.9/FacialAge/BNav_EC2/DepthDuration/MX_fS_VE_MTurk/MX_fS_HTML.html#205,205,1272,645,1280,720,1-12-2024,16-26-53,44,VR_target_stimuli/s24_1x_3.3_349.png,125,1x,3.3,3.0,1764,123,meters,jsons/MX_seq46_2_VE125_flipped.json,179880,403143,22,Woman
44,808156,final-intermixed-textured,v2,jsons/MX_seq46_2_VE125_flipped.json,http://54.235.29.9/FacialAge/BNav_EC2/DepthDuration/MX_fS_VE_MTurk/MX_fS_HTML.html#205,205,1272,645,1280,720,1-12-2024,16-26-53,45,catch_stimuli/c4_BC.png,125,,,0.0,2501,122,meters,jsons/MX_seq46_2_VE125_flipped.json,179880,403143,22,Woman
45,808156,final-intermixed-textured,v2,jsons/MX_seq46_2_VE125_flipped.json,http://54.235.29.9/FacialAge/BNav_EC2/DepthDuration/MX_fS_VE_MTurk/MX_fS_HTML.html#205,205,1272,645,1280,720,1-12-2024,16-26-53,46,VR_target_stimuli/s10_0.75x_2.7_321_BC.png,125,0.75x,2.7,2.0,1801,122,meters,jsons/MX_seq46_2_VE125_flipped.json,179880,403143,22,Woman
46,808156,final-intermixed-textured,v2,jsons/MX_seq46_2_VE125_flipped.json,http://54.235.29.9/FacialAge/BNav_EC2/DepthDuration/MX_fS_VE_MTurk/MX_fS_HTML.html#205,205,1272,645,1280,720,1-12-2024,16-26-53,47,VR_target_stimuli/s36_1.3x_4.1_442.png,125,1.3x,4.1,2.0,1583,117,meters,jsons/MX_seq46_2_VE125_flipped.json,179880,403143,22,Woman
47,808156,final-intermixed-textured,v2,jsons/MX_seq46_2_VE125_flipped.json,http://54.235.29.9/FacialAge/BNav_EC2/DepthDuration/MX_fS_VE_MTurk/MX_fS_HTML.html#205,205,1272,645,1280,720,1-12-2024,16-26-53,48,VR_target_stimuli/s40_1.3x_1.2_332_BC.png,125,1.3x,1.2,1.0,1364,110,meters,jsons/MX_seq46_2_VE125_flipped.json,179880,403143,22,Woman
48,808156,final-intermixed-textured,v2,jsons/MX_seq46_2_VE125_flipped.json,http://54.235.29.9/FacialAge/BNav_EC2/DepthDuration/MX_fS_VE_MTurk/MX_fS_HTML.html#205,205,1272,645,1280,720,1-12-2024,16-26-53,49,VR_target_stimuli/s41_1x_2.1_286_BC.png,125,1x,2.1,0.0,2206,122,meters,jsons/MX_seq46_2_VE125_flipped.json,179880,403143,22,Woman
49,808156,final-intermixed-textured,v2,jsons/MX_seq46_2_VE125_flipped.json,http://54.235.29.9/FacialAge/BNav_EC2/DepthDuration/MX_fS_VE_MTurk/MX_fS_HTML.html#205,205,1272,645,1280,720,1-12-2024,16-26-53,50,VR_target_stimuli/s45_0.75x_3.5_362_BC.png,125,0.75x,3.5,4.0,2162,122,meters,jsons/MX_seq46_2_VE125_flipped.json,179880,403143,22,Woman
50,808156,final-intermixed-textured,v2,jsons/MX_seq46_2_VE125_flipped.json,http://54.235.29.9/FacialAge/BNav_EC2/DepthDuration/MX_fS_VE_MTurk/MX_fS_HTML.html#205,205,1272,645,1280,720,1-12-2024,16-26-53,51,VR_target_stimuli/s23_1x_3.65_353.png,125,1x,3.65,5.0,2368,122,meters,jsons/MX_seq46_2_VE125_flipped.json,179880,403143,22,Woman
51,808156,final-intermixed-textured,v2,jsons/MX_seq46_2_VE125_flipped.json,http://54.235.29.9/FacialAge/BNav_EC2/DepthDuration/MX_fS_VE_MTurk/MX_fS_HTML.html#205,205,1272,645,1280,720,1-12-2024,16-26-53,52,VR_target_stimuli/s26_1.3x_4_441.png,125,1.3x,4.0,2.0,1980,125,meters,jsons/MX_seq46_2_VE125_flipped.json,179880,403143,22,Woman
52,808156,final-intermixed-textured,v2,jsons/MX_seq46_2_VE125_flipped.json,http://54.235.29.9/FacialAge/BNav_EC2/DepthDuration/MX_fS_VE_MTurk/MX_fS_HTML.html#205,205,1272,645,1280,720,1-12-2024,16-26-53,53,catch_stimuli/c5_BC.png,125,,,0.0,2198,122,meters,jsons/MX_seq46_2_VE125_flipped.json,179880,403143,22,Woman
53,808156,final-intermixed-textured,v2,jsons/MX_seq46_2_VE125_flipped.json,http://54.235.29.9/FacialAge/BNav_EC2/DepthDuration/MX_fS_VE_MTurk/MX_fS_HTML.html#205,205,1272,645,1280,720,1-12-2024,16-26-53,54,VR_target_stimuli/s12_0.75x_3.1_364.png,125,0.75x,3.1,3.0,2055,124,meters,jsons/MX_seq46_2_VE125_flipped.json,179880,403143,22,Woman
54,808156,final-intermixed-textured,v2,jsons/MX_seq46_2_VE125_flipped.json,http://54.235.29.9/FacialAge/BNav_EC2/DepthDuration/MX_fS_VE_MTurk/MX_fS_HTML.html#205,205,1272,645,1280,720,1-12-2024,16-26-53,55,VR_target_stimuli/s30_1.3x_2.3_337.png,125,1.3x,2.3,2.0,2535,123,meters,jsons/MX_seq46_2_VE125_flipped.json,179880,403143,22,Woman
55,808156,final-intermixed-textured,v2,jsons/MX_seq46_2_VE125_flipped.json,http://54.235.29.9/FacialAge/BNav_EC2/DepthDuration/MX_fS_VE_MTurk/MX_fS_HTML.html#205,205,1272,645,1280,720,1-12-2024,16-26-53,56,VR_target_stimuli/s16_1x_1_219.png,125,1x,1.0,1.0,1368,125,meters,jsons/MX_seq46_2_VE125_flipped.json,179880,403143,22,Woman
56,808156,final-intermixed-textured,v2,jsons/MX_seq46_2_VE125_flipped.json,http://54.235.29.9/FacialAge/BNav_EC2/DepthDuration/MX_fS_VE_MTurk/MX_fS_HTML.html#205,205,1272,645,1280,720,1-12-2024,16-26-53,57,VR_target_stimuli/s17_0.75x_1.8_285_BC.png,125,0.75x,1.8,2.0,1627,123,meters,jsons/MX_seq46_2_VE125_flipped.json,179880,403143,22,Woman
57,808156,final-intermixed-textured,v2,jsons/MX_seq46_2_VE125_flipped.json,http://54.235.29.9/FacialAge/BNav_EC2/DepthDuration/MX_fS_VE_MTurk/MX_fS_HTML.html#205,205,1272,645,1280,720,1-12-2024,16-26-53,58,VR_target_stimuli/s5_0.75x_4_375.png,125,0.75x,4.0,3.0,1975,123,meters,jsons/MX_seq46_2_VE125_flipped.json,179880,403143,22,Woman
58,808156,final-intermixed-textured,v2,jsons/MX_seq46_2_VE125_flipped.json,http://54.235.29.9/FacialAge/BNav_EC2/DepthDuration/MX_fS_VE_MTurk/MX_fS_HTML.html#205,205,1272,645,1280,720,1-12-2024,16-26-53,59,VR_target_stimuli/s37_1.3x_3.3_555_BC.png,125,1.3x,3.3,4.0,4187,124,meters,jsons/MX_seq46_2_VE125_flipped.json,179880,403143,22,Woman
59,808156,final-intermixed-textured,v2,jsons/MX_seq46_2_VE125_flipped.json,http://54.235.29.9/FacialAge/BNav_EC2/DepthDuration/MX_fS_VE_MTurk/MX_fS_HTML.html#205,205,1272,645,1280,720,1-12-2024,16-26-53,60,VR_target_stimuli/s46_1x_2.42_348_BC.png,125,1x,2.42,3.0,2160,121,meters,jsons/MX_seq46_2_VE125_flipped.json,179880,403143,22,Woman
