,subjID,experimentName,versionName,sequenceName,url,selected_row,windowWidth,windowHeight,screenWidth,screenHeight,startDate,startTime,trial,stimulus,duration,scale,actual_depth,depth_estimate,trial_RT,log_sceneDuration,unitSelection,seq_filepath,experimentTime,totalTime,age,gender
0,843578,final-intermixed-textured,v2,jsons/MX_seq20_0_VE125_flipped.json,http://54.235.29.9/FacialAge/BNav_EC2/DepthDuration/MX_fS_VE_MTurk/MX_fS_HTML.html#260,260,1920,953,1920,1080,1-12-2024,14-42-22,1,VR_target_stimuli/s49_0.75x_4.67_328.png,125,0.75x,4.67,5,4310,120,meters,jsons/MX_seq20_0_VE125_flipped.json,217433,421684,24,Man
1,843578,final-intermixed-textured,v2,jsons/MX_seq20_0_VE125_flipped.json,http://54.235.29.9/FacialAge/BNav_EC2/DepthDuration/MX_fS_VE_MTurk/MX_fS_HTML.html#260,260,1920,953,1920,1080,1-12-2024,14-42-22,2,VR_target_stimuli/s7_1x_1.5_255.png,125,1x,1.5,2,3250,130,meters,jsons/MX_seq20_0_VE125_flipped.json,217433,421684,24,Man
2,843578,final-intermixed-textured,v2,jsons/MX_seq20_0_VE125_flipped.json,http://54.235.29.9/FacialAge/BNav_EC2/DepthDuration/MX_fS_VE_MTurk/MX_fS_HTML.html#260,260,1920,953,1920,1080,1-12-2024,14-42-22,3,VR_target_stimuli/s20_1.3x_4.99_412_BC.png,125,1.3x,4.99,7,3617,125,meters,jsons/MX_seq20_0_VE125_flipped.json,217433,421684,24,Man
3,843578,final-intermixed-textured,v2,jsons/MX_seq20_0_VE125_flipped.json,http://54.235.29.9/FacialAge/BNav_EC2/DepthDuration/MX_fS_VE_MTurk/MX_fS_HTML.html#260,260,1920,953,1920,1080,1-12-2024,14-42-22,4,VR_target_stimuli/s31_1x_4.96_333_BC.png,125,1x,4.96,3,3678,126,meters,jsons/MX_seq20_0_VE125_flipped.json,217433,421684,24,Man
4,843578,final-intermixed-textured,v2,jsons/MX_seq20_0_VE125_flipped.json,http://54.235.29.9/FacialAge/BNav_EC2/DepthDuration/MX_fS_VE_MTurk/MX_fS_HTML.html#260,260,1920,953,1920,1080,1-12-2024,14-42-22,5,VR_target_stimuli/s33_0.75x_3.1_361_BC.png,125,0.75x,3.1,5,4064,125,meters,jsons/MX_seq20_0_VE125_flipped.json,217433,421684,24,Man
5,843578,final-intermixed-textured,v2,jsons/MX_seq20_0_VE125_flipped.json,http://54.235.29.9/FacialAge/BNav_EC2/DepthDuration/MX_fS_VE_MTurk/MX_fS_HTML.html#260,260,1920,953,1920,1080,1-12-2024,14-42-22,6,VR_target_stimuli/s52_1.3x_3.2_280.png,125,1.3x,3.2,2,3084,123,meters,jsons/MX_seq20_0_VE125_flipped.json,217433,421684,24,Man
6,843578,final-intermixed-textured,v2,jsons/MX_seq20_0_VE125_flipped.json,http://54.235.29.9/FacialAge/BNav_EC2/DepthDuration/MX_fS_VE_MTurk/MX_fS_HTML.html#260,260,1920,953,1920,1080,1-12-2024,14-42-22,7,catch_stimuli/c0_BC.png,125,,,0,3229,122,meters,jsons/MX_seq20_0_VE125_flipped.json,217433,421684,24,Man
7,843578,final-intermixed-textured,v2,jsons/MX_seq20_0_VE125_flipped.json,http://54.235.29.9/FacialAge/BNav_EC2/DepthDuration/MX_fS_VE_MTurk/MX_fS_HTML.html#260,260,1920,953,1920,1080,1-12-2024,14-42-22,8,VR_target_stimuli/s32_1.3x_1.5_224_BC.png,125,1.3x,1.5,2,3333,124,meters,jsons/MX_seq20_0_VE125_flipped.json,217433,421684,24,Man
8,843578,final-intermixed-textured,v2,jsons/MX_seq20_0_VE125_flipped.json,http://54.235.29.9/FacialAge/BNav_EC2/DepthDuration/MX_fS_VE_MTurk/MX_fS_HTML.html#260,260,1920,953,1920,1080,1-12-2024,14-42-22,9,VR_target_stimuli/s18_1x_2.25_353_BC.png,125,1x,2.25,1,2686,122,meters,jsons/MX_seq20_0_VE125_flipped.json,217433,421684,24,Man
9,843578,final-intermixed-textured,v2,jsons/MX_seq20_0_VE125_flipped.json,http://54.235.29.9/FacialAge/BNav_EC2/DepthDuration/MX_fS_VE_MTurk/MX_fS_HTML.html#260,260,1920,953,1920,1080,1-12-2024,14-42-22,10,VR_target_stimuli/s39_0.75x_1_205_BC.png,125,0.75x,1.0,1,3491,140,meters,jsons/MX_seq20_0_VE125_flipped.json,217433,421684,24,Man
10,843578,final-intermixed-textured,v2,jsons/MX_seq20_0_VE125_flipped.json,http://54.235.29.9/FacialAge/BNav_EC2/DepthDuration/MX_fS_VE_MTurk/MX_fS_HTML.html#260,260,1920,953,1920,1080,1-12-2024,14-42-22,11,VR_target_stimuli/s51_1x_3.64_461.png,125,1x,3.64,2,3285,123,meters,jsons/MX_seq20_0_VE125_flipped.json,217433,421684,24,Man
11,843578,final-intermixed-textured,v2,jsons/MX_seq20_0_VE125_flipped.json,http://54.235.29.9/FacialAge/BNav_EC2/DepthDuration/MX_fS_VE_MTurk/MX_fS_HTML.html#260,260,1920,953,1920,1080,1-12-2024,14-42-22,12,VR_target_stimuli/s43_1.3x_2.2_363.png,125,1.3x,2.2,2,3652,124,meters,jsons/MX_seq20_0_VE125_flipped.json,217433,421684,24,Man
12,843578,final-intermixed-textured,v2,jsons/MX_seq20_0_VE125_flipped.json,http://54.235.29.9/FacialAge/BNav_EC2/DepthDuration/MX_fS_VE_MTurk/MX_fS_HTML.html#260,260,1920,953,1920,1080,1-12-2024,14-42-22,13,VR_target_stimuli/s24_0.75x_3.3_344.png,125,0.75x,3.3,3,2983,122,meters,jsons/MX_seq20_0_VE125_flipped.json,217433,421684,24,Man
13,843578,final-intermixed-textured,v2,jsons/MX_seq20_0_VE125_flipped.json,http://54.235.29.9/FacialAge/BNav_EC2/DepthDuration/MX_fS_VE_MTurk/MX_fS_HTML.html#260,260,1920,953,1920,1080,1-12-2024,14-42-22,14,VR_target_stimuli/s10_1.3x_2.7_325.png,125,1.3x,2.7,2,2677,123,meters,jsons/MX_seq20_0_VE125_flipped.json,217433,421684,24,Man
14,843578,final-intermixed-textured,v2,jsons/MX_seq20_0_VE125_flipped.json,http://54.235.29.9/FacialAge/BNav_EC2/DepthDuration/MX_fS_VE_MTurk/MX_fS_HTML.html#260,260,1920,953,1920,1080,1-12-2024,14-42-22,15,VR_target_stimuli/s36_1x_4.1_423.png,125,1x,4.1,4,3490,125,meters,jsons/MX_seq20_0_VE125_flipped.json,217433,421684,24,Man
15,843578,final-intermixed-textured,v2,jsons/MX_seq20_0_VE125_flipped.json,http://54.235.29.9/FacialAge/BNav_EC2/DepthDuration/MX_fS_VE_MTurk/MX_fS_HTML.html#260,260,1920,953,1920,1080,1-12-2024,14-42-22,16,VR_target_stimuli/s40_0.75x_1.2_308_BC.png,125,0.75x,1.2,1,3389,123,meters,jsons/MX_seq20_0_VE125_flipped.json,217433,421684,24,Man
16,843578,final-intermixed-textured,v2,jsons/MX_seq20_0_VE125_flipped.json,http://54.235.29.9/FacialAge/BNav_EC2/DepthDuration/MX_fS_VE_MTurk/MX_fS_HTML.html#260,260,1920,953,1920,1080,1-12-2024,14-42-22,17,catch_stimuli/c1_BC.png,125,,,0,2582,121,meters,jsons/MX_seq20_0_VE125_flipped.json,217433,421684,24,Man
17,843578,final-intermixed-textured,v2,jsons/MX_seq20_0_VE125_flipped.json,http://54.235.29.9/FacialAge/BNav_EC2/DepthDuration/MX_fS_VE_MTurk/MX_fS_HTML.html#260,260,1920,953,1920,1080,1-12-2024,14-42-22,18,VR_target_stimuli/s41_0.75x_2.1_281.png,125,0.75x,2.1,2,2661,124,meters,jsons/MX_seq20_0_VE125_flipped.json,217433,421684,24,Man
18,843578,final-intermixed-textured,v2,jsons/MX_seq20_0_VE125_flipped.json,http://54.235.29.9/FacialAge/BNav_EC2/DepthDuration/MX_fS_VE_MTurk/MX_fS_HTML.html#260,260,1920,953,1920,1080,1-12-2024,14-42-22,19,VR_target_stimuli/s45_1.3x_3.5_377_BC.png,125,1.3x,3.5,3,2314,125,meters,jsons/MX_seq20_0_VE125_flipped.json,217433,421684,24,Man
19,843578,final-intermixed-textured,v2,jsons/MX_seq20_0_VE125_flipped.json,http://54.235.29.9/FacialAge/BNav_EC2/DepthDuration/MX_fS_VE_MTurk/MX_fS_HTML.html#260,260,1920,953,1920,1080,1-12-2024,14-42-22,20,VR_target_stimuli/s23_1x_3.65_353_BC.png,125,1x,3.65,2,3171,129,meters,jsons/MX_seq20_0_VE125_flipped.json,217433,421684,24,Man
20,843578,final-intermixed-textured,v2,jsons/MX_seq20_0_VE125_flipped.json,http://54.235.29.9/FacialAge/BNav_EC2/DepthDuration/MX_fS_VE_MTurk/MX_fS_HTML.html#260,260,1920,953,1920,1080,1-12-2024,14-42-22,21,VR_target_stimuli/s26_1.3x_4_441_BC.png,125,1.3x,4.0,2,6990,115,meters,jsons/MX_seq20_0_VE125_flipped.json,217433,421684,24,Man
21,843578,final-intermixed-textured,v2,jsons/MX_seq20_0_VE125_flipped.json,http://54.235.29.9/FacialAge/BNav_EC2/DepthDuration/MX_fS_VE_MTurk/MX_fS_HTML.html#260,260,1920,953,1920,1080,1-12-2024,14-42-22,22,VR_target_stimuli/s12_0.75x_3.1_364.png,125,0.75x,3.1,3,2670,124,meters,jsons/MX_seq20_0_VE125_flipped.json,217433,421684,24,Man
22,843578,final-intermixed-textured,v2,jsons/MX_seq20_0_VE125_flipped.json,http://54.235.29.9/FacialAge/BNav_EC2/DepthDuration/MX_fS_VE_MTurk/MX_fS_HTML.html#260,260,1920,953,1920,1080,1-12-2024,14-42-22,23,VR_target_stimuli/s30_1x_2.3_334.png,125,1x,2.3,2,4562,125,meters,jsons/MX_seq20_0_VE125_flipped.json,217433,421684,24,Man
23,843578,final-intermixed-textured,v2,jsons/MX_seq20_0_VE125_flipped.json,http://54.235.29.9/FacialAge/BNav_EC2/DepthDuration/MX_fS_VE_MTurk/MX_fS_HTML.html#260,260,1920,953,1920,1080,1-12-2024,14-42-22,24,VR_target_stimuli/s16_0.75x_1_217_BC.png,125,0.75x,1.0,1,2368,124,meters,jsons/MX_seq20_0_VE125_flipped.json,217433,421684,24,Man
24,843578,final-intermixed-textured,v2,jsons/MX_seq20_0_VE125_flipped.json,http://54.235.29.9/FacialAge/BNav_EC2/DepthDuration/MX_fS_VE_MTurk/MX_fS_HTML.html#260,260,1920,953,1920,1080,1-12-2024,14-42-22,25,VR_target_stimuli/s17_1.3x_1.8_300.png,125,1.3x,1.8,2,2889,123,meters,jsons/MX_seq20_0_VE125_flipped.json,217433,421684,24,Man
25,843578,final-intermixed-textured,v2,jsons/MX_seq20_0_VE125_flipped.json,http://54.235.29.9/FacialAge/BNav_EC2/DepthDuration/MX_fS_VE_MTurk/MX_fS_HTML.html#260,260,1920,953,1920,1080,1-12-2024,14-42-22,26,catch_stimuli/c2_BC.png,125,,,0,2261,139,meters,jsons/MX_seq20_0_VE125_flipped.json,217433,421684,24,Man
26,843578,final-intermixed-textured,v2,jsons/MX_seq20_0_VE125_flipped.json,http://54.235.29.9/FacialAge/BNav_EC2/DepthDuration/MX_fS_VE_MTurk/MX_fS_HTML.html#260,260,1920,953,1920,1080,1-12-2024,14-42-22,27,VR_target_stimuli/s5_1x_4_378_BC.png,125,1x,4.0,3,2784,127,meters,jsons/MX_seq20_0_VE125_flipped.json,217433,421684,24,Man
27,843578,final-intermixed-textured,v2,jsons/MX_seq20_0_VE125_flipped.json,http://54.235.29.9/FacialAge/BNav_EC2/DepthDuration/MX_fS_VE_MTurk/MX_fS_HTML.html#260,260,1920,953,1920,1080,1-12-2024,14-42-22,28,VR_target_stimuli/s37_1x_3.3_563_BC.png,125,1x,3.3,1,3761,125,meters,jsons/MX_seq20_0_VE125_flipped.json,217433,421684,24,Man
28,843578,final-intermixed-textured,v2,jsons/MX_seq20_0_VE125_flipped.json,http://54.235.29.9/FacialAge/BNav_EC2/DepthDuration/MX_fS_VE_MTurk/MX_fS_HTML.html#260,260,1920,953,1920,1080,1-12-2024,14-42-22,29,VR_target_stimuli/s46_0.75x_2.42_343_BC.png,125,0.75x,2.42,3,2586,128,meters,jsons/MX_seq20_0_VE125_flipped.json,217433,421684,24,Man
29,843578,final-intermixed-textured,v2,jsons/MX_seq20_0_VE125_flipped.json,http://54.235.29.9/FacialAge/BNav_EC2/DepthDuration/MX_fS_VE_MTurk/MX_fS_HTML.html#260,260,1920,953,1920,1080,1-12-2024,14-42-22,30,VR_target_stimuli/s22_1.3x_4.29_364.png,125,1.3x,4.29,4,3986,129,meters,jsons/MX_seq20_0_VE125_flipped.json,217433,421684,24,Man
30,843578,final-intermixed-textured,v2,jsons/MX_seq20_0_VE125_flipped.json,http://54.235.29.9/FacialAge/BNav_EC2/DepthDuration/MX_fS_VE_MTurk/MX_fS_HTML.html#260,260,1920,953,1920,1080,1-12-2024,14-42-22,31,VR_target_stimuli/s42_1x_3.2_303.png,125,1x,3.2,3,2816,123,meters,jsons/MX_seq20_0_VE125_flipped.json,217433,421684,24,Man
31,843578,final-intermixed-textured,v2,jsons/MX_seq20_0_VE125_flipped.json,http://54.235.29.9/FacialAge/BNav_EC2/DepthDuration/MX_fS_VE_MTurk/MX_fS_HTML.html#260,260,1920,953,1920,1080,1-12-2024,14-42-22,32,VR_target_stimuli/s25_1.3x_1.4_299_BC.png,125,1.3x,1.4,1,4128,124,meters,jsons/MX_seq20_0_VE125_flipped.json,217433,421684,24,Man
32,843578,final-intermixed-textured,v2,jsons/MX_seq20_0_VE125_flipped.json,http://54.235.29.9/FacialAge/BNav_EC2/DepthDuration/MX_fS_VE_MTurk/MX_fS_HTML.html#260,260,1920,953,1920,1080,1-12-2024,14-42-22,33,VR_target_stimuli/s50_0.75x_4.53_517.png,125,0.75x,4.53,3,2643,139,meters,jsons/MX_seq20_0_VE125_flipped.json,217433,421684,24,Man
33,843578,final-intermixed-textured,v2,jsons/MX_seq20_0_VE125_flipped.json,http://54.235.29.9/FacialAge/BNav_EC2/DepthDuration/MX_fS_VE_MTurk/MX_fS_HTML.html#260,260,1920,953,1920,1080,1-12-2024,14-42-22,34,catch_stimuli/c3_BC.png,125,,,0,2042,127,meters,jsons/MX_seq20_0_VE125_flipped.json,217433,421684,24,Man
34,843578,final-intermixed-textured,v2,jsons/MX_seq20_0_VE125_flipped.json,http://54.235.29.9/FacialAge/BNav_EC2/DepthDuration/MX_fS_VE_MTurk/MX_fS_HTML.html#260,260,1920,953,1920,1080,1-12-2024,14-42-22,35,VR_target_stimuli/s53_1.3x_1.6_355.png,125,1.3x,1.6,1,2757,130,meters,jsons/MX_seq20_0_VE125_flipped.json,217433,421684,24,Man
35,843578,final-intermixed-textured,v2,jsons/MX_seq20_0_VE125_flipped.json,http://54.235.29.9/FacialAge/BNav_EC2/DepthDuration/MX_fS_VE_MTurk/MX_fS_HTML.html#260,260,1920,953,1920,1080,1-12-2024,14-42-22,36,VR_target_stimuli/s38_1x_3.55_353.png,125,1x,3.55,3,3151,124,meters,jsons/MX_seq20_0_VE125_flipped.json,217433,421684,24,Man
36,843578,final-intermixed-textured,v2,jsons/MX_seq20_0_VE125_flipped.json,http://54.235.29.9/FacialAge/BNav_EC2/DepthDuration/MX_fS_VE_MTurk/MX_fS_HTML.html#260,260,1920,953,1920,1080,1-12-2024,14-42-22,37,VR_target_stimuli/s9_0.75x_1.2_260.png,125,0.75x,1.2,1,2434,137,meters,jsons/MX_seq20_0_VE125_flipped.json,217433,421684,24,Man
37,843578,final-intermixed-textured,v2,jsons/MX_seq20_0_VE125_flipped.json,http://54.235.29.9/FacialAge/BNav_EC2/DepthDuration/MX_fS_VE_MTurk/MX_fS_HTML.html#260,260,1920,953,1920,1080,1-12-2024,14-42-22,38,VR_target_stimuli/s44_0.75x_4.4_314_BC.png,125,0.75x,4.4,2,2288,125,meters,jsons/MX_seq20_0_VE125_flipped.json,217433,421684,24,Man
38,843578,final-intermixed-textured,v2,jsons/MX_seq20_0_VE125_flipped.json,http://54.235.29.9/FacialAge/BNav_EC2/DepthDuration/MX_fS_VE_MTurk/MX_fS_HTML.html#260,260,1920,953,1920,1080,1-12-2024,14-42-22,39,VR_target_stimuli/s3_1.3x_5_390_BC.png,125,1.3x,5.0,3,2503,125,meters,jsons/MX_seq20_0_VE125_flipped.json,217433,421684,24,Man
39,843578,final-intermixed-textured,v2,jsons/MX_seq20_0_VE125_flipped.json,http://54.235.29.9/FacialAge/BNav_EC2/DepthDuration/MX_fS_VE_MTurk/MX_fS_HTML.html#260,260,1920,953,1920,1080,1-12-2024,14-42-22,40,VR_target_stimuli/s1_1x_1.7_262_BC.png,125,1x,1.7,2,2450,130,meters,jsons/MX_seq20_0_VE125_flipped.json,217433,421684,24,Man
40,843578,final-intermixed-textured,v2,jsons/MX_seq20_0_VE125_flipped.json,http://54.235.29.9/FacialAge/BNav_EC2/DepthDuration/MX_fS_VE_MTurk/MX_fS_HTML.html#260,260,1920,953,1920,1080,1-12-2024,14-42-22,41,VR_target_stimuli/s11_1.3x_5_363.png,125,1.3x,5.0,3,3844,123,meters,jsons/MX_seq20_0_VE125_flipped.json,217433,421684,24,Man
41,843578,final-intermixed-textured,v2,jsons/MX_seq20_0_VE125_flipped.json,http://54.235.29.9/FacialAge/BNav_EC2/DepthDuration/MX_fS_VE_MTurk/MX_fS_HTML.html#260,260,1920,953,1920,1080,1-12-2024,14-42-22,42,VR_target_stimuli/s2_0.75x_2.7_384.png,125,0.75x,2.7,2,3230,125,meters,jsons/MX_seq20_0_VE125_flipped.json,217433,421684,24,Man
42,843578,final-intermixed-textured,v2,jsons/MX_seq20_0_VE125_flipped.json,http://54.235.29.9/FacialAge/BNav_EC2/DepthDuration/MX_fS_VE_MTurk/MX_fS_HTML.html#260,260,1920,953,1920,1080,1-12-2024,14-42-22,43,VR_target_stimuli/s6_1x_2.1_293_BC.png,125,1x,2.1,2,3329,125,meters,jsons/MX_seq20_0_VE125_flipped.json,217433,421684,24,Man
43,843578,final-intermixed-textured,v2,jsons/MX_seq20_0_VE125_flipped.json,http://54.235.29.9/FacialAge/BNav_EC2/DepthDuration/MX_fS_VE_MTurk/MX_fS_HTML.html#260,260,1920,953,1920,1080,1-12-2024,14-42-22,44,VR_target_stimuli/s0_0.75x_2.6_345_BC.png,125,0.75x,2.6,3,2706,119,meters,jsons/MX_seq20_0_VE125_flipped.json,217433,421684,24,Man
44,843578,final-intermixed-textured,v2,jsons/MX_seq20_0_VE125_flipped.json,http://54.235.29.9/FacialAge/BNav_EC2/DepthDuration/MX_fS_VE_MTurk/MX_fS_HTML.html#260,260,1920,953,1920,1080,1-12-2024,14-42-22,45,catch_stimuli/c4_BC.png,125,,,0,2274,125,meters,jsons/MX_seq20_0_VE125_flipped.json,217433,421684,24,Man
45,843578,final-intermixed-textured,v2,jsons/MX_seq20_0_VE125_flipped.json,http://54.235.29.9/FacialAge/BNav_EC2/DepthDuration/MX_fS_VE_MTurk/MX_fS_HTML.html#260,260,1920,953,1920,1080,1-12-2024,14-42-22,46,VR_target_stimuli/s34_1.3x_2.8_294_BC.png,125,1.3x,2.8,2,2853,124,meters,jsons/MX_seq20_0_VE125_flipped.json,217433,421684,24,Man
46,843578,final-intermixed-textured,v2,jsons/MX_seq20_0_VE125_flipped.json,http://54.235.29.9/FacialAge/BNav_EC2/DepthDuration/MX_fS_VE_MTurk/MX_fS_HTML.html#260,260,1920,953,1920,1080,1-12-2024,14-42-22,47,VR_target_stimuli/s13_1x_2.4_310.png,125,1x,2.4,3,2497,124,meters,jsons/MX_seq20_0_VE125_flipped.json,217433,421684,24,Man
47,843578,final-intermixed-textured,v2,jsons/MX_seq20_0_VE125_flipped.json,http://54.235.29.9/FacialAge/BNav_EC2/DepthDuration/MX_fS_VE_MTurk/MX_fS_HTML.html#260,260,1920,953,1920,1080,1-12-2024,14-42-22,48,VR_target_stimuli/s14_1x_ 3.83_357_BC.png,125,1x,3.83,3,2184,129,meters,jsons/MX_seq20_0_VE125_flipped.json,217433,421684,24,Man
48,843578,final-intermixed-textured,v2,jsons/MX_seq20_0_VE125_flipped.json,http://54.235.29.9/FacialAge/BNav_EC2/DepthDuration/MX_fS_VE_MTurk/MX_fS_HTML.html#260,260,1920,953,1920,1080,1-12-2024,14-42-22,49,VR_target_stimuli/s47_0.75x_3.45_366_BC.png,125,0.75x,3.45,6,3024,126,meters,jsons/MX_seq20_0_VE125_flipped.json,217433,421684,24,Man
49,843578,final-intermixed-textured,v2,jsons/MX_seq20_0_VE125_flipped.json,http://54.235.29.9/FacialAge/BNav_EC2/DepthDuration/MX_fS_VE_MTurk/MX_fS_HTML.html#260,260,1920,953,1920,1080,1-12-2024,14-42-22,50,VR_target_stimuli/s29_1.3x_1.3_253_BC.png,125,1.3x,1.3,2,2637,125,meters,jsons/MX_seq20_0_VE125_flipped.json,217433,421684,24,Man
50,843578,final-intermixed-textured,v2,jsons/MX_seq20_0_VE125_flipped.json,http://54.235.29.9/FacialAge/BNav_EC2/DepthDuration/MX_fS_VE_MTurk/MX_fS_HTML.html#260,260,1920,953,1920,1080,1-12-2024,14-42-22,51,VR_target_stimuli/s28_0.75x_3.2_357.png,125,0.75x,3.2,3,2693,123,meters,jsons/MX_seq20_0_VE125_flipped.json,217433,421684,24,Man
51,843578,final-intermixed-textured,v2,jsons/MX_seq20_0_VE125_flipped.json,http://54.235.29.9/FacialAge/BNav_EC2/DepthDuration/MX_fS_VE_MTurk/MX_fS_HTML.html#260,260,1920,953,1920,1080,1-12-2024,14-42-22,52,VR_target_stimuli/s48_1x_2.55_256.png,125,1x,2.55,4,2991,126,meters,jsons/MX_seq20_0_VE125_flipped.json,217433,421684,24,Man
52,843578,final-intermixed-textured,v2,jsons/MX_seq20_0_VE125_flipped.json,http://54.235.29.9/FacialAge/BNav_EC2/DepthDuration/MX_fS_VE_MTurk/MX_fS_HTML.html#260,260,1920,953,1920,1080,1-12-2024,14-42-22,53,catch_stimuli/c5_BC.png,125,,,0,2328,123,meters,jsons/MX_seq20_0_VE125_flipped.json,217433,421684,24,Man
53,843578,final-intermixed-textured,v2,jsons/MX_seq20_0_VE125_flipped.json,http://54.235.29.9/FacialAge/BNav_EC2/DepthDuration/MX_fS_VE_MTurk/MX_fS_HTML.html#260,260,1920,953,1920,1080,1-12-2024,14-42-22,54,VR_target_stimuli/s19_1.3x_1.21_270.png,125,1.3x,1.21,1,2117,125,meters,jsons/MX_seq20_0_VE125_flipped.json,217433,421684,24,Man
54,843578,final-intermixed-textured,v2,jsons/MX_seq20_0_VE125_flipped.json,http://54.235.29.9/FacialAge/BNav_EC2/DepthDuration/MX_fS_VE_MTurk/MX_fS_HTML.html#260,260,1920,953,1920,1080,1-12-2024,14-42-22,55,VR_target_stimuli/s21_1x_4.22_379_BC.png,125,1x,4.22,3,4171,127,meters,jsons/MX_seq20_0_VE125_flipped.json,217433,421684,24,Man
55,843578,final-intermixed-textured,v2,jsons/MX_seq20_0_VE125_flipped.json,http://54.235.29.9/FacialAge/BNav_EC2/DepthDuration/MX_fS_VE_MTurk/MX_fS_HTML.html#260,260,1920,953,1920,1080,1-12-2024,14-42-22,56,VR_target_stimuli/s8_0.75x_3.1_325_BC.png,125,0.75x,3.1,5,4196,127,meters,jsons/MX_seq20_0_VE125_flipped.json,217433,421684,24,Man
56,843578,final-intermixed-textured,v2,jsons/MX_seq20_0_VE125_flipped.json,http://54.235.29.9/FacialAge/BNav_EC2/DepthDuration/MX_fS_VE_MTurk/MX_fS_HTML.html#260,260,1920,953,1920,1080,1-12-2024,14-42-22,57,VR_target_stimuli/s27_1.3x_1.76_250.png,125,1.3x,1.76,2,4446,125,meters,jsons/MX_seq20_0_VE125_flipped.json,217433,421684,24,Man
57,843578,final-intermixed-textured,v2,jsons/MX_seq20_0_VE125_flipped.json,http://54.235.29.9/FacialAge/BNav_EC2/DepthDuration/MX_fS_VE_MTurk/MX_fS_HTML.html#260,260,1920,953,1920,1080,1-12-2024,14-42-22,58,VR_target_stimuli/s15_1.3x_4.2_389_BC.png,125,1.3x,4.2,3,2860,126,meters,jsons/MX_seq20_0_VE125_flipped.json,217433,421684,24,Man
58,843578,final-intermixed-textured,v2,jsons/MX_seq20_0_VE125_flipped.json,http://54.235.29.9/FacialAge/BNav_EC2/DepthDuration/MX_fS_VE_MTurk/MX_fS_HTML.html#260,260,1920,953,1920,1080,1-12-2024,14-42-22,59,VR_target_stimuli/s4_1x_1.4_313.png,125,1x,1.4,1,2616,125,meters,jsons/MX_seq20_0_VE125_flipped.json,217433,421684,24,Man
59,843578,final-intermixed-textured,v2,jsons/MX_seq20_0_VE125_flipped.json,http://54.235.29.9/FacialAge/BNav_EC2/DepthDuration/MX_fS_VE_MTurk/MX_fS_HTML.html#260,260,1920,953,1920,1080,1-12-2024,14-42-22,60,VR_target_stimuli/s35_0.75x_2_323.png,125,0.75x,2.0,3,3005,125,meters,jsons/MX_seq20_0_VE125_flipped.json,217433,421684,24,Man
