,subjID,experimentName,versionName,sequenceName,url,selected_row,windowWidth,windowHeight,screenWidth,screenHeight,startDate,startTime,trial,stimulus,duration,scale,actual_depth,depth_estimate,trial_RT,log_sceneDuration,unitSelection,seq_filepath,experimentTime,totalTime,age,gender
0,853823,final-intermixed-textured,v2,jsons/MX_seq41_1_VE125_flipped.json,http://54.235.29.9/FacialAge/BNav_EC2/DepthDuration/MX_fS_VE_MTurk/MX_fS_HTML.html#1,1,1600,773,1600,900,1-12-2024,12-31-49,1,VR_target_stimuli/s16_1.3x_1_223.png,125,1.3x,1.0,0,5857,114,meters,jsons/MX_seq41_1_VE125_flipped.json,313583,549976,40,Man
1,853823,final-intermixed-textured,v2,jsons/MX_seq41_1_VE125_flipped.json,http://54.235.29.9/FacialAge/BNav_EC2/DepthDuration/MX_fS_VE_MTurk/MX_fS_HTML.html#1,1,1600,773,1600,900,1-12-2024,12-31-49,2,VR_target_stimuli/s17_0.75x_1.8_285_BC.png,125,0.75x,1.8,0,3311,119,meters,jsons/MX_seq41_1_VE125_flipped.json,313583,549976,40,Man
2,853823,final-intermixed-textured,v2,jsons/MX_seq41_1_VE125_flipped.json,http://54.235.29.9/FacialAge/BNav_EC2/DepthDuration/MX_fS_VE_MTurk/MX_fS_HTML.html#1,1,1600,773,1600,900,1-12-2024,12-31-49,3,VR_target_stimuli/s5_1x_4_378_BC.png,125,1x,4.0,1,2607,125,meters,jsons/MX_seq41_1_VE125_flipped.json,313583,549976,40,Man
3,853823,final-intermixed-textured,v2,jsons/MX_seq41_1_VE125_flipped.json,http://54.235.29.9/FacialAge/BNav_EC2/DepthDuration/MX_fS_VE_MTurk/MX_fS_HTML.html#1,1,1600,773,1600,900,1-12-2024,12-31-49,4,VR_target_stimuli/s37_0.75x_3.3_567.png,125,0.75x,3.3,2,3970,126,meters,jsons/MX_seq41_1_VE125_flipped.json,313583,549976,40,Man
4,853823,final-intermixed-textured,v2,jsons/MX_seq41_1_VE125_flipped.json,http://54.235.29.9/FacialAge/BNav_EC2/DepthDuration/MX_fS_VE_MTurk/MX_fS_HTML.html#1,1,1600,773,1600,900,1-12-2024,12-31-49,5,VR_target_stimuli/s46_1.3x_2.42_354_BC.png,125,1.3x,2.42,1,3882,126,meters,jsons/MX_seq41_1_VE125_flipped.json,313583,549976,40,Man
5,853823,final-intermixed-textured,v2,jsons/MX_seq41_1_VE125_flipped.json,http://54.235.29.9/FacialAge/BNav_EC2/DepthDuration/MX_fS_VE_MTurk/MX_fS_HTML.html#1,1,1600,773,1600,900,1-12-2024,12-31-49,6,VR_target_stimuli/s22_1x_4.29_354.png,125,1x,4.29,1,7120,124,meters,jsons/MX_seq41_1_VE125_flipped.json,313583,549976,40,Man
6,853823,final-intermixed-textured,v2,jsons/MX_seq41_1_VE125_flipped.json,http://54.235.29.9/FacialAge/BNav_EC2/DepthDuration/MX_fS_VE_MTurk/MX_fS_HTML.html#1,1,1600,773,1600,900,1-12-2024,12-31-49,7,catch_stimuli/c0_BC.png,125,,,1,6744,126,meters,jsons/MX_seq41_1_VE125_flipped.json,313583,549976,40,Man
7,853823,final-intermixed-textured,v2,jsons/MX_seq41_1_VE125_flipped.json,http://54.235.29.9/FacialAge/BNav_EC2/DepthDuration/MX_fS_VE_MTurk/MX_fS_HTML.html#1,1,1600,773,1600,900,1-12-2024,12-31-49,8,VR_target_stimuli/s42_1x_3.2_303.png,125,1x,3.2,3,7944,125,meters,jsons/MX_seq41_1_VE125_flipped.json,313583,549976,40,Man
8,853823,final-intermixed-textured,v2,jsons/MX_seq41_1_VE125_flipped.json,http://54.235.29.9/FacialAge/BNav_EC2/DepthDuration/MX_fS_VE_MTurk/MX_fS_HTML.html#1,1,1600,773,1600,900,1-12-2024,12-31-49,9,VR_target_stimuli/s25_0.75x_1.4_281_BC.png,125,0.75x,1.4,5,5487,127,meters,jsons/MX_seq41_1_VE125_flipped.json,313583,549976,40,Man
9,853823,final-intermixed-textured,v2,jsons/MX_seq41_1_VE125_flipped.json,http://54.235.29.9/FacialAge/BNav_EC2/DepthDuration/MX_fS_VE_MTurk/MX_fS_HTML.html#1,1,1600,773,1600,900,1-12-2024,12-31-49,10,VR_target_stimuli/s50_1.3x_4.53_518.png,125,1.3x,4.53,7,6692,110,meters,jsons/MX_seq41_1_VE125_flipped.json,313583,549976,40,Man
10,853823,final-intermixed-textured,v2,jsons/MX_seq41_1_VE125_flipped.json,http://54.235.29.9/FacialAge/BNav_EC2/DepthDuration/MX_fS_VE_MTurk/MX_fS_HTML.html#1,1,1600,773,1600,900,1-12-2024,12-31-49,11,VR_target_stimuli/s53_0.75x_1.6_403.png,125,0.75x,1.6,2,9660,125,meters,jsons/MX_seq41_1_VE125_flipped.json,313583,549976,40,Man
11,853823,final-intermixed-textured,v2,jsons/MX_seq41_1_VE125_flipped.json,http://54.235.29.9/FacialAge/BNav_EC2/DepthDuration/MX_fS_VE_MTurk/MX_fS_HTML.html#1,1,1600,773,1600,900,1-12-2024,12-31-49,12,VR_target_stimuli/s38_1x_3.55_353_BC.png,125,1x,3.55,1,4212,111,meters,jsons/MX_seq41_1_VE125_flipped.json,313583,549976,40,Man
12,853823,final-intermixed-textured,v2,jsons/MX_seq41_1_VE125_flipped.json,http://54.235.29.9/FacialAge/BNav_EC2/DepthDuration/MX_fS_VE_MTurk/MX_fS_HTML.html#1,1,1600,773,1600,900,1-12-2024,12-31-49,13,VR_target_stimuli/s9_1.3x_1.2_276_BC.png,125,1.3x,1.2,4,4381,127,meters,jsons/MX_seq41_1_VE125_flipped.json,313583,549976,40,Man
13,853823,final-intermixed-textured,v2,jsons/MX_seq41_1_VE125_flipped.json,http://54.235.29.9/FacialAge/BNav_EC2/DepthDuration/MX_fS_VE_MTurk/MX_fS_HTML.html#1,1,1600,773,1600,900,1-12-2024,12-31-49,14,VR_target_stimuli/s44_1x_4.4_317_BC.png,125,1x,4.4,3,4349,108,meters,jsons/MX_seq41_1_VE125_flipped.json,313583,549976,40,Man
14,853823,final-intermixed-textured,v2,jsons/MX_seq41_1_VE125_flipped.json,http://54.235.29.9/FacialAge/BNav_EC2/DepthDuration/MX_fS_VE_MTurk/MX_fS_HTML.html#1,1,1600,773,1600,900,1-12-2024,12-31-49,15,VR_target_stimuli/s3_0.75x_5_381.png,125,0.75x,5.0,7,7130,119,meters,jsons/MX_seq41_1_VE125_flipped.json,313583,549976,40,Man
15,853823,final-intermixed-textured,v2,jsons/MX_seq41_1_VE125_flipped.json,http://54.235.29.9/FacialAge/BNav_EC2/DepthDuration/MX_fS_VE_MTurk/MX_fS_HTML.html#1,1,1600,773,1600,900,1-12-2024,12-31-49,16,VR_target_stimuli/s1_1.3x_1.7_261.png,125,1.3x,1.7,2,8514,126,meters,jsons/MX_seq41_1_VE125_flipped.json,313583,549976,40,Man
16,853823,final-intermixed-textured,v2,jsons/MX_seq41_1_VE125_flipped.json,http://54.235.29.9/FacialAge/BNav_EC2/DepthDuration/MX_fS_VE_MTurk/MX_fS_HTML.html#1,1,1600,773,1600,900,1-12-2024,12-31-49,17,catch_stimuli/c1_BC.png,125,,,3,14968,126,meters,jsons/MX_seq41_1_VE125_flipped.json,313583,549976,40,Man
17,853823,final-intermixed-textured,v2,jsons/MX_seq41_1_VE125_flipped.json,http://54.235.29.9/FacialAge/BNav_EC2/DepthDuration/MX_fS_VE_MTurk/MX_fS_HTML.html#1,1,1600,773,1600,900,1-12-2024,12-31-49,18,VR_target_stimuli/s11_1.3x_5_363_BC.png,125,1.3x,5.0,5,7057,117,meters,jsons/MX_seq41_1_VE125_flipped.json,313583,549976,40,Man
18,853823,final-intermixed-textured,v2,jsons/MX_seq41_1_VE125_flipped.json,http://54.235.29.9/FacialAge/BNav_EC2/DepthDuration/MX_fS_VE_MTurk/MX_fS_HTML.html#1,1,1600,773,1600,900,1-12-2024,12-31-49,19,VR_target_stimuli/s2_1x_2.7_390.png,125,1x,2.7,2,4469,122,meters,jsons/MX_seq41_1_VE125_flipped.json,313583,549976,40,Man
19,853823,final-intermixed-textured,v2,jsons/MX_seq41_1_VE125_flipped.json,http://54.235.29.9/FacialAge/BNav_EC2/DepthDuration/MX_fS_VE_MTurk/MX_fS_HTML.html#1,1,1600,773,1600,900,1-12-2024,12-31-49,20,VR_target_stimuli/s6_0.75x_2.1_290_BC.png,125,0.75x,2.1,3,3666,125,meters,jsons/MX_seq41_1_VE125_flipped.json,313583,549976,40,Man
20,853823,final-intermixed-textured,v2,jsons/MX_seq41_1_VE125_flipped.json,http://54.235.29.9/FacialAge/BNav_EC2/DepthDuration/MX_fS_VE_MTurk/MX_fS_HTML.html#1,1,1600,773,1600,900,1-12-2024,12-31-49,21,VR_target_stimuli/s0_1x_2.6_351.png,125,1x,2.6,1,3485,109,meters,jsons/MX_seq41_1_VE125_flipped.json,313583,549976,40,Man
21,853823,final-intermixed-textured,v2,jsons/MX_seq41_1_VE125_flipped.json,http://54.235.29.9/FacialAge/BNav_EC2/DepthDuration/MX_fS_VE_MTurk/MX_fS_HTML.html#1,1,1600,773,1600,900,1-12-2024,12-31-49,22,VR_target_stimuli/s34_1.3x_2.8_294.png,125,1.3x,2.8,3,6029,126,meters,jsons/MX_seq41_1_VE125_flipped.json,313583,549976,40,Man
22,853823,final-intermixed-textured,v2,jsons/MX_seq41_1_VE125_flipped.json,http://54.235.29.9/FacialAge/BNav_EC2/DepthDuration/MX_fS_VE_MTurk/MX_fS_HTML.html#1,1,1600,773,1600,900,1-12-2024,12-31-49,23,VR_target_stimuli/s13_0.75x_2.4_308_BC.png,125,0.75x,2.4,2,5830,125,meters,jsons/MX_seq41_1_VE125_flipped.json,313583,549976,40,Man
23,853823,final-intermixed-textured,v2,jsons/MX_seq41_1_VE125_flipped.json,http://54.235.29.9/FacialAge/BNav_EC2/DepthDuration/MX_fS_VE_MTurk/MX_fS_HTML.html#1,1,1600,773,1600,900,1-12-2024,12-31-49,24,VR_target_stimuli/s14_1.3x_3.83_359_BC.png,125,1.3x,3.83,1,3579,124,meters,jsons/MX_seq41_1_VE125_flipped.json,313583,549976,40,Man
24,853823,final-intermixed-textured,v2,jsons/MX_seq41_1_VE125_flipped.json,http://54.235.29.9/FacialAge/BNav_EC2/DepthDuration/MX_fS_VE_MTurk/MX_fS_HTML.html#1,1,1600,773,1600,900,1-12-2024,12-31-49,25,VR_target_stimuli/s47_1x_3.45_370_BC.png,125,1x,3.45,2,3033,124,meters,jsons/MX_seq41_1_VE125_flipped.json,313583,549976,40,Man
25,853823,final-intermixed-textured,v2,jsons/MX_seq41_1_VE125_flipped.json,http://54.235.29.9/FacialAge/BNav_EC2/DepthDuration/MX_fS_VE_MTurk/MX_fS_HTML.html#1,1,1600,773,1600,900,1-12-2024,12-31-49,26,catch_stimuli/c2_BC.png,125,,,3,3323,110,meters,jsons/MX_seq41_1_VE125_flipped.json,313583,549976,40,Man
26,853823,final-intermixed-textured,v2,jsons/MX_seq41_1_VE125_flipped.json,http://54.235.29.9/FacialAge/BNav_EC2/DepthDuration/MX_fS_VE_MTurk/MX_fS_HTML.html#1,1,1600,773,1600,900,1-12-2024,12-31-49,27,VR_target_stimuli/s29_0.75x_1.3_246.png,125,0.75x,1.3,5,3780,127,meters,jsons/MX_seq41_1_VE125_flipped.json,313583,549976,40,Man
27,853823,final-intermixed-textured,v2,jsons/MX_seq41_1_VE125_flipped.json,http://54.235.29.9/FacialAge/BNav_EC2/DepthDuration/MX_fS_VE_MTurk/MX_fS_HTML.html#1,1,1600,773,1600,900,1-12-2024,12-31-49,28,VR_target_stimuli/s28_0.75x_3.2_357_BC.png,125,0.75x,3.2,8,6030,126,meters,jsons/MX_seq41_1_VE125_flipped.json,313583,549976,40,Man
28,853823,final-intermixed-textured,v2,jsons/MX_seq41_1_VE125_flipped.json,http://54.235.29.9/FacialAge/BNav_EC2/DepthDuration/MX_fS_VE_MTurk/MX_fS_HTML.html#1,1,1600,773,1600,900,1-12-2024,12-31-49,29,VR_target_stimuli/s48_1.3x_2.55_255.png,125,1.3x,2.55,2,12883,113,meters,jsons/MX_seq41_1_VE125_flipped.json,313583,549976,40,Man
29,853823,final-intermixed-textured,v2,jsons/MX_seq41_1_VE125_flipped.json,http://54.235.29.9/FacialAge/BNav_EC2/DepthDuration/MX_fS_VE_MTurk/MX_fS_HTML.html#1,1,1600,773,1600,900,1-12-2024,12-31-49,30,VR_target_stimuli/s19_1x_1.21_263_BC.png,125,1x,1.21,5,3308,109,meters,jsons/MX_seq41_1_VE125_flipped.json,313583,549976,40,Man
30,853823,final-intermixed-textured,v2,jsons/MX_seq41_1_VE125_flipped.json,http://54.235.29.9/FacialAge/BNav_EC2/DepthDuration/MX_fS_VE_MTurk/MX_fS_HTML.html#1,1,1600,773,1600,900,1-12-2024,12-31-49,31,VR_target_stimuli/s21_0.75x_4.22_374.png,125,0.75x,4.22,2,2587,125,meters,jsons/MX_seq41_1_VE125_flipped.json,313583,549976,40,Man
31,853823,final-intermixed-textured,v2,jsons/MX_seq41_1_VE125_flipped.json,http://54.235.29.9/FacialAge/BNav_EC2/DepthDuration/MX_fS_VE_MTurk/MX_fS_HTML.html#1,1,1600,773,1600,900,1-12-2024,12-31-49,32,VR_target_stimuli/s8_1x_3.1_332.png,125,1x,3.1,1,3153,126,meters,jsons/MX_seq41_1_VE125_flipped.json,313583,549976,40,Man
32,853823,final-intermixed-textured,v2,jsons/MX_seq41_1_VE125_flipped.json,http://54.235.29.9/FacialAge/BNav_EC2/DepthDuration/MX_fS_VE_MTurk/MX_fS_HTML.html#1,1,1600,773,1600,900,1-12-2024,12-31-49,33,VR_target_stimuli/s27_1.3x_1.76_250_BC.png,125,1.3x,1.76,4,3984,110,meters,jsons/MX_seq41_1_VE125_flipped.json,313583,549976,40,Man
33,853823,final-intermixed-textured,v2,jsons/MX_seq41_1_VE125_flipped.json,http://54.235.29.9/FacialAge/BNav_EC2/DepthDuration/MX_fS_VE_MTurk/MX_fS_HTML.html#1,1,1600,773,1600,900,1-12-2024,12-31-49,34,catch_stimuli/c3_BC.png,125,,,7,3287,126,meters,jsons/MX_seq41_1_VE125_flipped.json,313583,549976,40,Man
34,853823,final-intermixed-textured,v2,jsons/MX_seq41_1_VE125_flipped.json,http://54.235.29.9/FacialAge/BNav_EC2/DepthDuration/MX_fS_VE_MTurk/MX_fS_HTML.html#1,1,1600,773,1600,900,1-12-2024,12-31-49,35,VR_target_stimuli/s15_1x_4.2_390.png,125,1x,4.2,2,13970,125,meters,jsons/MX_seq41_1_VE125_flipped.json,313583,549976,40,Man
35,853823,final-intermixed-textured,v2,jsons/MX_seq41_1_VE125_flipped.json,http://54.235.29.9/FacialAge/BNav_EC2/DepthDuration/MX_fS_VE_MTurk/MX_fS_HTML.html#1,1,1600,773,1600,900,1-12-2024,12-31-49,36,VR_target_stimuli/s4_0.75x_1.4_301.png,125,0.75x,1.4,1,2866,127,meters,jsons/MX_seq41_1_VE125_flipped.json,313583,549976,40,Man
36,853823,final-intermixed-textured,v2,jsons/MX_seq41_1_VE125_flipped.json,http://54.235.29.9/FacialAge/BNav_EC2/DepthDuration/MX_fS_VE_MTurk/MX_fS_HTML.html#1,1,1600,773,1600,900,1-12-2024,12-31-49,37,VR_target_stimuli/s35_1.3x_2_338_BC.png,125,1.3x,2.0,5,3077,121,meters,jsons/MX_seq41_1_VE125_flipped.json,313583,549976,40,Man
37,853823,final-intermixed-textured,v2,jsons/MX_seq41_1_VE125_flipped.json,http://54.235.29.9/FacialAge/BNav_EC2/DepthDuration/MX_fS_VE_MTurk/MX_fS_HTML.html#1,1,1600,773,1600,900,1-12-2024,12-31-49,38,VR_target_stimuli/s49_1.3x_4.67_354.png,125,1.3x,4.67,1,2838,127,meters,jsons/MX_seq41_1_VE125_flipped.json,313583,549976,40,Man
38,853823,final-intermixed-textured,v2,jsons/MX_seq41_1_VE125_flipped.json,http://54.235.29.9/FacialAge/BNav_EC2/DepthDuration/MX_fS_VE_MTurk/MX_fS_HTML.html#1,1,1600,773,1600,900,1-12-2024,12-31-49,39,VR_target_stimuli/s7_1x_1.5_255_BC.png,125,1x,1.5,1,2434,128,meters,jsons/MX_seq41_1_VE125_flipped.json,313583,549976,40,Man
39,853823,final-intermixed-textured,v2,jsons/MX_seq41_1_VE125_flipped.json,http://54.235.29.9/FacialAge/BNav_EC2/DepthDuration/MX_fS_VE_MTurk/MX_fS_HTML.html#1,1,1600,773,1600,900,1-12-2024,12-31-49,40,VR_target_stimuli/s20_0.75x_4.99_390_BC.png,125,0.75x,4.99,2,5257,129,meters,jsons/MX_seq41_1_VE125_flipped.json,313583,549976,40,Man
40,853823,final-intermixed-textured,v2,jsons/MX_seq41_1_VE125_flipped.json,http://54.235.29.9/FacialAge/BNav_EC2/DepthDuration/MX_fS_VE_MTurk/MX_fS_HTML.html#1,1,1600,773,1600,900,1-12-2024,12-31-49,41,VR_target_stimuli/s31_1x_4.96_333.png,125,1x,4.96,6,3571,123,meters,jsons/MX_seq41_1_VE125_flipped.json,313583,549976,40,Man
41,853823,final-intermixed-textured,v2,jsons/MX_seq41_1_VE125_flipped.json,http://54.235.29.9/FacialAge/BNav_EC2/DepthDuration/MX_fS_VE_MTurk/MX_fS_HTML.html#1,1,1600,773,1600,900,1-12-2024,12-31-49,42,VR_target_stimuli/s33_1.3x_3.1_378.png,125,1.3x,3.1,1,3456,133,meters,jsons/MX_seq41_1_VE125_flipped.json,313583,549976,40,Man
42,853823,final-intermixed-textured,v2,jsons/MX_seq41_1_VE125_flipped.json,http://54.235.29.9/FacialAge/BNav_EC2/DepthDuration/MX_fS_VE_MTurk/MX_fS_HTML.html#1,1,1600,773,1600,900,1-12-2024,12-31-49,43,VR_target_stimuli/s52_0.75x_3.2_270_BC.png,125,0.75x,3.2,7,3352,123,meters,jsons/MX_seq41_1_VE125_flipped.json,313583,549976,40,Man
43,853823,final-intermixed-textured,v2,jsons/MX_seq41_1_VE125_flipped.json,http://54.235.29.9/FacialAge/BNav_EC2/DepthDuration/MX_fS_VE_MTurk/MX_fS_HTML.html#1,1,1600,773,1600,900,1-12-2024,12-31-49,44,VR_target_stimuli/s32_1.3x_1.5_224_BC.png,125,1.3x,1.5,1,3684,131,meters,jsons/MX_seq41_1_VE125_flipped.json,313583,549976,40,Man
44,853823,final-intermixed-textured,v2,jsons/MX_seq41_1_VE125_flipped.json,http://54.235.29.9/FacialAge/BNav_EC2/DepthDuration/MX_fS_VE_MTurk/MX_fS_HTML.html#1,1,1600,773,1600,900,1-12-2024,12-31-49,45,catch_stimuli/c4_BC.png,125,,,1,4237,114,meters,jsons/MX_seq41_1_VE125_flipped.json,313583,549976,40,Man
45,853823,final-intermixed-textured,v2,jsons/MX_seq41_1_VE125_flipped.json,http://54.235.29.9/FacialAge/BNav_EC2/DepthDuration/MX_fS_VE_MTurk/MX_fS_HTML.html#1,1,1600,773,1600,900,1-12-2024,12-31-49,46,VR_target_stimuli/s18_1x_2.25_353_BC.png,125,1x,2.25,3,3053,127,meters,jsons/MX_seq41_1_VE125_flipped.json,313583,549976,40,Man
46,853823,final-intermixed-textured,v2,jsons/MX_seq41_1_VE125_flipped.json,http://54.235.29.9/FacialAge/BNav_EC2/DepthDuration/MX_fS_VE_MTurk/MX_fS_HTML.html#1,1,1600,773,1600,900,1-12-2024,12-31-49,47,VR_target_stimuli/s39_0.75x_1_205.png,125,0.75x,1.0,1,2884,124,meters,jsons/MX_seq41_1_VE125_flipped.json,313583,549976,40,Man
47,853823,final-intermixed-textured,v2,jsons/MX_seq41_1_VE125_flipped.json,http://54.235.29.9/FacialAge/BNav_EC2/DepthDuration/MX_fS_VE_MTurk/MX_fS_HTML.html#1,1,1600,773,1600,900,1-12-2024,12-31-49,48,VR_target_stimuli/s51_0.75x_3.64_460_BC.png,125,0.75x,3.64,5,5081,127,meters,jsons/MX_seq41_1_VE125_flipped.json,313583,549976,40,Man
48,853823,final-intermixed-textured,v2,jsons/MX_seq41_1_VE125_flipped.json,http://54.235.29.9/FacialAge/BNav_EC2/DepthDuration/MX_fS_VE_MTurk/MX_fS_HTML.html#1,1,1600,773,1600,900,1-12-2024,12-31-49,49,VR_target_stimuli/s43_1.3x_2.2_363.png,125,1.3x,2.2,3,3734,126,meters,jsons/MX_seq41_1_VE125_flipped.json,313583,549976,40,Man
49,853823,final-intermixed-textured,v2,jsons/MX_seq41_1_VE125_flipped.json,http://54.235.29.9/FacialAge/BNav_EC2/DepthDuration/MX_fS_VE_MTurk/MX_fS_HTML.html#1,1,1600,773,1600,900,1-12-2024,12-31-49,50,VR_target_stimuli/s24_1x_3.3_349.png,125,1x,3.3,2,2752,125,meters,jsons/MX_seq41_1_VE125_flipped.json,313583,549976,40,Man
50,853823,final-intermixed-textured,v2,jsons/MX_seq41_1_VE125_flipped.json,http://54.235.29.9/FacialAge/BNav_EC2/DepthDuration/MX_fS_VE_MTurk/MX_fS_HTML.html#1,1,1600,773,1600,900,1-12-2024,12-31-49,51,VR_target_stimuli/s10_1.3x_2.7_325_BC.png,125,1.3x,2.7,1,3092,111,meters,jsons/MX_seq41_1_VE125_flipped.json,313583,549976,40,Man
51,853823,final-intermixed-textured,v2,jsons/MX_seq41_1_VE125_flipped.json,http://54.235.29.9/FacialAge/BNav_EC2/DepthDuration/MX_fS_VE_MTurk/MX_fS_HTML.html#1,1,1600,773,1600,900,1-12-2024,12-31-49,52,VR_target_stimuli/s36_0.75x_4.1_407.png,125,0.75x,4.1,1,2564,125,meters,jsons/MX_seq41_1_VE125_flipped.json,313583,549976,40,Man
52,853823,final-intermixed-textured,v2,jsons/MX_seq41_1_VE125_flipped.json,http://54.235.29.9/FacialAge/BNav_EC2/DepthDuration/MX_fS_VE_MTurk/MX_fS_HTML.html#1,1,1600,773,1600,900,1-12-2024,12-31-49,53,catch_stimuli/c5_BC.png,125,,,1,2281,127,meters,jsons/MX_seq41_1_VE125_flipped.json,313583,549976,40,Man
53,853823,final-intermixed-textured,v2,jsons/MX_seq41_1_VE125_flipped.json,http://54.235.29.9/FacialAge/BNav_EC2/DepthDuration/MX_fS_VE_MTurk/MX_fS_HTML.html#1,1,1600,773,1600,900,1-12-2024,12-31-49,54,VR_target_stimuli/s40_1x_1.2_319_BC.png,125,1x,1.2,1,2738,131,meters,jsons/MX_seq41_1_VE125_flipped.json,313583,549976,40,Man
54,853823,final-intermixed-textured,v2,jsons/MX_seq41_1_VE125_flipped.json,http://54.235.29.9/FacialAge/BNav_EC2/DepthDuration/MX_fS_VE_MTurk/MX_fS_HTML.html#1,1,1600,773,1600,900,1-12-2024,12-31-49,55,VR_target_stimuli/s41_0.75x_2.1_281.png,125,0.75x,2.1,2,2392,131,meters,jsons/MX_seq41_1_VE125_flipped.json,313583,549976,40,Man
55,853823,final-intermixed-textured,v2,jsons/MX_seq41_1_VE125_flipped.json,http://54.235.29.9/FacialAge/BNav_EC2/DepthDuration/MX_fS_VE_MTurk/MX_fS_HTML.html#1,1,1600,773,1600,900,1-12-2024,12-31-49,56,VR_target_stimuli/s45_1.3x_3.5_377_BC.png,125,1.3x,3.5,5,3366,126,meters,jsons/MX_seq41_1_VE125_flipped.json,313583,549976,40,Man
56,853823,final-intermixed-textured,v2,jsons/MX_seq41_1_VE125_flipped.json,http://54.235.29.9/FacialAge/BNav_EC2/DepthDuration/MX_fS_VE_MTurk/MX_fS_HTML.html#1,1,1600,773,1600,900,1-12-2024,12-31-49,57,VR_target_stimuli/s23_1x_3.65_353.png,125,1x,3.65,4,3796,112,meters,jsons/MX_seq41_1_VE125_flipped.json,313583,549976,40,Man
57,853823,final-intermixed-textured,v2,jsons/MX_seq41_1_VE125_flipped.json,http://54.235.29.9/FacialAge/BNav_EC2/DepthDuration/MX_fS_VE_MTurk/MX_fS_HTML.html#1,1,1600,773,1600,900,1-12-2024,12-31-49,58,VR_target_stimuli/s26_1x_4_433_BC.png,125,1x,4.0,8,3341,116,meters,jsons/MX_seq41_1_VE125_flipped.json,313583,549976,40,Man
58,853823,final-intermixed-textured,v2,jsons/MX_seq41_1_VE125_flipped.json,http://54.235.29.9/FacialAge/BNav_EC2/DepthDuration/MX_fS_VE_MTurk/MX_fS_HTML.html#1,1,1600,773,1600,900,1-12-2024,12-31-49,59,VR_target_stimuli/s12_0.75x_3.1_364_BC.png,125,0.75x,3.1,4,3257,137,meters,jsons/MX_seq41_1_VE125_flipped.json,313583,549976,40,Man
59,853823,final-intermixed-textured,v2,jsons/MX_seq41_1_VE125_flipped.json,http://54.235.29.9/FacialAge/BNav_EC2/DepthDuration/MX_fS_VE_MTurk/MX_fS_HTML.html#1,1,1600,773,1600,900,1-12-2024,12-31-49,60,VR_target_stimuli/s30_1.3x_2.3_337.png,125,1.3x,2.3,4,3632,124,meters,jsons/MX_seq41_1_VE125_flipped.json,313583,549976,40,Man
