,subjID,experimentName,versionName,sequenceName,url,selected_row,windowWidth,windowHeight,screenWidth,screenHeight,startDate,startTime,trial,stimulus,duration,scale,actual_depth,depth_estimate,trial_RT,log_sceneDuration,unitSelection,seq_filepath,experimentTime,totalTime,age,gender
0,858844,final-intermixed-textured,v2,jsons/MX_seq15_1_VE125_flipped.json,http://54.235.29.9/FacialAge/BNav_EC2/DepthDuration/MX_fS_VE_MTurk/MX_fS_HTML.html#200,200,2048,1152,2048,1152,1-12-2024,19-37-38,1,VR_target_stimuli/s8_1.3x_3.1_345_BC.png,125,1.3x,3.1,3.5,5028,138,meters,jsons/MX_seq15_1_VE125_flipped.json,268032,441388,27,Man
1,858844,final-intermixed-textured,v2,jsons/MX_seq15_1_VE125_flipped.json,http://54.235.29.9/FacialAge/BNav_EC2/DepthDuration/MX_fS_VE_MTurk/MX_fS_HTML.html#200,200,2048,1152,2048,1152,1-12-2024,19-37-38,2,VR_target_stimuli/s27_0.75x_1.76_243_BC.png,125,0.75x,1.76,3.0,3497,124,meters,jsons/MX_seq15_1_VE125_flipped.json,268032,441388,27,Man
2,858844,final-intermixed-textured,v2,jsons/MX_seq15_1_VE125_flipped.json,http://54.235.29.9/FacialAge/BNav_EC2/DepthDuration/MX_fS_VE_MTurk/MX_fS_HTML.html#200,200,2048,1152,2048,1152,1-12-2024,19-37-38,3,VR_target_stimuli/s15_1x_4.2_390_BC.png,125,1x,4.2,4.0,3906,126,meters,jsons/MX_seq15_1_VE125_flipped.json,268032,441388,27,Man
3,858844,final-intermixed-textured,v2,jsons/MX_seq15_1_VE125_flipped.json,http://54.235.29.9/FacialAge/BNav_EC2/DepthDuration/MX_fS_VE_MTurk/MX_fS_HTML.html#200,200,2048,1152,2048,1152,1-12-2024,19-37-38,4,VR_target_stimuli/s4_0.75x_1.4_301.png,125,0.75x,1.4,1.5,8072,125,meters,jsons/MX_seq15_1_VE125_flipped.json,268032,441388,27,Man
4,858844,final-intermixed-textured,v2,jsons/MX_seq15_1_VE125_flipped.json,http://54.235.29.9/FacialAge/BNav_EC2/DepthDuration/MX_fS_VE_MTurk/MX_fS_HTML.html#200,200,2048,1152,2048,1152,1-12-2024,19-37-38,5,VR_target_stimuli/s35_1.3x_2_338.png,125,1.3x,2.0,3.0,6701,111,meters,jsons/MX_seq15_1_VE125_flipped.json,268032,441388,27,Man
5,858844,final-intermixed-textured,v2,jsons/MX_seq15_1_VE125_flipped.json,http://54.235.29.9/FacialAge/BNav_EC2/DepthDuration/MX_fS_VE_MTurk/MX_fS_HTML.html#200,200,2048,1152,2048,1152,1-12-2024,19-37-38,6,VR_target_stimuli/s49_1x_4.67_341.png,125,1x,4.67,5.0,3914,125,meters,jsons/MX_seq15_1_VE125_flipped.json,268032,441388,27,Man
6,858844,final-intermixed-textured,v2,jsons/MX_seq15_1_VE125_flipped.json,http://54.235.29.9/FacialAge/BNav_EC2/DepthDuration/MX_fS_VE_MTurk/MX_fS_HTML.html#200,200,2048,1152,2048,1152,1-12-2024,19-37-38,7,catch_stimuli/c0_BC.png,125,,,0.0,3427,125,meters,jsons/MX_seq15_1_VE125_flipped.json,268032,441388,27,Man
7,858844,final-intermixed-textured,v2,jsons/MX_seq15_1_VE125_flipped.json,http://54.235.29.9/FacialAge/BNav_EC2/DepthDuration/MX_fS_VE_MTurk/MX_fS_HTML.html#200,200,2048,1152,2048,1152,1-12-2024,19-37-38,8,VR_target_stimuli/s7_1x_1.5_255_BC.png,125,1x,1.5,3.0,3393,123,meters,jsons/MX_seq15_1_VE125_flipped.json,268032,441388,27,Man
8,858844,final-intermixed-textured,v2,jsons/MX_seq15_1_VE125_flipped.json,http://54.235.29.9/FacialAge/BNav_EC2/DepthDuration/MX_fS_VE_MTurk/MX_fS_HTML.html#200,200,2048,1152,2048,1152,1-12-2024,19-37-38,9,VR_target_stimuli/s20_0.75x_4.99_390_BC.png,125,0.75x,4.99,6.0,4595,140,meters,jsons/MX_seq15_1_VE125_flipped.json,268032,441388,27,Man
9,858844,final-intermixed-textured,v2,jsons/MX_seq15_1_VE125_flipped.json,http://54.235.29.9/FacialAge/BNav_EC2/DepthDuration/MX_fS_VE_MTurk/MX_fS_HTML.html#200,200,2048,1152,2048,1152,1-12-2024,19-37-38,10,VR_target_stimuli/s31_1.3x_4.96_342_BC.png,125,1.3x,4.96,6.0,4726,124,meters,jsons/MX_seq15_1_VE125_flipped.json,268032,441388,27,Man
10,858844,final-intermixed-textured,v2,jsons/MX_seq15_1_VE125_flipped.json,http://54.235.29.9/FacialAge/BNav_EC2/DepthDuration/MX_fS_VE_MTurk/MX_fS_HTML.html#200,200,2048,1152,2048,1152,1-12-2024,19-37-38,11,VR_target_stimuli/s33_0.75x_3.1_361.png,125,0.75x,3.1,5.0,3752,123,meters,jsons/MX_seq15_1_VE125_flipped.json,268032,441388,27,Man
11,858844,final-intermixed-textured,v2,jsons/MX_seq15_1_VE125_flipped.json,http://54.235.29.9/FacialAge/BNav_EC2/DepthDuration/MX_fS_VE_MTurk/MX_fS_HTML.html#200,200,2048,1152,2048,1152,1-12-2024,19-37-38,12,VR_target_stimuli/s52_1x_3.2_275.png,125,1x,3.2,5.0,3229,123,meters,jsons/MX_seq15_1_VE125_flipped.json,268032,441388,27,Man
12,858844,final-intermixed-textured,v2,jsons/MX_seq15_1_VE125_flipped.json,http://54.235.29.9/FacialAge/BNav_EC2/DepthDuration/MX_fS_VE_MTurk/MX_fS_HTML.html#200,200,2048,1152,2048,1152,1-12-2024,19-37-38,13,VR_target_stimuli/s32_1.3x_1.5_224.png,125,1.3x,1.5,4.0,2982,125,meters,jsons/MX_seq15_1_VE125_flipped.json,268032,441388,27,Man
13,858844,final-intermixed-textured,v2,jsons/MX_seq15_1_VE125_flipped.json,http://54.235.29.9/FacialAge/BNav_EC2/DepthDuration/MX_fS_VE_MTurk/MX_fS_HTML.html#200,200,2048,1152,2048,1152,1-12-2024,19-37-38,14,VR_target_stimuli/s18_1x_2.25_353.png,125,1x,2.25,3.0,3433,124,meters,jsons/MX_seq15_1_VE125_flipped.json,268032,441388,27,Man
14,858844,final-intermixed-textured,v2,jsons/MX_seq15_1_VE125_flipped.json,http://54.235.29.9/FacialAge/BNav_EC2/DepthDuration/MX_fS_VE_MTurk/MX_fS_HTML.html#200,200,2048,1152,2048,1152,1-12-2024,19-37-38,15,VR_target_stimuli/s39_0.75x_1_205.png,125,0.75x,1.0,2.0,4133,126,meters,jsons/MX_seq15_1_VE125_flipped.json,268032,441388,27,Man
15,858844,final-intermixed-textured,v2,jsons/MX_seq15_1_VE125_flipped.json,http://54.235.29.9/FacialAge/BNav_EC2/DepthDuration/MX_fS_VE_MTurk/MX_fS_HTML.html#200,200,2048,1152,2048,1152,1-12-2024,19-37-38,16,VR_target_stimuli/s51_1.3x_3.64_479_BC.png,125,1.3x,3.64,3.0,3196,124,meters,jsons/MX_seq15_1_VE125_flipped.json,268032,441388,27,Man
16,858844,final-intermixed-textured,v2,jsons/MX_seq15_1_VE125_flipped.json,http://54.235.29.9/FacialAge/BNav_EC2/DepthDuration/MX_fS_VE_MTurk/MX_fS_HTML.html#200,200,2048,1152,2048,1152,1-12-2024,19-37-38,17,catch_stimuli/c1_BC.png,125,,,0.0,3195,120,meters,jsons/MX_seq15_1_VE125_flipped.json,268032,441388,27,Man
17,858844,final-intermixed-textured,v2,jsons/MX_seq15_1_VE125_flipped.json,http://54.235.29.9/FacialAge/BNav_EC2/DepthDuration/MX_fS_VE_MTurk/MX_fS_HTML.html#200,200,2048,1152,2048,1152,1-12-2024,19-37-38,18,VR_target_stimuli/s43_1.3x_2.2_363.png,125,1.3x,2.2,3.0,3588,123,meters,jsons/MX_seq15_1_VE125_flipped.json,268032,441388,27,Man
18,858844,final-intermixed-textured,v2,jsons/MX_seq15_1_VE125_flipped.json,http://54.235.29.9/FacialAge/BNav_EC2/DepthDuration/MX_fS_VE_MTurk/MX_fS_HTML.html#200,200,2048,1152,2048,1152,1-12-2024,19-37-38,19,VR_target_stimuli/s24_1x_3.3_349_BC.png,125,1x,3.3,3.5,3344,126,meters,jsons/MX_seq15_1_VE125_flipped.json,268032,441388,27,Man
19,858844,final-intermixed-textured,v2,jsons/MX_seq15_1_VE125_flipped.json,http://54.235.29.9/FacialAge/BNav_EC2/DepthDuration/MX_fS_VE_MTurk/MX_fS_HTML.html#200,200,2048,1152,2048,1152,1-12-2024,19-37-38,20,VR_target_stimuli/s10_0.75x_2.7_321_BC.png,125,0.75x,2.7,4.0,3123,126,meters,jsons/MX_seq15_1_VE125_flipped.json,268032,441388,27,Man
20,858844,final-intermixed-textured,v2,jsons/MX_seq15_1_VE125_flipped.json,http://54.235.29.9/FacialAge/BNav_EC2/DepthDuration/MX_fS_VE_MTurk/MX_fS_HTML.html#200,200,2048,1152,2048,1152,1-12-2024,19-37-38,21,VR_target_stimuli/s36_1x_4.1_423.png,125,1x,4.1,4.5,3298,140,meters,jsons/MX_seq15_1_VE125_flipped.json,268032,441388,27,Man
21,858844,final-intermixed-textured,v2,jsons/MX_seq15_1_VE125_flipped.json,http://54.235.29.9/FacialAge/BNav_EC2/DepthDuration/MX_fS_VE_MTurk/MX_fS_HTML.html#200,200,2048,1152,2048,1152,1-12-2024,19-37-38,22,VR_target_stimuli/s40_1.3x_1.2_332.png,125,1.3x,1.2,1.5,5364,124,meters,jsons/MX_seq15_1_VE125_flipped.json,268032,441388,27,Man
22,858844,final-intermixed-textured,v2,jsons/MX_seq15_1_VE125_flipped.json,http://54.235.29.9/FacialAge/BNav_EC2/DepthDuration/MX_fS_VE_MTurk/MX_fS_HTML.html#200,200,2048,1152,2048,1152,1-12-2024,19-37-38,23,VR_target_stimuli/s41_0.75x_2.1_281_BC.png,125,0.75x,2.1,3.0,3256,124,meters,jsons/MX_seq15_1_VE125_flipped.json,268032,441388,27,Man
23,858844,final-intermixed-textured,v2,jsons/MX_seq15_1_VE125_flipped.json,http://54.235.29.9/FacialAge/BNav_EC2/DepthDuration/MX_fS_VE_MTurk/MX_fS_HTML.html#200,200,2048,1152,2048,1152,1-12-2024,19-37-38,24,VR_target_stimuli/s45_1.3x_3.5_377_BC.png,125,1.3x,3.5,3.5,3462,125,meters,jsons/MX_seq15_1_VE125_flipped.json,268032,441388,27,Man
24,858844,final-intermixed-textured,v2,jsons/MX_seq15_1_VE125_flipped.json,http://54.235.29.9/FacialAge/BNav_EC2/DepthDuration/MX_fS_VE_MTurk/MX_fS_HTML.html#200,200,2048,1152,2048,1152,1-12-2024,19-37-38,25,VR_target_stimuli/s23_1x_3.65_353_BC.png,125,1x,3.65,3.0,2988,125,meters,jsons/MX_seq15_1_VE125_flipped.json,268032,441388,27,Man
25,858844,final-intermixed-textured,v2,jsons/MX_seq15_1_VE125_flipped.json,http://54.235.29.9/FacialAge/BNav_EC2/DepthDuration/MX_fS_VE_MTurk/MX_fS_HTML.html#200,200,2048,1152,2048,1152,1-12-2024,19-37-38,26,catch_stimuli/c2_BC.png,125,,,0.0,2262,127,meters,jsons/MX_seq15_1_VE125_flipped.json,268032,441388,27,Man
26,858844,final-intermixed-textured,v2,jsons/MX_seq15_1_VE125_flipped.json,http://54.235.29.9/FacialAge/BNav_EC2/DepthDuration/MX_fS_VE_MTurk/MX_fS_HTML.html#200,200,2048,1152,2048,1152,1-12-2024,19-37-38,27,VR_target_stimuli/s26_0.75x_4_430.png,125,0.75x,4.0,4.0,5837,123,meters,jsons/MX_seq15_1_VE125_flipped.json,268032,441388,27,Man
27,858844,final-intermixed-textured,v2,jsons/MX_seq15_1_VE125_flipped.json,http://54.235.29.9/FacialAge/BNav_EC2/DepthDuration/MX_fS_VE_MTurk/MX_fS_HTML.html#200,200,2048,1152,2048,1152,1-12-2024,19-37-38,28,VR_target_stimuli/s12_0.75x_3.1_364_BC.png,125,0.75x,3.1,4.0,6186,124,meters,jsons/MX_seq15_1_VE125_flipped.json,268032,441388,27,Man
28,858844,final-intermixed-textured,v2,jsons/MX_seq15_1_VE125_flipped.json,http://54.235.29.9/FacialAge/BNav_EC2/DepthDuration/MX_fS_VE_MTurk/MX_fS_HTML.html#200,200,2048,1152,2048,1152,1-12-2024,19-37-38,29,VR_target_stimuli/s30_1.3x_2.3_337_BC.png,125,1.3x,2.3,4.0,3177,123,meters,jsons/MX_seq15_1_VE125_flipped.json,268032,441388,27,Man
29,858844,final-intermixed-textured,v2,jsons/MX_seq15_1_VE125_flipped.json,http://54.235.29.9/FacialAge/BNav_EC2/DepthDuration/MX_fS_VE_MTurk/MX_fS_HTML.html#200,200,2048,1152,2048,1152,1-12-2024,19-37-38,30,VR_target_stimuli/s16_1x_1_219.png,125,1x,1.0,2.0,5406,126,meters,jsons/MX_seq15_1_VE125_flipped.json,268032,441388,27,Man
30,858844,final-intermixed-textured,v2,jsons/MX_seq15_1_VE125_flipped.json,http://54.235.29.9/FacialAge/BNav_EC2/DepthDuration/MX_fS_VE_MTurk/MX_fS_HTML.html#200,200,2048,1152,2048,1152,1-12-2024,19-37-38,31,VR_target_stimuli/s17_0.75x_1.8_285.png,125,0.75x,1.8,3.5,3582,127,meters,jsons/MX_seq15_1_VE125_flipped.json,268032,441388,27,Man
31,858844,final-intermixed-textured,v2,jsons/MX_seq15_1_VE125_flipped.json,http://54.235.29.9/FacialAge/BNav_EC2/DepthDuration/MX_fS_VE_MTurk/MX_fS_HTML.html#200,200,2048,1152,2048,1152,1-12-2024,19-37-38,32,VR_target_stimuli/s5_1x_4_378_BC.png,125,1x,4.0,5.0,3212,124,meters,jsons/MX_seq15_1_VE125_flipped.json,268032,441388,27,Man
32,858844,final-intermixed-textured,v2,jsons/MX_seq15_1_VE125_flipped.json,http://54.235.29.9/FacialAge/BNav_EC2/DepthDuration/MX_fS_VE_MTurk/MX_fS_HTML.html#200,200,2048,1152,2048,1152,1-12-2024,19-37-38,33,VR_target_stimuli/s37_1.3x_3.3_555.png,125,1.3x,3.3,2.0,3071,126,meters,jsons/MX_seq15_1_VE125_flipped.json,268032,441388,27,Man
33,858844,final-intermixed-textured,v2,jsons/MX_seq15_1_VE125_flipped.json,http://54.235.29.9/FacialAge/BNav_EC2/DepthDuration/MX_fS_VE_MTurk/MX_fS_HTML.html#200,200,2048,1152,2048,1152,1-12-2024,19-37-38,34,catch_stimuli/c3_BC.png,125,,,0.0,2882,128,meters,jsons/MX_seq15_1_VE125_flipped.json,268032,441388,27,Man
34,858844,final-intermixed-textured,v2,jsons/MX_seq15_1_VE125_flipped.json,http://54.235.29.9/FacialAge/BNav_EC2/DepthDuration/MX_fS_VE_MTurk/MX_fS_HTML.html#200,200,2048,1152,2048,1152,1-12-2024,19-37-38,35,VR_target_stimuli/s46_1x_2.42_348_BC.png,125,1x,2.42,3.0,2540,111,meters,jsons/MX_seq15_1_VE125_flipped.json,268032,441388,27,Man
35,858844,final-intermixed-textured,v2,jsons/MX_seq15_1_VE125_flipped.json,http://54.235.29.9/FacialAge/BNav_EC2/DepthDuration/MX_fS_VE_MTurk/MX_fS_HTML.html#200,200,2048,1152,2048,1152,1-12-2024,19-37-38,36,VR_target_stimuli/s22_0.75x_4.29_348_BC.png,125,0.75x,4.29,7.0,5639,125,meters,jsons/MX_seq15_1_VE125_flipped.json,268032,441388,27,Man
36,858844,final-intermixed-textured,v2,jsons/MX_seq15_1_VE125_flipped.json,http://54.235.29.9/FacialAge/BNav_EC2/DepthDuration/MX_fS_VE_MTurk/MX_fS_HTML.html#200,200,2048,1152,2048,1152,1-12-2024,19-37-38,37,VR_target_stimuli/s42_1.3x_3.2_305.png,125,1.3x,3.2,5.5,4900,126,meters,jsons/MX_seq15_1_VE125_flipped.json,268032,441388,27,Man
37,858844,final-intermixed-textured,v2,jsons/MX_seq15_1_VE125_flipped.json,http://54.235.29.9/FacialAge/BNav_EC2/DepthDuration/MX_fS_VE_MTurk/MX_fS_HTML.html#200,200,2048,1152,2048,1152,1-12-2024,19-37-38,38,VR_target_stimuli/s25_1.3x_1.4_299_BC.png,125,1.3x,1.4,3.0,6662,126,meters,jsons/MX_seq15_1_VE125_flipped.json,268032,441388,27,Man
38,858844,final-intermixed-textured,v2,jsons/MX_seq15_1_VE125_flipped.json,http://54.235.29.9/FacialAge/BNav_EC2/DepthDuration/MX_fS_VE_MTurk/MX_fS_HTML.html#200,200,2048,1152,2048,1152,1-12-2024,19-37-38,39,VR_target_stimuli/s50_1x_4.53_518.png,125,1x,4.53,6.0,3799,125,meters,jsons/MX_seq15_1_VE125_flipped.json,268032,441388,27,Man
39,858844,final-intermixed-textured,v2,jsons/MX_seq15_1_VE125_flipped.json,http://54.235.29.9/FacialAge/BNav_EC2/DepthDuration/MX_fS_VE_MTurk/MX_fS_HTML.html#200,200,2048,1152,2048,1152,1-12-2024,19-37-38,40,VR_target_stimuli/s53_0.75x_1.6_403.png,125,0.75x,1.6,2.5,4377,125,meters,jsons/MX_seq15_1_VE125_flipped.json,268032,441388,27,Man
40,858844,final-intermixed-textured,v2,jsons/MX_seq15_1_VE125_flipped.json,http://54.235.29.9/FacialAge/BNav_EC2/DepthDuration/MX_fS_VE_MTurk/MX_fS_HTML.html#200,200,2048,1152,2048,1152,1-12-2024,19-37-38,41,VR_target_stimuli/s38_1x_3.55_353_BC.png,125,1x,3.55,7.0,4753,124,meters,jsons/MX_seq15_1_VE125_flipped.json,268032,441388,27,Man
41,858844,final-intermixed-textured,v2,jsons/MX_seq15_1_VE125_flipped.json,http://54.235.29.9/FacialAge/BNav_EC2/DepthDuration/MX_fS_VE_MTurk/MX_fS_HTML.html#200,200,2048,1152,2048,1152,1-12-2024,19-37-38,42,VR_target_stimuli/s9_1.3x_1.2_276.png,125,1.3x,1.2,2.5,6662,119,meters,jsons/MX_seq15_1_VE125_flipped.json,268032,441388,27,Man
42,858844,final-intermixed-textured,v2,jsons/MX_seq15_1_VE125_flipped.json,http://54.235.29.9/FacialAge/BNav_EC2/DepthDuration/MX_fS_VE_MTurk/MX_fS_HTML.html#200,200,2048,1152,2048,1152,1-12-2024,19-37-38,43,VR_target_stimuli/s44_0.75x_4.4_314_BC.png,125,0.75x,4.4,8.0,4993,125,meters,jsons/MX_seq15_1_VE125_flipped.json,268032,441388,27,Man
43,858844,final-intermixed-textured,v2,jsons/MX_seq15_1_VE125_flipped.json,http://54.235.29.9/FacialAge/BNav_EC2/DepthDuration/MX_fS_VE_MTurk/MX_fS_HTML.html#200,200,2048,1152,2048,1152,1-12-2024,19-37-38,44,VR_target_stimuli/s3_1.3x_5_390_BC.png,125,1.3x,5.0,8.0,3281,125,meters,jsons/MX_seq15_1_VE125_flipped.json,268032,441388,27,Man
44,858844,final-intermixed-textured,v2,jsons/MX_seq15_1_VE125_flipped.json,http://54.235.29.9/FacialAge/BNav_EC2/DepthDuration/MX_fS_VE_MTurk/MX_fS_HTML.html#200,200,2048,1152,2048,1152,1-12-2024,19-37-38,45,catch_stimuli/c4_BC.png,125,,,0.0,2550,125,meters,jsons/MX_seq15_1_VE125_flipped.json,268032,441388,27,Man
45,858844,final-intermixed-textured,v2,jsons/MX_seq15_1_VE125_flipped.json,http://54.235.29.9/FacialAge/BNav_EC2/DepthDuration/MX_fS_VE_MTurk/MX_fS_HTML.html#200,200,2048,1152,2048,1152,1-12-2024,19-37-38,46,VR_target_stimuli/s1_1x_1.7_262.png,125,1x,1.7,3.5,3770,125,meters,jsons/MX_seq15_1_VE125_flipped.json,268032,441388,27,Man
46,858844,final-intermixed-textured,v2,jsons/MX_seq15_1_VE125_flipped.json,http://54.235.29.9/FacialAge/BNav_EC2/DepthDuration/MX_fS_VE_MTurk/MX_fS_HTML.html#200,200,2048,1152,2048,1152,1-12-2024,19-37-38,47,VR_target_stimuli/s11_0.75x_5_359.png,125,0.75x,5.0,7.0,3475,125,meters,jsons/MX_seq15_1_VE125_flipped.json,268032,441388,27,Man
47,858844,final-intermixed-textured,v2,jsons/MX_seq15_1_VE125_flipped.json,http://54.235.29.9/FacialAge/BNav_EC2/DepthDuration/MX_fS_VE_MTurk/MX_fS_HTML.html#200,200,2048,1152,2048,1152,1-12-2024,19-37-38,48,VR_target_stimuli/s2_0.75x_2.7_384.png,125,0.75x,2.7,5.0,3730,137,meters,jsons/MX_seq15_1_VE125_flipped.json,268032,441388,27,Man
48,858844,final-intermixed-textured,v2,jsons/MX_seq15_1_VE125_flipped.json,http://54.235.29.9/FacialAge/BNav_EC2/DepthDuration/MX_fS_VE_MTurk/MX_fS_HTML.html#200,200,2048,1152,2048,1152,1-12-2024,19-37-38,49,VR_target_stimuli/s6_1.3x_2.1_298.png,125,1.3x,2.1,4.5,3875,125,meters,jsons/MX_seq15_1_VE125_flipped.json,268032,441388,27,Man
49,858844,final-intermixed-textured,v2,jsons/MX_seq15_1_VE125_flipped.json,http://54.235.29.9/FacialAge/BNav_EC2/DepthDuration/MX_fS_VE_MTurk/MX_fS_HTML.html#200,200,2048,1152,2048,1152,1-12-2024,19-37-38,50,VR_target_stimuli/s0_1x_2.6_351_BC.png,125,1x,2.6,4.0,4956,124,meters,jsons/MX_seq15_1_VE125_flipped.json,268032,441388,27,Man
50,858844,final-intermixed-textured,v2,jsons/MX_seq15_1_VE125_flipped.json,http://54.235.29.9/FacialAge/BNav_EC2/DepthDuration/MX_fS_VE_MTurk/MX_fS_HTML.html#200,200,2048,1152,2048,1152,1-12-2024,19-37-38,51,VR_target_stimuli/s34_1.3x_2.8_294_BC.png,125,1.3x,2.8,6.0,4754,125,meters,jsons/MX_seq15_1_VE125_flipped.json,268032,441388,27,Man
51,858844,final-intermixed-textured,v2,jsons/MX_seq15_1_VE125_flipped.json,http://54.235.29.9/FacialAge/BNav_EC2/DepthDuration/MX_fS_VE_MTurk/MX_fS_HTML.html#200,200,2048,1152,2048,1152,1-12-2024,19-37-38,52,VR_target_stimuli/s13_0.75x_2.4_308_BC.png,125,0.75x,2.4,4.0,3283,123,meters,jsons/MX_seq15_1_VE125_flipped.json,268032,441388,27,Man
52,858844,final-intermixed-textured,v2,jsons/MX_seq15_1_VE125_flipped.json,http://54.235.29.9/FacialAge/BNav_EC2/DepthDuration/MX_fS_VE_MTurk/MX_fS_HTML.html#200,200,2048,1152,2048,1152,1-12-2024,19-37-38,53,catch_stimuli/c5_BC.png,125,,,0.0,2602,126,meters,jsons/MX_seq15_1_VE125_flipped.json,268032,441388,27,Man
53,858844,final-intermixed-textured,v2,jsons/MX_seq15_1_VE125_flipped.json,http://54.235.29.9/FacialAge/BNav_EC2/DepthDuration/MX_fS_VE_MTurk/MX_fS_HTML.html#200,200,2048,1152,2048,1152,1-12-2024,19-37-38,54,VR_target_stimuli/s14_1x_ 3.83_357.png,125,1x,3.83,6.0,2727,126,meters,jsons/MX_seq15_1_VE125_flipped.json,268032,441388,27,Man
54,858844,final-intermixed-textured,v2,jsons/MX_seq15_1_VE125_flipped.json,http://54.235.29.9/FacialAge/BNav_EC2/DepthDuration/MX_fS_VE_MTurk/MX_fS_HTML.html#200,200,2048,1152,2048,1152,1-12-2024,19-37-38,55,VR_target_stimuli/s47_0.75x_3.45_366_BC.png,125,0.75x,3.45,4.0,3001,133,meters,jsons/MX_seq15_1_VE125_flipped.json,268032,441388,27,Man
55,858844,final-intermixed-textured,v2,jsons/MX_seq15_1_VE125_flipped.json,http://54.235.29.9/FacialAge/BNav_EC2/DepthDuration/MX_fS_VE_MTurk/MX_fS_HTML.html#200,200,2048,1152,2048,1152,1-12-2024,19-37-38,56,VR_target_stimuli/s29_1.3x_1.3_253.png,125,1.3x,1.3,2.5,3222,124,meters,jsons/MX_seq15_1_VE125_flipped.json,268032,441388,27,Man
56,858844,final-intermixed-textured,v2,jsons/MX_seq15_1_VE125_flipped.json,http://54.235.29.9/FacialAge/BNav_EC2/DepthDuration/MX_fS_VE_MTurk/MX_fS_HTML.html#200,200,2048,1152,2048,1152,1-12-2024,19-37-38,57,VR_target_stimuli/s28_1x_3.2_362.png,125,1x,3.2,4.0,4367,123,meters,jsons/MX_seq15_1_VE125_flipped.json,268032,441388,27,Man
57,858844,final-intermixed-textured,v2,jsons/MX_seq15_1_VE125_flipped.json,http://54.235.29.9/FacialAge/BNav_EC2/DepthDuration/MX_fS_VE_MTurk/MX_fS_HTML.html#200,200,2048,1152,2048,1152,1-12-2024,19-37-38,58,VR_target_stimuli/s48_1x_2.55_256_BC.png,125,1x,2.55,5.0,2280,126,meters,jsons/MX_seq15_1_VE125_flipped.json,268032,441388,27,Man
58,858844,final-intermixed-textured,v2,jsons/MX_seq15_1_VE125_flipped.json,http://54.235.29.9/FacialAge/BNav_EC2/DepthDuration/MX_fS_VE_MTurk/MX_fS_HTML.html#200,200,2048,1152,2048,1152,1-12-2024,19-37-38,59,VR_target_stimuli/s19_0.75x_1.21_257.png,125,0.75x,1.21,3.0,2259,126,meters,jsons/MX_seq15_1_VE125_flipped.json,268032,441388,27,Man
59,858844,final-intermixed-textured,v2,jsons/MX_seq15_1_VE125_flipped.json,http://54.235.29.9/FacialAge/BNav_EC2/DepthDuration/MX_fS_VE_MTurk/MX_fS_HTML.html#200,200,2048,1152,2048,1152,1-12-2024,19-37-38,60,VR_target_stimuli/s21_1.3x_4.22_384_BC.png,125,1.3x,4.22,7.0,3820,125,meters,jsons/MX_seq15_1_VE125_flipped.json,268032,441388,27,Man
