,subjID,experimentName,versionName,sequenceName,url,selected_row,windowWidth,windowHeight,screenWidth,screenHeight,startDate,startTime,trial,stimulus,duration,scale,actual_depth,depth_estimate,trial_RT,log_sceneDuration,unitSelection,seq_filepath,experimentTime,totalTime,age,gender
0,872318,final-intermixed-textured,v2,jsons/MX_seq26_0_VE125_flipped.json,http://54.235.29.9/FacialAge/BNav_EC2/DepthDuration/MX_fS_VE_MTurk/MX_fS_HTML.html#64,64,1536,703,1536,864,1-12-2024,18-17-10,1,VR_target_stimuli/s32_0.75x_1.5_213.png,125,0.75x,1.5,0,28609,120,feet,jsons/MX_seq26_0_VE125_flipped.json,399374,719673,63,Woman
1,872318,final-intermixed-textured,v2,jsons/MX_seq26_0_VE125_flipped.json,http://54.235.29.9/FacialAge/BNav_EC2/DepthDuration/MX_fS_VE_MTurk/MX_fS_HTML.html#64,64,1536,703,1536,864,1-12-2024,18-17-10,2,VR_target_stimuli/s18_1x_2.25_353_BC.png,125,1x,2.25,3,5918,123,feet,jsons/MX_seq26_0_VE125_flipped.json,399374,719673,63,Woman
2,872318,final-intermixed-textured,v2,jsons/MX_seq26_0_VE125_flipped.json,http://54.235.29.9/FacialAge/BNav_EC2/DepthDuration/MX_fS_VE_MTurk/MX_fS_HTML.html#64,64,1536,703,1536,864,1-12-2024,18-17-10,3,VR_target_stimuli/s39_1.3x_1_208_BC.png,125,1.3x,1.0,0,4730,123,feet,jsons/MX_seq26_0_VE125_flipped.json,399374,719673,63,Woman
3,872318,final-intermixed-textured,v2,jsons/MX_seq26_0_VE125_flipped.json,http://54.235.29.9/FacialAge/BNav_EC2/DepthDuration/MX_fS_VE_MTurk/MX_fS_HTML.html#64,64,1536,703,1536,864,1-12-2024,18-17-10,4,VR_target_stimuli/s51_1x_3.64_461.png,125,1x,3.64,0,4495,110,feet,jsons/MX_seq26_0_VE125_flipped.json,399374,719673,63,Woman
4,872318,final-intermixed-textured,v2,jsons/MX_seq26_0_VE125_flipped.json,http://54.235.29.9/FacialAge/BNav_EC2/DepthDuration/MX_fS_VE_MTurk/MX_fS_HTML.html#64,64,1536,703,1536,864,1-12-2024,18-17-10,5,VR_target_stimuli/s43_0.75x_2.2_348_BC.png,125,0.75x,2.2,0,4871,117,feet,jsons/MX_seq26_0_VE125_flipped.json,399374,719673,63,Woman
5,872318,final-intermixed-textured,v2,jsons/MX_seq26_0_VE125_flipped.json,http://54.235.29.9/FacialAge/BNav_EC2/DepthDuration/MX_fS_VE_MTurk/MX_fS_HTML.html#64,64,1536,703,1536,864,1-12-2024,18-17-10,6,VR_target_stimuli/s24_1.3x_3.3_352.png,125,1.3x,3.3,0,29309,117,feet,jsons/MX_seq26_0_VE125_flipped.json,399374,719673,63,Woman
6,872318,final-intermixed-textured,v2,jsons/MX_seq26_0_VE125_flipped.json,http://54.235.29.9/FacialAge/BNav_EC2/DepthDuration/MX_fS_VE_MTurk/MX_fS_HTML.html#64,64,1536,703,1536,864,1-12-2024,18-17-10,7,catch_stimuli/c0_BC.png,125,,,0,4104,127,feet,jsons/MX_seq26_0_VE125_flipped.json,399374,719673,63,Woman
7,872318,final-intermixed-textured,v2,jsons/MX_seq26_0_VE125_flipped.json,http://54.235.29.9/FacialAge/BNav_EC2/DepthDuration/MX_fS_VE_MTurk/MX_fS_HTML.html#64,64,1536,703,1536,864,1-12-2024,18-17-10,8,VR_target_stimuli/s10_1.3x_2.7_325.png,125,1.3x,2.7,0,4112,112,feet,jsons/MX_seq26_0_VE125_flipped.json,399374,719673,63,Woman
8,872318,final-intermixed-textured,v2,jsons/MX_seq26_0_VE125_flipped.json,http://54.235.29.9/FacialAge/BNav_EC2/DepthDuration/MX_fS_VE_MTurk/MX_fS_HTML.html#64,64,1536,703,1536,864,1-12-2024,18-17-10,9,VR_target_stimuli/s36_1x_4.1_423_BC.png,125,1x,4.1,0,5233,130,feet,jsons/MX_seq26_0_VE125_flipped.json,399374,719673,63,Woman
9,872318,final-intermixed-textured,v2,jsons/MX_seq26_0_VE125_flipped.json,http://54.235.29.9/FacialAge/BNav_EC2/DepthDuration/MX_fS_VE_MTurk/MX_fS_HTML.html#64,64,1536,703,1536,864,1-12-2024,18-17-10,10,VR_target_stimuli/s40_0.75x_1.2_308_BC.png,125,0.75x,1.2,0,5587,125,feet,jsons/MX_seq26_0_VE125_flipped.json,399374,719673,63,Woman
10,872318,final-intermixed-textured,v2,jsons/MX_seq26_0_VE125_flipped.json,http://54.235.29.9/FacialAge/BNav_EC2/DepthDuration/MX_fS_VE_MTurk/MX_fS_HTML.html#64,64,1536,703,1536,864,1-12-2024,18-17-10,11,VR_target_stimuli/s41_1x_2.1_286.png,125,1x,2.1,0,3872,132,feet,jsons/MX_seq26_0_VE125_flipped.json,399374,719673,63,Woman
11,872318,final-intermixed-textured,v2,jsons/MX_seq26_0_VE125_flipped.json,http://54.235.29.9/FacialAge/BNav_EC2/DepthDuration/MX_fS_VE_MTurk/MX_fS_HTML.html#64,64,1536,703,1536,864,1-12-2024,18-17-10,12,VR_target_stimuli/s45_1.3x_3.5_377_BC.png,125,1.3x,3.5,0,4382,125,feet,jsons/MX_seq26_0_VE125_flipped.json,399374,719673,63,Woman
12,872318,final-intermixed-textured,v2,jsons/MX_seq26_0_VE125_flipped.json,http://54.235.29.9/FacialAge/BNav_EC2/DepthDuration/MX_fS_VE_MTurk/MX_fS_HTML.html#64,64,1536,703,1536,864,1-12-2024,18-17-10,13,VR_target_stimuli/s23_0.75x_3.65_351.png,125,0.75x,3.65,0,4325,122,feet,jsons/MX_seq26_0_VE125_flipped.json,399374,719673,63,Woman
13,872318,final-intermixed-textured,v2,jsons/MX_seq26_0_VE125_flipped.json,http://54.235.29.9/FacialAge/BNav_EC2/DepthDuration/MX_fS_VE_MTurk/MX_fS_HTML.html#64,64,1536,703,1536,864,1-12-2024,18-17-10,14,VR_target_stimuli/s26_1.3x_4_441.png,125,1.3x,4.0,0,4453,126,feet,jsons/MX_seq26_0_VE125_flipped.json,399374,719673,63,Woman
14,872318,final-intermixed-textured,v2,jsons/MX_seq26_0_VE125_flipped.json,http://54.235.29.9/FacialAge/BNav_EC2/DepthDuration/MX_fS_VE_MTurk/MX_fS_HTML.html#64,64,1536,703,1536,864,1-12-2024,18-17-10,15,VR_target_stimuli/s12_1x_3.1_372_BC.png,125,1x,3.1,0,4628,120,feet,jsons/MX_seq26_0_VE125_flipped.json,399374,719673,63,Woman
15,872318,final-intermixed-textured,v2,jsons/MX_seq26_0_VE125_flipped.json,http://54.235.29.9/FacialAge/BNav_EC2/DepthDuration/MX_fS_VE_MTurk/MX_fS_HTML.html#64,64,1536,703,1536,864,1-12-2024,18-17-10,16,VR_target_stimuli/s30_0.75x_2.3_332_BC.png,125,0.75x,2.3,10,7668,127,feet,jsons/MX_seq26_0_VE125_flipped.json,399374,719673,63,Woman
16,872318,final-intermixed-textured,v2,jsons/MX_seq26_0_VE125_flipped.json,http://54.235.29.9/FacialAge/BNav_EC2/DepthDuration/MX_fS_VE_MTurk/MX_fS_HTML.html#64,64,1536,703,1536,864,1-12-2024,18-17-10,17,catch_stimuli/c1_BC.png,125,,,0,4179,122,feet,jsons/MX_seq26_0_VE125_flipped.json,399374,719673,63,Woman
17,872318,final-intermixed-textured,v2,jsons/MX_seq26_0_VE125_flipped.json,http://54.235.29.9/FacialAge/BNav_EC2/DepthDuration/MX_fS_VE_MTurk/MX_fS_HTML.html#64,64,1536,703,1536,864,1-12-2024,18-17-10,18,VR_target_stimuli/s16_0.75x_1_217.png,125,0.75x,1.0,0,4141,119,feet,jsons/MX_seq26_0_VE125_flipped.json,399374,719673,63,Woman
18,872318,final-intermixed-textured,v2,jsons/MX_seq26_0_VE125_flipped.json,http://54.235.29.9/FacialAge/BNav_EC2/DepthDuration/MX_fS_VE_MTurk/MX_fS_HTML.html#64,64,1536,703,1536,864,1-12-2024,18-17-10,19,VR_target_stimuli/s17_1.3x_1.8_300_BC.png,125,1.3x,1.8,0,4296,133,feet,jsons/MX_seq26_0_VE125_flipped.json,399374,719673,63,Woman
19,872318,final-intermixed-textured,v2,jsons/MX_seq26_0_VE125_flipped.json,http://54.235.29.9/FacialAge/BNav_EC2/DepthDuration/MX_fS_VE_MTurk/MX_fS_HTML.html#64,64,1536,703,1536,864,1-12-2024,18-17-10,20,VR_target_stimuli/s5_1x_4_378.png,125,1x,4.0,5,5482,122,feet,jsons/MX_seq26_0_VE125_flipped.json,399374,719673,63,Woman
20,872318,final-intermixed-textured,v2,jsons/MX_seq26_0_VE125_flipped.json,http://54.235.29.9/FacialAge/BNav_EC2/DepthDuration/MX_fS_VE_MTurk/MX_fS_HTML.html#64,64,1536,703,1536,864,1-12-2024,18-17-10,21,VR_target_stimuli/s37_1.3x_3.3_555_BC.png,125,1.3x,3.3,0,4849,119,feet,jsons/MX_seq26_0_VE125_flipped.json,399374,719673,63,Woman
21,872318,final-intermixed-textured,v2,jsons/MX_seq26_0_VE125_flipped.json,http://54.235.29.9/FacialAge/BNav_EC2/DepthDuration/MX_fS_VE_MTurk/MX_fS_HTML.html#64,64,1536,703,1536,864,1-12-2024,18-17-10,22,VR_target_stimuli/s46_0.75x_2.42_343_BC.png,125,0.75x,2.42,0,4036,124,feet,jsons/MX_seq26_0_VE125_flipped.json,399374,719673,63,Woman
22,872318,final-intermixed-textured,v2,jsons/MX_seq26_0_VE125_flipped.json,http://54.235.29.9/FacialAge/BNav_EC2/DepthDuration/MX_fS_VE_MTurk/MX_fS_HTML.html#64,64,1536,703,1536,864,1-12-2024,18-17-10,23,VR_target_stimuli/s22_1x_4.29_354.png,125,1x,4.29,0,4394,120,feet,jsons/MX_seq26_0_VE125_flipped.json,399374,719673,63,Woman
23,872318,final-intermixed-textured,v2,jsons/MX_seq26_0_VE125_flipped.json,http://54.235.29.9/FacialAge/BNav_EC2/DepthDuration/MX_fS_VE_MTurk/MX_fS_HTML.html#64,64,1536,703,1536,864,1-12-2024,18-17-10,24,VR_target_stimuli/s42_0.75x_3.2_301.png,125,0.75x,3.2,7,5795,124,feet,jsons/MX_seq26_0_VE125_flipped.json,399374,719673,63,Woman
24,872318,final-intermixed-textured,v2,jsons/MX_seq26_0_VE125_flipped.json,http://54.235.29.9/FacialAge/BNav_EC2/DepthDuration/MX_fS_VE_MTurk/MX_fS_HTML.html#64,64,1536,703,1536,864,1-12-2024,18-17-10,25,VR_target_stimuli/s25_1.3x_1.4_299.png,125,1.3x,1.4,0,5221,123,feet,jsons/MX_seq26_0_VE125_flipped.json,399374,719673,63,Woman
25,872318,final-intermixed-textured,v2,jsons/MX_seq26_0_VE125_flipped.json,http://54.235.29.9/FacialAge/BNav_EC2/DepthDuration/MX_fS_VE_MTurk/MX_fS_HTML.html#64,64,1536,703,1536,864,1-12-2024,18-17-10,26,catch_stimuli/c2_BC.png,125,,,0,4147,124,feet,jsons/MX_seq26_0_VE125_flipped.json,399374,719673,63,Woman
26,872318,final-intermixed-textured,v2,jsons/MX_seq26_0_VE125_flipped.json,http://54.235.29.9/FacialAge/BNav_EC2/DepthDuration/MX_fS_VE_MTurk/MX_fS_HTML.html#64,64,1536,703,1536,864,1-12-2024,18-17-10,27,VR_target_stimuli/s50_1x_4.53_518_BC.png,125,1x,4.53,0,3766,113,feet,jsons/MX_seq26_0_VE125_flipped.json,399374,719673,63,Woman
27,872318,final-intermixed-textured,v2,jsons/MX_seq26_0_VE125_flipped.json,http://54.235.29.9/FacialAge/BNav_EC2/DepthDuration/MX_fS_VE_MTurk/MX_fS_HTML.html#64,64,1536,703,1536,864,1-12-2024,18-17-10,28,VR_target_stimuli/s53_1x_1.6_387_BC.png,125,1x,1.6,0,4028,125,feet,jsons/MX_seq26_0_VE125_flipped.json,399374,719673,63,Woman
28,872318,final-intermixed-textured,v2,jsons/MX_seq26_0_VE125_flipped.json,http://54.235.29.9/FacialAge/BNav_EC2/DepthDuration/MX_fS_VE_MTurk/MX_fS_HTML.html#64,64,1536,703,1536,864,1-12-2024,18-17-10,29,VR_target_stimuli/s38_0.75x_3.55_346.png,125,0.75x,3.55,6,6372,123,feet,jsons/MX_seq26_0_VE125_flipped.json,399374,719673,63,Woman
29,872318,final-intermixed-textured,v2,jsons/MX_seq26_0_VE125_flipped.json,http://54.235.29.9/FacialAge/BNav_EC2/DepthDuration/MX_fS_VE_MTurk/MX_fS_HTML.html#64,64,1536,703,1536,864,1-12-2024,18-17-10,30,VR_target_stimuli/s9_1.3x_1.2_276.png,125,1.3x,1.2,0,9060,117,feet,jsons/MX_seq26_0_VE125_flipped.json,399374,719673,63,Woman
30,872318,final-intermixed-textured,v2,jsons/MX_seq26_0_VE125_flipped.json,http://54.235.29.9/FacialAge/BNav_EC2/DepthDuration/MX_fS_VE_MTurk/MX_fS_HTML.html#64,64,1536,703,1536,864,1-12-2024,18-17-10,31,VR_target_stimuli/s44_1x_4.4_317.png,125,1x,4.4,3,4971,128,feet,jsons/MX_seq26_0_VE125_flipped.json,399374,719673,63,Woman
31,872318,final-intermixed-textured,v2,jsons/MX_seq26_0_VE125_flipped.json,http://54.235.29.9/FacialAge/BNav_EC2/DepthDuration/MX_fS_VE_MTurk/MX_fS_HTML.html#64,64,1536,703,1536,864,1-12-2024,18-17-10,32,VR_target_stimuli/s3_1.3x_5_390_BC.png,125,1.3x,5.0,4,7763,122,feet,jsons/MX_seq26_0_VE125_flipped.json,399374,719673,63,Woman
32,872318,final-intermixed-textured,v2,jsons/MX_seq26_0_VE125_flipped.json,http://54.235.29.9/FacialAge/BNav_EC2/DepthDuration/MX_fS_VE_MTurk/MX_fS_HTML.html#64,64,1536,703,1536,864,1-12-2024,18-17-10,33,VR_target_stimuli/s1_0.75x_1.7_265_BC.png,125,0.75x,1.7,0,4651,125,feet,jsons/MX_seq26_0_VE125_flipped.json,399374,719673,63,Woman
33,872318,final-intermixed-textured,v2,jsons/MX_seq26_0_VE125_flipped.json,http://54.235.29.9/FacialAge/BNav_EC2/DepthDuration/MX_fS_VE_MTurk/MX_fS_HTML.html#64,64,1536,703,1536,864,1-12-2024,18-17-10,34,catch_stimuli/c3_BC.png,125,,,0,3950,122,feet,jsons/MX_seq26_0_VE125_flipped.json,399374,719673,63,Woman
34,872318,final-intermixed-textured,v2,jsons/MX_seq26_0_VE125_flipped.json,http://54.235.29.9/FacialAge/BNav_EC2/DepthDuration/MX_fS_VE_MTurk/MX_fS_HTML.html#64,64,1536,703,1536,864,1-12-2024,18-17-10,35,VR_target_stimuli/s11_1.3x_5_363.png,125,1.3x,5.0,0,4892,133,feet,jsons/MX_seq26_0_VE125_flipped.json,399374,719673,63,Woman
35,872318,final-intermixed-textured,v2,jsons/MX_seq26_0_VE125_flipped.json,http://54.235.29.9/FacialAge/BNav_EC2/DepthDuration/MX_fS_VE_MTurk/MX_fS_HTML.html#64,64,1536,703,1536,864,1-12-2024,18-17-10,36,VR_target_stimuli/s2_1x_2.7_390.png,125,1x,2.7,0,4179,130,feet,jsons/MX_seq26_0_VE125_flipped.json,399374,719673,63,Woman
36,872318,final-intermixed-textured,v2,jsons/MX_seq26_0_VE125_flipped.json,http://54.235.29.9/FacialAge/BNav_EC2/DepthDuration/MX_fS_VE_MTurk/MX_fS_HTML.html#64,64,1536,703,1536,864,1-12-2024,18-17-10,37,VR_target_stimuli/s6_0.75x_2.1_290_BC.png,125,0.75x,2.1,5,7622,121,feet,jsons/MX_seq26_0_VE125_flipped.json,399374,719673,63,Woman
37,872318,final-intermixed-textured,v2,jsons/MX_seq26_0_VE125_flipped.json,http://54.235.29.9/FacialAge/BNav_EC2/DepthDuration/MX_fS_VE_MTurk/MX_fS_HTML.html#64,64,1536,703,1536,864,1-12-2024,18-17-10,38,VR_target_stimuli/s0_0.75x_2.6_345.png,125,0.75x,2.6,6,5986,132,feet,jsons/MX_seq26_0_VE125_flipped.json,399374,719673,63,Woman
38,872318,final-intermixed-textured,v2,jsons/MX_seq26_0_VE125_flipped.json,http://54.235.29.9/FacialAge/BNav_EC2/DepthDuration/MX_fS_VE_MTurk/MX_fS_HTML.html#64,64,1536,703,1536,864,1-12-2024,18-17-10,39,VR_target_stimuli/s34_1.3x_2.8_294_BC.png,125,1.3x,2.8,8,6715,134,feet,jsons/MX_seq26_0_VE125_flipped.json,399374,719673,63,Woman
39,872318,final-intermixed-textured,v2,jsons/MX_seq26_0_VE125_flipped.json,http://54.235.29.9/FacialAge/BNav_EC2/DepthDuration/MX_fS_VE_MTurk/MX_fS_HTML.html#64,64,1536,703,1536,864,1-12-2024,18-17-10,40,VR_target_stimuli/s13_1x_2.4_310_BC.png,125,1x,2.4,4,7450,118,feet,jsons/MX_seq26_0_VE125_flipped.json,399374,719673,63,Woman
40,872318,final-intermixed-textured,v2,jsons/MX_seq26_0_VE125_flipped.json,http://54.235.29.9/FacialAge/BNav_EC2/DepthDuration/MX_fS_VE_MTurk/MX_fS_HTML.html#64,64,1536,703,1536,864,1-12-2024,18-17-10,41,VR_target_stimuli/s14_1.3x_3.83_359_BC.png,125,1.3x,3.83,9,8636,118,feet,jsons/MX_seq26_0_VE125_flipped.json,399374,719673,63,Woman
41,872318,final-intermixed-textured,v2,jsons/MX_seq26_0_VE125_flipped.json,http://54.235.29.9/FacialAge/BNav_EC2/DepthDuration/MX_fS_VE_MTurk/MX_fS_HTML.html#64,64,1536,703,1536,864,1-12-2024,18-17-10,42,VR_target_stimuli/s47_0.75x_3.45_366.png,125,0.75x,3.45,8,6029,130,feet,jsons/MX_seq26_0_VE125_flipped.json,399374,719673,63,Woman
42,872318,final-intermixed-textured,v2,jsons/MX_seq26_0_VE125_flipped.json,http://54.235.29.9/FacialAge/BNav_EC2/DepthDuration/MX_fS_VE_MTurk/MX_fS_HTML.html#64,64,1536,703,1536,864,1-12-2024,18-17-10,43,VR_target_stimuli/s29_1x_1.3_250.png,125,1x,1.3,6,6440,124,feet,jsons/MX_seq26_0_VE125_flipped.json,399374,719673,63,Woman
43,872318,final-intermixed-textured,v2,jsons/MX_seq26_0_VE125_flipped.json,http://54.235.29.9/FacialAge/BNav_EC2/DepthDuration/MX_fS_VE_MTurk/MX_fS_HTML.html#64,64,1536,703,1536,864,1-12-2024,18-17-10,44,VR_target_stimuli/s28_0.75x_3.2_357_BC.png,125,0.75x,3.2,0,4989,125,feet,jsons/MX_seq26_0_VE125_flipped.json,399374,719673,63,Woman
44,872318,final-intermixed-textured,v2,jsons/MX_seq26_0_VE125_flipped.json,http://54.235.29.9/FacialAge/BNav_EC2/DepthDuration/MX_fS_VE_MTurk/MX_fS_HTML.html#64,64,1536,703,1536,864,1-12-2024,18-17-10,45,catch_stimuli/c4_BC.png,125,,,0,3906,137,feet,jsons/MX_seq26_0_VE125_flipped.json,399374,719673,63,Woman
45,872318,final-intermixed-textured,v2,jsons/MX_seq26_0_VE125_flipped.json,http://54.235.29.9/FacialAge/BNav_EC2/DepthDuration/MX_fS_VE_MTurk/MX_fS_HTML.html#64,64,1536,703,1536,864,1-12-2024,18-17-10,46,VR_target_stimuli/s48_1.3x_2.55_255.png,125,1.3x,2.55,2,8926,126,feet,jsons/MX_seq26_0_VE125_flipped.json,399374,719673,63,Woman
46,872318,final-intermixed-textured,v2,jsons/MX_seq26_0_VE125_flipped.json,http://54.235.29.9/FacialAge/BNav_EC2/DepthDuration/MX_fS_VE_MTurk/MX_fS_HTML.html#64,64,1536,703,1536,864,1-12-2024,18-17-10,47,VR_target_stimuli/s19_1x_1.21_263_BC.png,125,1x,1.21,5,8259,125,feet,jsons/MX_seq26_0_VE125_flipped.json,399374,719673,63,Woman
47,872318,final-intermixed-textured,v2,jsons/MX_seq26_0_VE125_flipped.json,http://54.235.29.9/FacialAge/BNav_EC2/DepthDuration/MX_fS_VE_MTurk/MX_fS_HTML.html#64,64,1536,703,1536,864,1-12-2024,18-17-10,48,VR_target_stimuli/s21_1x_4.22_379.png,125,1x,4.22,0,3279,117,feet,jsons/MX_seq26_0_VE125_flipped.json,399374,719673,63,Woman
48,872318,final-intermixed-textured,v2,jsons/MX_seq26_0_VE125_flipped.json,http://54.235.29.9/FacialAge/BNav_EC2/DepthDuration/MX_fS_VE_MTurk/MX_fS_HTML.html#64,64,1536,703,1536,864,1-12-2024,18-17-10,49,VR_target_stimuli/s8_0.75x_3.1_325_BC.png,125,0.75x,3.1,7,8095,120,feet,jsons/MX_seq26_0_VE125_flipped.json,399374,719673,63,Woman
49,872318,final-intermixed-textured,v2,jsons/MX_seq26_0_VE125_flipped.json,http://54.235.29.9/FacialAge/BNav_EC2/DepthDuration/MX_fS_VE_MTurk/MX_fS_HTML.html#64,64,1536,703,1536,864,1-12-2024,18-17-10,50,VR_target_stimuli/s27_1.3x_1.76_250_BC.png,125,1.3x,1.76,9,5691,116,feet,jsons/MX_seq26_0_VE125_flipped.json,399374,719673,63,Woman
50,872318,final-intermixed-textured,v2,jsons/MX_seq26_0_VE125_flipped.json,http://54.235.29.9/FacialAge/BNav_EC2/DepthDuration/MX_fS_VE_MTurk/MX_fS_HTML.html#64,64,1536,703,1536,864,1-12-2024,18-17-10,51,VR_target_stimuli/s15_0.75x_4.2_388.png,125,0.75x,4.2,3,5505,123,feet,jsons/MX_seq26_0_VE125_flipped.json,399374,719673,63,Woman
51,872318,final-intermixed-textured,v2,jsons/MX_seq26_0_VE125_flipped.json,http://54.235.29.9/FacialAge/BNav_EC2/DepthDuration/MX_fS_VE_MTurk/MX_fS_HTML.html#64,64,1536,703,1536,864,1-12-2024,18-17-10,52,VR_target_stimuli/s4_1x_1.4_313_BC.png,125,1x,1.4,0,4381,117,feet,jsons/MX_seq26_0_VE125_flipped.json,399374,719673,63,Woman
52,872318,final-intermixed-textured,v2,jsons/MX_seq26_0_VE125_flipped.json,http://54.235.29.9/FacialAge/BNav_EC2/DepthDuration/MX_fS_VE_MTurk/MX_fS_HTML.html#64,64,1536,703,1536,864,1-12-2024,18-17-10,53,catch_stimuli/c5_BC.png,125,,,0,3959,123,feet,jsons/MX_seq26_0_VE125_flipped.json,399374,719673,63,Woman
53,872318,final-intermixed-textured,v2,jsons/MX_seq26_0_VE125_flipped.json,http://54.235.29.9/FacialAge/BNav_EC2/DepthDuration/MX_fS_VE_MTurk/MX_fS_HTML.html#64,64,1536,703,1536,864,1-12-2024,18-17-10,54,VR_target_stimuli/s35_1.3x_2_338.png,125,1.3x,2.0,0,3777,127,feet,jsons/MX_seq26_0_VE125_flipped.json,399374,719673,63,Woman
54,872318,final-intermixed-textured,v2,jsons/MX_seq26_0_VE125_flipped.json,http://54.235.29.9/FacialAge/BNav_EC2/DepthDuration/MX_fS_VE_MTurk/MX_fS_HTML.html#64,64,1536,703,1536,864,1-12-2024,18-17-10,55,VR_target_stimuli/s49_1x_4.67_341_BC.png,125,1x,4.67,5,4899,122,feet,jsons/MX_seq26_0_VE125_flipped.json,399374,719673,63,Woman
55,872318,final-intermixed-textured,v2,jsons/MX_seq26_0_VE125_flipped.json,http://54.235.29.9/FacialAge/BNav_EC2/DepthDuration/MX_fS_VE_MTurk/MX_fS_HTML.html#64,64,1536,703,1536,864,1-12-2024,18-17-10,56,VR_target_stimuli/s7_0.75x_1.5_253.png,125,0.75x,1.5,9,5410,120,feet,jsons/MX_seq26_0_VE125_flipped.json,399374,719673,63,Woman
56,872318,final-intermixed-textured,v2,jsons/MX_seq26_0_VE125_flipped.json,http://54.235.29.9/FacialAge/BNav_EC2/DepthDuration/MX_fS_VE_MTurk/MX_fS_HTML.html#64,64,1536,703,1536,864,1-12-2024,18-17-10,57,VR_target_stimuli/s20_1.3x_4.99_412.png,125,1.3x,4.99,5,7267,129,feet,jsons/MX_seq26_0_VE125_flipped.json,399374,719673,63,Woman
57,872318,final-intermixed-textured,v2,jsons/MX_seq26_0_VE125_flipped.json,http://54.235.29.9/FacialAge/BNav_EC2/DepthDuration/MX_fS_VE_MTurk/MX_fS_HTML.html#64,64,1536,703,1536,864,1-12-2024,18-17-10,58,VR_target_stimuli/s31_1.3x_4.96_342_BC.png,125,1.3x,4.96,9,4691,121,feet,jsons/MX_seq26_0_VE125_flipped.json,399374,719673,63,Woman
58,872318,final-intermixed-textured,v2,jsons/MX_seq26_0_VE125_flipped.json,http://54.235.29.9/FacialAge/BNav_EC2/DepthDuration/MX_fS_VE_MTurk/MX_fS_HTML.html#64,64,1536,703,1536,864,1-12-2024,18-17-10,59,VR_target_stimuli/s33_1x_3.1_366.png,125,1x,3.1,7,6461,112,feet,jsons/MX_seq26_0_VE125_flipped.json,399374,719673,63,Woman
59,872318,final-intermixed-textured,v2,jsons/MX_seq26_0_VE125_flipped.json,http://54.235.29.9/FacialAge/BNav_EC2/DepthDuration/MX_fS_VE_MTurk/MX_fS_HTML.html#64,64,1536,703,1536,864,1-12-2024,18-17-10,60,VR_target_stimuli/s52_0.75x_3.2_270_BC.png,125,0.75x,3.2,9,4030,126,feet,jsons/MX_seq26_0_VE125_flipped.json,399374,719673,63,Woman
