,subjID,experimentName,versionName,sequenceName,url,selected_row,windowWidth,windowHeight,screenWidth,screenHeight,startDate,startTime,trial,stimulus,duration,scale,actual_depth,depth_estimate,trial_RT,log_sceneDuration,unitSelection,seq_filepath,experimentTime,totalTime,age,gender
0,876498,final-intermixed-textured,v2,jsons/MX_seq39_1_VE125_flipped.json,http://54.235.29.9/FacialAge/BNav_EC2/DepthDuration/MX_fS_VE_MTurk/MX_fS_HTML.html#105,105,1920,953,1920,1080,1-12-2024,14-46-58,1,VR_target_stimuli/s12_1.3x_3.1_375_BC.png,125,1.3x,3.1,3,3946,128,meters,jsons/MX_seq39_1_VE125_flipped.json,218924,424228,38,Man
1,876498,final-intermixed-textured,v2,jsons/MX_seq39_1_VE125_flipped.json,http://54.235.29.9/FacialAge/BNav_EC2/DepthDuration/MX_fS_VE_MTurk/MX_fS_HTML.html#105,105,1920,953,1920,1080,1-12-2024,14-46-58,2,VR_target_stimuli/s30_0.75x_2.3_332_BC.png,125,0.75x,2.3,2,6470,112,meters,jsons/MX_seq39_1_VE125_flipped.json,218924,424228,38,Man
2,876498,final-intermixed-textured,v2,jsons/MX_seq39_1_VE125_flipped.json,http://54.235.29.9/FacialAge/BNav_EC2/DepthDuration/MX_fS_VE_MTurk/MX_fS_HTML.html#105,105,1920,953,1920,1080,1-12-2024,14-46-58,3,VR_target_stimuli/s16_1x_1_219.png,125,1x,1.0,1,5218,123,meters,jsons/MX_seq39_1_VE125_flipped.json,218924,424228,38,Man
3,876498,final-intermixed-textured,v2,jsons/MX_seq39_1_VE125_flipped.json,http://54.235.29.9/FacialAge/BNav_EC2/DepthDuration/MX_fS_VE_MTurk/MX_fS_HTML.html#105,105,1920,953,1920,1080,1-12-2024,14-46-58,4,VR_target_stimuli/s17_0.75x_1.8_285.png,125,0.75x,1.8,2,2283,128,meters,jsons/MX_seq39_1_VE125_flipped.json,218924,424228,38,Man
4,876498,final-intermixed-textured,v2,jsons/MX_seq39_1_VE125_flipped.json,http://54.235.29.9/FacialAge/BNav_EC2/DepthDuration/MX_fS_VE_MTurk/MX_fS_HTML.html#105,105,1920,953,1920,1080,1-12-2024,14-46-58,5,VR_target_stimuli/s5_1.3x_4_393.png,125,1.3x,4.0,2,3790,128,meters,jsons/MX_seq39_1_VE125_flipped.json,218924,424228,38,Man
5,876498,final-intermixed-textured,v2,jsons/MX_seq39_1_VE125_flipped.json,http://54.235.29.9/FacialAge/BNav_EC2/DepthDuration/MX_fS_VE_MTurk/MX_fS_HTML.html#105,105,1920,953,1920,1080,1-12-2024,14-46-58,6,VR_target_stimuli/s37_1x_3.3_563_BC.png,125,1x,3.3,2,3462,125,meters,jsons/MX_seq39_1_VE125_flipped.json,218924,424228,38,Man
6,876498,final-intermixed-textured,v2,jsons/MX_seq39_1_VE125_flipped.json,http://54.235.29.9/FacialAge/BNav_EC2/DepthDuration/MX_fS_VE_MTurk/MX_fS_HTML.html#105,105,1920,953,1920,1080,1-12-2024,14-46-58,7,catch_stimuli/c0_BC.png,125,,,1,2468,132,meters,jsons/MX_seq39_1_VE125_flipped.json,218924,424228,38,Man
7,876498,final-intermixed-textured,v2,jsons/MX_seq39_1_VE125_flipped.json,http://54.235.29.9/FacialAge/BNav_EC2/DepthDuration/MX_fS_VE_MTurk/MX_fS_HTML.html#105,105,1920,953,1920,1080,1-12-2024,14-46-58,8,VR_target_stimuli/s46_1x_2.42_348_BC.png,125,1x,2.42,2,2641,128,meters,jsons/MX_seq39_1_VE125_flipped.json,218924,424228,38,Man
8,876498,final-intermixed-textured,v2,jsons/MX_seq39_1_VE125_flipped.json,http://54.235.29.9/FacialAge/BNav_EC2/DepthDuration/MX_fS_VE_MTurk/MX_fS_HTML.html#105,105,1920,953,1920,1080,1-12-2024,14-46-58,9,VR_target_stimuli/s22_0.75x_4.29_348.png,125,0.75x,4.29,3,2432,113,meters,jsons/MX_seq39_1_VE125_flipped.json,218924,424228,38,Man
9,876498,final-intermixed-textured,v2,jsons/MX_seq39_1_VE125_flipped.json,http://54.235.29.9/FacialAge/BNav_EC2/DepthDuration/MX_fS_VE_MTurk/MX_fS_HTML.html#105,105,1920,953,1920,1080,1-12-2024,14-46-58,10,VR_target_stimuli/s42_1.3x_3.2_305_BC.png,125,1.3x,3.2,3,2262,137,meters,jsons/MX_seq39_1_VE125_flipped.json,218924,424228,38,Man
10,876498,final-intermixed-textured,v2,jsons/MX_seq39_1_VE125_flipped.json,http://54.235.29.9/FacialAge/BNav_EC2/DepthDuration/MX_fS_VE_MTurk/MX_fS_HTML.html#105,105,1920,953,1920,1080,1-12-2024,14-46-58,11,VR_target_stimuli/s25_0.75x_1.4_281_BC.png,125,0.75x,1.4,2,2752,126,meters,jsons/MX_seq39_1_VE125_flipped.json,218924,424228,38,Man
11,876498,final-intermixed-textured,v2,jsons/MX_seq39_1_VE125_flipped.json,http://54.235.29.9/FacialAge/BNav_EC2/DepthDuration/MX_fS_VE_MTurk/MX_fS_HTML.html#105,105,1920,953,1920,1080,1-12-2024,14-46-58,12,VR_target_stimuli/s50_1x_4.53_518.png,125,1x,4.53,2,2070,127,meters,jsons/MX_seq39_1_VE125_flipped.json,218924,424228,38,Man
12,876498,final-intermixed-textured,v2,jsons/MX_seq39_1_VE125_flipped.json,http://54.235.29.9/FacialAge/BNav_EC2/DepthDuration/MX_fS_VE_MTurk/MX_fS_HTML.html#105,105,1920,953,1920,1080,1-12-2024,14-46-58,13,VR_target_stimuli/s53_1.3x_1.6_355.png,125,1.3x,1.6,1,2099,127,meters,jsons/MX_seq39_1_VE125_flipped.json,218924,424228,38,Man
13,876498,final-intermixed-textured,v2,jsons/MX_seq39_1_VE125_flipped.json,http://54.235.29.9/FacialAge/BNav_EC2/DepthDuration/MX_fS_VE_MTurk/MX_fS_HTML.html#105,105,1920,953,1920,1080,1-12-2024,14-46-58,14,VR_target_stimuli/s38_1x_3.55_353.png,125,1x,3.55,3,2316,122,meters,jsons/MX_seq39_1_VE125_flipped.json,218924,424228,38,Man
14,876498,final-intermixed-textured,v2,jsons/MX_seq39_1_VE125_flipped.json,http://54.235.29.9/FacialAge/BNav_EC2/DepthDuration/MX_fS_VE_MTurk/MX_fS_HTML.html#105,105,1920,953,1920,1080,1-12-2024,14-46-58,15,VR_target_stimuli/s9_0.75x_1.2_260_BC.png,125,0.75x,1.2,1,2926,128,meters,jsons/MX_seq39_1_VE125_flipped.json,218924,424228,38,Man
15,876498,final-intermixed-textured,v2,jsons/MX_seq39_1_VE125_flipped.json,http://54.235.29.9/FacialAge/BNav_EC2/DepthDuration/MX_fS_VE_MTurk/MX_fS_HTML.html#105,105,1920,953,1920,1080,1-12-2024,14-46-58,16,VR_target_stimuli/s44_1.3x_4.4_325.png,125,1.3x,4.4,3,2515,128,meters,jsons/MX_seq39_1_VE125_flipped.json,218924,424228,38,Man
16,876498,final-intermixed-textured,v2,jsons/MX_seq39_1_VE125_flipped.json,http://54.235.29.9/FacialAge/BNav_EC2/DepthDuration/MX_fS_VE_MTurk/MX_fS_HTML.html#105,105,1920,953,1920,1080,1-12-2024,14-46-58,17,catch_stimuli/c1_BC.png,125,,,4,2317,112,meters,jsons/MX_seq39_1_VE125_flipped.json,218924,424228,38,Man
17,876498,final-intermixed-textured,v2,jsons/MX_seq39_1_VE125_flipped.json,http://54.235.29.9/FacialAge/BNav_EC2/DepthDuration/MX_fS_VE_MTurk/MX_fS_HTML.html#105,105,1920,953,1920,1080,1-12-2024,14-46-58,18,VR_target_stimuli/s3_1.3x_5_390_BC.png,125,1.3x,5.0,4,2178,127,meters,jsons/MX_seq39_1_VE125_flipped.json,218924,424228,38,Man
18,876498,final-intermixed-textured,v2,jsons/MX_seq39_1_VE125_flipped.json,http://54.235.29.9/FacialAge/BNav_EC2/DepthDuration/MX_fS_VE_MTurk/MX_fS_HTML.html#105,105,1920,953,1920,1080,1-12-2024,14-46-58,19,VR_target_stimuli/s1_1x_1.7_262_BC.png,125,1x,1.7,2,1955,127,meters,jsons/MX_seq39_1_VE125_flipped.json,218924,424228,38,Man
19,876498,final-intermixed-textured,v2,jsons/MX_seq39_1_VE125_flipped.json,http://54.235.29.9/FacialAge/BNav_EC2/DepthDuration/MX_fS_VE_MTurk/MX_fS_HTML.html#105,105,1920,953,1920,1080,1-12-2024,14-46-58,20,VR_target_stimuli/s11_0.75x_5_359.png,125,0.75x,5.0,4,3257,125,meters,jsons/MX_seq39_1_VE125_flipped.json,218924,424228,38,Man
20,876498,final-intermixed-textured,v2,jsons/MX_seq39_1_VE125_flipped.json,http://54.235.29.9/FacialAge/BNav_EC2/DepthDuration/MX_fS_VE_MTurk/MX_fS_HTML.html#105,105,1920,953,1920,1080,1-12-2024,14-46-58,21,VR_target_stimuli/s2_1x_2.7_390_BC.png,125,1x,2.7,3,2944,127,meters,jsons/MX_seq39_1_VE125_flipped.json,218924,424228,38,Man
21,876498,final-intermixed-textured,v2,jsons/MX_seq39_1_VE125_flipped.json,http://54.235.29.9/FacialAge/BNav_EC2/DepthDuration/MX_fS_VE_MTurk/MX_fS_HTML.html#105,105,1920,953,1920,1080,1-12-2024,14-46-58,22,VR_target_stimuli/s6_1.3x_2.1_298.png,125,1.3x,2.1,2,1741,128,meters,jsons/MX_seq39_1_VE125_flipped.json,218924,424228,38,Man
22,876498,final-intermixed-textured,v2,jsons/MX_seq39_1_VE125_flipped.json,http://54.235.29.9/FacialAge/BNav_EC2/DepthDuration/MX_fS_VE_MTurk/MX_fS_HTML.html#105,105,1920,953,1920,1080,1-12-2024,14-46-58,23,VR_target_stimuli/s0_0.75x_2.6_345_BC.png,125,0.75x,2.6,2,1961,112,meters,jsons/MX_seq39_1_VE125_flipped.json,218924,424228,38,Man
23,876498,final-intermixed-textured,v2,jsons/MX_seq39_1_VE125_flipped.json,http://54.235.29.9/FacialAge/BNav_EC2/DepthDuration/MX_fS_VE_MTurk/MX_fS_HTML.html#105,105,1920,953,1920,1080,1-12-2024,14-46-58,24,VR_target_stimuli/s34_1.3x_2.8_294_BC.png,125,1.3x,2.8,3,3326,128,meters,jsons/MX_seq39_1_VE125_flipped.json,218924,424228,38,Man
24,876498,final-intermixed-textured,v2,jsons/MX_seq39_1_VE125_flipped.json,http://54.235.29.9/FacialAge/BNav_EC2/DepthDuration/MX_fS_VE_MTurk/MX_fS_HTML.html#105,105,1920,953,1920,1080,1-12-2024,14-46-58,25,VR_target_stimuli/s13_1x_2.4_310.png,125,1x,2.4,3,2771,112,meters,jsons/MX_seq39_1_VE125_flipped.json,218924,424228,38,Man
25,876498,final-intermixed-textured,v2,jsons/MX_seq39_1_VE125_flipped.json,http://54.235.29.9/FacialAge/BNav_EC2/DepthDuration/MX_fS_VE_MTurk/MX_fS_HTML.html#105,105,1920,953,1920,1080,1-12-2024,14-46-58,26,catch_stimuli/c2_BC.png,125,,,3,3474,128,meters,jsons/MX_seq39_1_VE125_flipped.json,218924,424228,38,Man
26,876498,final-intermixed-textured,v2,jsons/MX_seq39_1_VE125_flipped.json,http://54.235.29.9/FacialAge/BNav_EC2/DepthDuration/MX_fS_VE_MTurk/MX_fS_HTML.html#105,105,1920,953,1920,1080,1-12-2024,14-46-58,27,VR_target_stimuli/s14_0.75x_3.83_355.png,125,0.75x,3.83,4,2695,128,meters,jsons/MX_seq39_1_VE125_flipped.json,218924,424228,38,Man
27,876498,final-intermixed-textured,v2,jsons/MX_seq39_1_VE125_flipped.json,http://54.235.29.9/FacialAge/BNav_EC2/DepthDuration/MX_fS_VE_MTurk/MX_fS_HTML.html#105,105,1920,953,1920,1080,1-12-2024,14-46-58,28,VR_target_stimuli/s47_0.75x_3.45_366_BC.png,125,0.75x,3.45,3,2267,132,meters,jsons/MX_seq39_1_VE125_flipped.json,218924,424228,38,Man
28,876498,final-intermixed-textured,v2,jsons/MX_seq39_1_VE125_flipped.json,http://54.235.29.9/FacialAge/BNav_EC2/DepthDuration/MX_fS_VE_MTurk/MX_fS_HTML.html#105,105,1920,953,1920,1080,1-12-2024,14-46-58,29,VR_target_stimuli/s29_1.3x_1.3_253.png,125,1.3x,1.3,2,2467,128,meters,jsons/MX_seq39_1_VE125_flipped.json,218924,424228,38,Man
29,876498,final-intermixed-textured,v2,jsons/MX_seq39_1_VE125_flipped.json,http://54.235.29.9/FacialAge/BNav_EC2/DepthDuration/MX_fS_VE_MTurk/MX_fS_HTML.html#105,105,1920,953,1920,1080,1-12-2024,14-46-58,30,VR_target_stimuli/s28_1x_3.2_362.png,125,1x,3.2,3,3002,128,meters,jsons/MX_seq39_1_VE125_flipped.json,218924,424228,38,Man
30,876498,final-intermixed-textured,v2,jsons/MX_seq39_1_VE125_flipped.json,http://54.235.29.9/FacialAge/BNav_EC2/DepthDuration/MX_fS_VE_MTurk/MX_fS_HTML.html#105,105,1920,953,1920,1080,1-12-2024,14-46-58,31,VR_target_stimuli/s48_0.75x_2.55_243.png,125,0.75x,2.55,3,2643,128,meters,jsons/MX_seq39_1_VE125_flipped.json,218924,424228,38,Man
31,876498,final-intermixed-textured,v2,jsons/MX_seq39_1_VE125_flipped.json,http://54.235.29.9/FacialAge/BNav_EC2/DepthDuration/MX_fS_VE_MTurk/MX_fS_HTML.html#105,105,1920,953,1920,1080,1-12-2024,14-46-58,32,VR_target_stimuli/s19_1x_1.21_263_BC.png,125,1x,1.21,2,2065,128,meters,jsons/MX_seq39_1_VE125_flipped.json,218924,424228,38,Man
32,876498,final-intermixed-textured,v2,jsons/MX_seq39_1_VE125_flipped.json,http://54.235.29.9/FacialAge/BNav_EC2/DepthDuration/MX_fS_VE_MTurk/MX_fS_HTML.html#105,105,1920,953,1920,1080,1-12-2024,14-46-58,33,VR_target_stimuli/s21_1.3x_4.22_384_BC.png,125,1.3x,4.22,2,5514,127,meters,jsons/MX_seq39_1_VE125_flipped.json,218924,424228,38,Man
33,876498,final-intermixed-textured,v2,jsons/MX_seq39_1_VE125_flipped.json,http://54.235.29.9/FacialAge/BNav_EC2/DepthDuration/MX_fS_VE_MTurk/MX_fS_HTML.html#105,105,1920,953,1920,1080,1-12-2024,14-46-58,34,catch_stimuli/c3_BC.png,125,,,1,4776,111,meters,jsons/MX_seq39_1_VE125_flipped.json,218924,424228,38,Man
34,876498,final-intermixed-textured,v2,jsons/MX_seq39_1_VE125_flipped.json,http://54.235.29.9/FacialAge/BNav_EC2/DepthDuration/MX_fS_VE_MTurk/MX_fS_HTML.html#105,105,1920,953,1920,1080,1-12-2024,14-46-58,35,VR_target_stimuli/s8_1x_3.1_332_BC.png,125,1x,3.1,2,2672,112,meters,jsons/MX_seq39_1_VE125_flipped.json,218924,424228,38,Man
35,876498,final-intermixed-textured,v2,jsons/MX_seq39_1_VE125_flipped.json,http://54.235.29.9/FacialAge/BNav_EC2/DepthDuration/MX_fS_VE_MTurk/MX_fS_HTML.html#105,105,1920,953,1920,1080,1-12-2024,14-46-58,36,VR_target_stimuli/s27_0.75x_1.76_243.png,125,0.75x,1.76,2,2284,112,meters,jsons/MX_seq39_1_VE125_flipped.json,218924,424228,38,Man
36,876498,final-intermixed-textured,v2,jsons/MX_seq39_1_VE125_flipped.json,http://54.235.29.9/FacialAge/BNav_EC2/DepthDuration/MX_fS_VE_MTurk/MX_fS_HTML.html#105,105,1920,953,1920,1080,1-12-2024,14-46-58,37,VR_target_stimuli/s15_1.3x_4.2_389_BC.png,125,1.3x,4.2,3,5216,128,meters,jsons/MX_seq39_1_VE125_flipped.json,218924,424228,38,Man
37,876498,final-intermixed-textured,v2,jsons/MX_seq39_1_VE125_flipped.json,http://54.235.29.9/FacialAge/BNav_EC2/DepthDuration/MX_fS_VE_MTurk/MX_fS_HTML.html#105,105,1920,953,1920,1080,1-12-2024,14-46-58,38,VR_target_stimuli/s4_1.3x_1.4_328.png,125,1.3x,1.4,2,3700,127,meters,jsons/MX_seq39_1_VE125_flipped.json,218924,424228,38,Man
38,876498,final-intermixed-textured,v2,jsons/MX_seq39_1_VE125_flipped.json,http://54.235.29.9/FacialAge/BNav_EC2/DepthDuration/MX_fS_VE_MTurk/MX_fS_HTML.html#105,105,1920,953,1920,1080,1-12-2024,14-46-58,39,VR_target_stimuli/s35_1x_2_331.png,125,1x,2.0,2,2659,128,meters,jsons/MX_seq39_1_VE125_flipped.json,218924,424228,38,Man
39,876498,final-intermixed-textured,v2,jsons/MX_seq39_1_VE125_flipped.json,http://54.235.29.9/FacialAge/BNav_EC2/DepthDuration/MX_fS_VE_MTurk/MX_fS_HTML.html#105,105,1920,953,1920,1080,1-12-2024,14-46-58,40,VR_target_stimuli/s49_0.75x_4.67_328_BC.png,125,0.75x,4.67,4,3042,121,meters,jsons/MX_seq39_1_VE125_flipped.json,218924,424228,38,Man
40,876498,final-intermixed-textured,v2,jsons/MX_seq39_1_VE125_flipped.json,http://54.235.29.9/FacialAge/BNav_EC2/DepthDuration/MX_fS_VE_MTurk/MX_fS_HTML.html#105,105,1920,953,1920,1080,1-12-2024,14-46-58,41,VR_target_stimuli/s7_1x_1.5_255.png,125,1x,1.5,3,3322,138,meters,jsons/MX_seq39_1_VE125_flipped.json,218924,424228,38,Man
41,876498,final-intermixed-textured,v2,jsons/MX_seq39_1_VE125_flipped.json,http://54.235.29.9/FacialAge/BNav_EC2/DepthDuration/MX_fS_VE_MTurk/MX_fS_HTML.html#105,105,1920,953,1920,1080,1-12-2024,14-46-58,42,VR_target_stimuli/s20_1.3x_4.99_412_BC.png,125,1.3x,4.99,3,2839,128,meters,jsons/MX_seq39_1_VE125_flipped.json,218924,424228,38,Man
42,876498,final-intermixed-textured,v2,jsons/MX_seq39_1_VE125_flipped.json,http://54.235.29.9/FacialAge/BNav_EC2/DepthDuration/MX_fS_VE_MTurk/MX_fS_HTML.html#105,105,1920,953,1920,1080,1-12-2024,14-46-58,43,VR_target_stimuli/s31_0.75x_4.96_329_BC.png,125,0.75x,4.96,3,2268,126,meters,jsons/MX_seq39_1_VE125_flipped.json,218924,424228,38,Man
43,876498,final-intermixed-textured,v2,jsons/MX_seq39_1_VE125_flipped.json,http://54.235.29.9/FacialAge/BNav_EC2/DepthDuration/MX_fS_VE_MTurk/MX_fS_HTML.html#105,105,1920,953,1920,1080,1-12-2024,14-46-58,44,VR_target_stimuli/s33_1.3x_3.1_378.png,125,1.3x,3.1,3,3772,112,meters,jsons/MX_seq39_1_VE125_flipped.json,218924,424228,38,Man
44,876498,final-intermixed-textured,v2,jsons/MX_seq39_1_VE125_flipped.json,http://54.235.29.9/FacialAge/BNav_EC2/DepthDuration/MX_fS_VE_MTurk/MX_fS_HTML.html#105,105,1920,953,1920,1080,1-12-2024,14-46-58,45,catch_stimuli/c4_BC.png,125,,,3,6738,130,meters,jsons/MX_seq39_1_VE125_flipped.json,218924,424228,38,Man
45,876498,final-intermixed-textured,v2,jsons/MX_seq39_1_VE125_flipped.json,http://54.235.29.9/FacialAge/BNav_EC2/DepthDuration/MX_fS_VE_MTurk/MX_fS_HTML.html#105,105,1920,953,1920,1080,1-12-2024,14-46-58,46,VR_target_stimuli/s52_1x_3.2_275_BC.png,125,1x,3.2,3,3361,121,meters,jsons/MX_seq39_1_VE125_flipped.json,218924,424228,38,Man
46,876498,final-intermixed-textured,v2,jsons/MX_seq39_1_VE125_flipped.json,http://54.235.29.9/FacialAge/BNav_EC2/DepthDuration/MX_fS_VE_MTurk/MX_fS_HTML.html#105,105,1920,953,1920,1080,1-12-2024,14-46-58,47,VR_target_stimuli/s32_0.75x_1.5_213.png,125,0.75x,1.5,2,3310,127,meters,jsons/MX_seq39_1_VE125_flipped.json,218924,424228,38,Man
47,876498,final-intermixed-textured,v2,jsons/MX_seq39_1_VE125_flipped.json,http://54.235.29.9/FacialAge/BNav_EC2/DepthDuration/MX_fS_VE_MTurk/MX_fS_HTML.html#105,105,1920,953,1920,1080,1-12-2024,14-46-58,48,VR_target_stimuli/s18_0.75x_2.25_341.png,125,0.75x,2.25,2,3569,128,meters,jsons/MX_seq39_1_VE125_flipped.json,218924,424228,38,Man
48,876498,final-intermixed-textured,v2,jsons/MX_seq39_1_VE125_flipped.json,http://54.235.29.9/FacialAge/BNav_EC2/DepthDuration/MX_fS_VE_MTurk/MX_fS_HTML.html#105,105,1920,953,1920,1080,1-12-2024,14-46-58,49,VR_target_stimuli/s39_1.3x_1_208_BC.png,125,1.3x,1.0,1,3226,127,meters,jsons/MX_seq39_1_VE125_flipped.json,218924,424228,38,Man
49,876498,final-intermixed-textured,v2,jsons/MX_seq39_1_VE125_flipped.json,http://54.235.29.9/FacialAge/BNav_EC2/DepthDuration/MX_fS_VE_MTurk/MX_fS_HTML.html#105,105,1920,953,1920,1080,1-12-2024,14-46-58,50,VR_target_stimuli/s51_1x_3.64_461_BC.png,125,1x,3.64,2,2871,127,meters,jsons/MX_seq39_1_VE125_flipped.json,218924,424228,38,Man
50,876498,final-intermixed-textured,v2,jsons/MX_seq39_1_VE125_flipped.json,http://54.235.29.9/FacialAge/BNav_EC2/DepthDuration/MX_fS_VE_MTurk/MX_fS_HTML.html#105,105,1920,953,1920,1080,1-12-2024,14-46-58,51,VR_target_stimuli/s43_1.3x_2.2_363.png,125,1.3x,2.2,3,5587,127,meters,jsons/MX_seq39_1_VE125_flipped.json,218924,424228,38,Man
51,876498,final-intermixed-textured,v2,jsons/MX_seq39_1_VE125_flipped.json,http://54.235.29.9/FacialAge/BNav_EC2/DepthDuration/MX_fS_VE_MTurk/MX_fS_HTML.html#105,105,1920,953,1920,1080,1-12-2024,14-46-58,52,VR_target_stimuli/s24_0.75x_3.3_344_BC.png,125,0.75x,3.3,4,3104,128,meters,jsons/MX_seq39_1_VE125_flipped.json,218924,424228,38,Man
52,876498,final-intermixed-textured,v2,jsons/MX_seq39_1_VE125_flipped.json,http://54.235.29.9/FacialAge/BNav_EC2/DepthDuration/MX_fS_VE_MTurk/MX_fS_HTML.html#105,105,1920,953,1920,1080,1-12-2024,14-46-58,53,catch_stimuli/c5_BC.png,125,,,1,3742,128,meters,jsons/MX_seq39_1_VE125_flipped.json,218924,424228,38,Man
53,876498,final-intermixed-textured,v2,jsons/MX_seq39_1_VE125_flipped.json,http://54.235.29.9/FacialAge/BNav_EC2/DepthDuration/MX_fS_VE_MTurk/MX_fS_HTML.html#105,105,1920,953,1920,1080,1-12-2024,14-46-58,54,VR_target_stimuli/s10_1x_2.7_324.png,125,1x,2.7,3,3123,112,meters,jsons/MX_seq39_1_VE125_flipped.json,218924,424228,38,Man
54,876498,final-intermixed-textured,v2,jsons/MX_seq39_1_VE125_flipped.json,http://54.235.29.9/FacialAge/BNav_EC2/DepthDuration/MX_fS_VE_MTurk/MX_fS_HTML.html#105,105,1920,953,1920,1080,1-12-2024,14-46-58,55,VR_target_stimuli/s36_0.75x_4.1_407.png,125,0.75x,4.1,4,2841,127,meters,jsons/MX_seq39_1_VE125_flipped.json,218924,424228,38,Man
55,876498,final-intermixed-textured,v2,jsons/MX_seq39_1_VE125_flipped.json,http://54.235.29.9/FacialAge/BNav_EC2/DepthDuration/MX_fS_VE_MTurk/MX_fS_HTML.html#105,105,1920,953,1920,1080,1-12-2024,14-46-58,56,VR_target_stimuli/s40_1.3x_1.2_332_BC.png,125,1.3x,1.2,3,3343,128,meters,jsons/MX_seq39_1_VE125_flipped.json,218924,424228,38,Man
56,876498,final-intermixed-textured,v2,jsons/MX_seq39_1_VE125_flipped.json,http://54.235.29.9/FacialAge/BNav_EC2/DepthDuration/MX_fS_VE_MTurk/MX_fS_HTML.html#105,105,1920,953,1920,1080,1-12-2024,14-46-58,57,VR_target_stimuli/s41_1x_2.1_286.png,125,1x,2.1,3,2394,132,meters,jsons/MX_seq39_1_VE125_flipped.json,218924,424228,38,Man
57,876498,final-intermixed-textured,v2,jsons/MX_seq39_1_VE125_flipped.json,http://54.235.29.9/FacialAge/BNav_EC2/DepthDuration/MX_fS_VE_MTurk/MX_fS_HTML.html#105,105,1920,953,1920,1080,1-12-2024,14-46-58,58,VR_target_stimuli/s45_1x_3.5_368_BC.png,125,1x,3.5,4,2451,128,meters,jsons/MX_seq39_1_VE125_flipped.json,218924,424228,38,Man
58,876498,final-intermixed-textured,v2,jsons/MX_seq39_1_VE125_flipped.json,http://54.235.29.9/FacialAge/BNav_EC2/DepthDuration/MX_fS_VE_MTurk/MX_fS_HTML.html#105,105,1920,953,1920,1080,1-12-2024,14-46-58,59,VR_target_stimuli/s23_0.75x_3.65_351_BC.png,125,0.75x,3.65,4,3352,128,meters,jsons/MX_seq39_1_VE125_flipped.json,218924,424228,38,Man
59,876498,final-intermixed-textured,v2,jsons/MX_seq39_1_VE125_flipped.json,http://54.235.29.9/FacialAge/BNav_EC2/DepthDuration/MX_fS_VE_MTurk/MX_fS_HTML.html#105,105,1920,953,1920,1080,1-12-2024,14-46-58,60,VR_target_stimuli/s26_1.3x_4_441.png,125,1.3x,4.0,3,2622,132,meters,jsons/MX_seq39_1_VE125_flipped.json,218924,424228,38,Man
