,subjID,experimentName,versionName,sequenceName,url,selected_row,windowWidth,windowHeight,screenWidth,screenHeight,startDate,startTime,trial,stimulus,duration,scale,actual_depth,depth_estimate,trial_RT,log_sceneDuration,unitSelection,seq_filepath,experimentTime,totalTime,age,gender
0,911824,final-intermixed-textured,v2,jsons/MX_seq2_2_VE125.json,http://54.235.29.9/FacialAge/BNav_EC2/DepthDuration/MX_fS_VE_MTurk/MX_fS_HTML.html#187,187,2048,1152,2048,1152,1-12-2024,16-1-47,1,VR_target_stimuli/s11_1x_5_361_BC.png,125,1x,5.0,3.0,2093,124,meters,jsons/MX_seq2_2_VE125.json,323528,409966,27,Woman
1,911824,final-intermixed-textured,v2,jsons/MX_seq2_2_VE125.json,http://54.235.29.9/FacialAge/BNav_EC2/DepthDuration/MX_fS_VE_MTurk/MX_fS_HTML.html#187,187,2048,1152,2048,1152,1-12-2024,16-1-47,2,VR_target_stimuli/s2_1.3x_2.7_397.png,125,1.3x,2.7,1.5,3201,125,meters,jsons/MX_seq2_2_VE125.json,323528,409966,27,Woman
2,911824,final-intermixed-textured,v2,jsons/MX_seq2_2_VE125.json,http://54.235.29.9/FacialAge/BNav_EC2/DepthDuration/MX_fS_VE_MTurk/MX_fS_HTML.html#187,187,2048,1152,2048,1152,1-12-2024,16-1-47,3,VR_target_stimuli/s6_0.75x_2.1_290.png,125,0.75x,2.1,1.5,5401,124,meters,jsons/MX_seq2_2_VE125.json,323528,409966,27,Woman
3,911824,final-intermixed-textured,v2,jsons/MX_seq2_2_VE125.json,http://54.235.29.9/FacialAge/BNav_EC2/DepthDuration/MX_fS_VE_MTurk/MX_fS_HTML.html#187,187,2048,1152,2048,1152,1-12-2024,16-1-47,4,VR_target_stimuli/s0_1.3x_2.6_356_BC.png,125,1.3x,2.6,0.0,5852,124,meters,jsons/MX_seq2_2_VE125.json,323528,409966,27,Woman
4,911824,final-intermixed-textured,v2,jsons/MX_seq2_2_VE125.json,http://54.235.29.9/FacialAge/BNav_EC2/DepthDuration/MX_fS_VE_MTurk/MX_fS_HTML.html#187,187,2048,1152,2048,1152,1-12-2024,16-1-47,5,VR_target_stimuli/s34_1x_2.8_283.png,125,1x,2.8,3.0,2699,125,meters,jsons/MX_seq2_2_VE125.json,323528,409966,27,Woman
5,911824,final-intermixed-textured,v2,jsons/MX_seq2_2_VE125.json,http://54.235.29.9/FacialAge/BNav_EC2/DepthDuration/MX_fS_VE_MTurk/MX_fS_HTML.html#187,187,2048,1152,2048,1152,1-12-2024,16-1-47,6,VR_target_stimuli/s13_0.75x_2.4_308_BC.png,125,0.75x,2.4,1.5,4187,125,meters,jsons/MX_seq2_2_VE125.json,323528,409966,27,Woman
6,911824,final-intermixed-textured,v2,jsons/MX_seq2_2_VE125.json,http://54.235.29.9/FacialAge/BNav_EC2/DepthDuration/MX_fS_VE_MTurk/MX_fS_HTML.html#187,187,2048,1152,2048,1152,1-12-2024,16-1-47,7,catch_stimuli/c0.png,125,,,0.0,2843,125,meters,jsons/MX_seq2_2_VE125.json,323528,409966,27,Woman
7,911824,final-intermixed-textured,v2,jsons/MX_seq2_2_VE125.json,http://54.235.29.9/FacialAge/BNav_EC2/DepthDuration/MX_fS_VE_MTurk/MX_fS_HTML.html#187,187,2048,1152,2048,1152,1-12-2024,16-1-47,8,VR_target_stimuli/s14_0.75x_3.83_355.png,125,0.75x,3.83,2.0,6438,125,meters,jsons/MX_seq2_2_VE125.json,323528,409966,27,Woman
8,911824,final-intermixed-textured,v2,jsons/MX_seq2_2_VE125.json,http://54.235.29.9/FacialAge/BNav_EC2/DepthDuration/MX_fS_VE_MTurk/MX_fS_HTML.html#187,187,2048,1152,2048,1152,1-12-2024,16-1-47,9,VR_target_stimuli/s47_1.3x_3.45_373.png,125,1.3x,3.45,0.0,2570,125,meters,jsons/MX_seq2_2_VE125.json,323528,409966,27,Woman
9,911824,final-intermixed-textured,v2,jsons/MX_seq2_2_VE125.json,http://54.235.29.9/FacialAge/BNav_EC2/DepthDuration/MX_fS_VE_MTurk/MX_fS_HTML.html#187,187,2048,1152,2048,1152,1-12-2024,16-1-47,10,VR_target_stimuli/s29_1x_1.3_250.png,125,1x,1.3,1.0,5523,125,meters,jsons/MX_seq2_2_VE125.json,323528,409966,27,Woman
10,911824,final-intermixed-textured,v2,jsons/MX_seq2_2_VE125.json,http://54.235.29.9/FacialAge/BNav_EC2/DepthDuration/MX_fS_VE_MTurk/MX_fS_HTML.html#187,187,2048,1152,2048,1152,1-12-2024,16-1-47,11,VR_target_stimuli/s28_1.3x_3.2_365_BC.png,125,1.3x,3.2,2.5,3884,124,meters,jsons/MX_seq2_2_VE125.json,323528,409966,27,Woman
11,911824,final-intermixed-textured,v2,jsons/MX_seq2_2_VE125.json,http://54.235.29.9/FacialAge/BNav_EC2/DepthDuration/MX_fS_VE_MTurk/MX_fS_HTML.html#187,187,2048,1152,2048,1152,1-12-2024,16-1-47,12,VR_target_stimuli/s48_0.75x_2.55_243_BC.png,125,0.75x,2.55,1.5,6408,124,meters,jsons/MX_seq2_2_VE125.json,323528,409966,27,Woman
12,911824,final-intermixed-textured,v2,jsons/MX_seq2_2_VE125.json,http://54.235.29.9/FacialAge/BNav_EC2/DepthDuration/MX_fS_VE_MTurk/MX_fS_HTML.html#187,187,2048,1152,2048,1152,1-12-2024,16-1-47,13,VR_target_stimuli/s19_1x_1.21_263_BC.png,125,1x,1.21,1.0,8207,124,meters,jsons/MX_seq2_2_VE125.json,323528,409966,27,Woman
13,911824,final-intermixed-textured,v2,jsons/MX_seq2_2_VE125.json,http://54.235.29.9/FacialAge/BNav_EC2/DepthDuration/MX_fS_VE_MTurk/MX_fS_HTML.html#187,187,2048,1152,2048,1152,1-12-2024,16-1-47,14,VR_target_stimuli/s21_0.75x_4.22_374_BC.png,125,0.75x,4.22,2.0,16525,124,meters,jsons/MX_seq2_2_VE125.json,323528,409966,27,Woman
14,911824,final-intermixed-textured,v2,jsons/MX_seq2_2_VE125.json,http://54.235.29.9/FacialAge/BNav_EC2/DepthDuration/MX_fS_VE_MTurk/MX_fS_HTML.html#187,187,2048,1152,2048,1152,1-12-2024,16-1-47,15,VR_target_stimuli/s8_1.3x_3.1_345.png,125,1.3x,3.1,0.0,8814,125,meters,jsons/MX_seq2_2_VE125.json,323528,409966,27,Woman
15,911824,final-intermixed-textured,v2,jsons/MX_seq2_2_VE125.json,http://54.235.29.9/FacialAge/BNav_EC2/DepthDuration/MX_fS_VE_MTurk/MX_fS_HTML.html#187,187,2048,1152,2048,1152,1-12-2024,16-1-47,16,VR_target_stimuli/s27_1x_1.76_248_BC.png,125,1x,1.76,0.75,6591,125,meters,jsons/MX_seq2_2_VE125.json,323528,409966,27,Woman
16,911824,final-intermixed-textured,v2,jsons/MX_seq2_2_VE125.json,http://54.235.29.9/FacialAge/BNav_EC2/DepthDuration/MX_fS_VE_MTurk/MX_fS_HTML.html#187,187,2048,1152,2048,1152,1-12-2024,16-1-47,17,catch_stimuli/c1.png,125,,,0.0,4660,124,meters,jsons/MX_seq2_2_VE125.json,323528,409966,27,Woman
17,911824,final-intermixed-textured,v2,jsons/MX_seq2_2_VE125.json,http://54.235.29.9/FacialAge/BNav_EC2/DepthDuration/MX_fS_VE_MTurk/MX_fS_HTML.html#187,187,2048,1152,2048,1152,1-12-2024,16-1-47,18,VR_target_stimuli/s15_1x_4.2_390.png,125,1x,4.2,2.5,4971,124,meters,jsons/MX_seq2_2_VE125.json,323528,409966,27,Woman
18,911824,final-intermixed-textured,v2,jsons/MX_seq2_2_VE125.json,http://54.235.29.9/FacialAge/BNav_EC2/DepthDuration/MX_fS_VE_MTurk/MX_fS_HTML.html#187,187,2048,1152,2048,1152,1-12-2024,16-1-47,19,VR_target_stimuli/s4_0.75x_1.4_301.png,125,0.75x,1.4,0.7,8875,125,meters,jsons/MX_seq2_2_VE125.json,323528,409966,27,Woman
19,911824,final-intermixed-textured,v2,jsons/MX_seq2_2_VE125.json,http://54.235.29.9/FacialAge/BNav_EC2/DepthDuration/MX_fS_VE_MTurk/MX_fS_HTML.html#187,187,2048,1152,2048,1152,1-12-2024,16-1-47,20,VR_target_stimuli/s35_1.3x_2_338_BC.png,125,1.3x,2.0,1.5,3067,124,meters,jsons/MX_seq2_2_VE125.json,323528,409966,27,Woman
20,911824,final-intermixed-textured,v2,jsons/MX_seq2_2_VE125.json,http://54.235.29.9/FacialAge/BNav_EC2/DepthDuration/MX_fS_VE_MTurk/MX_fS_HTML.html#187,187,2048,1152,2048,1152,1-12-2024,16-1-47,21,VR_target_stimuli/s49_0.75x_4.67_328_BC.png,125,0.75x,4.67,2.5,2818,125,meters,jsons/MX_seq2_2_VE125.json,323528,409966,27,Woman
21,911824,final-intermixed-textured,v2,jsons/MX_seq2_2_VE125.json,http://54.235.29.9/FacialAge/BNav_EC2/DepthDuration/MX_fS_VE_MTurk/MX_fS_HTML.html#187,187,2048,1152,2048,1152,1-12-2024,16-1-47,22,VR_target_stimuli/s7_1x_1.5_255_BC.png,125,1x,1.5,0.75,6916,125,meters,jsons/MX_seq2_2_VE125.json,323528,409966,27,Woman
22,911824,final-intermixed-textured,v2,jsons/MX_seq2_2_VE125.json,http://54.235.29.9/FacialAge/BNav_EC2/DepthDuration/MX_fS_VE_MTurk/MX_fS_HTML.html#187,187,2048,1152,2048,1152,1-12-2024,16-1-47,23,VR_target_stimuli/s20_1.3x_4.99_412_BC.png,125,1.3x,4.99,3.5,2666,124,meters,jsons/MX_seq2_2_VE125.json,323528,409966,27,Woman
23,911824,final-intermixed-textured,v2,jsons/MX_seq2_2_VE125.json,http://54.235.29.9/FacialAge/BNav_EC2/DepthDuration/MX_fS_VE_MTurk/MX_fS_HTML.html#187,187,2048,1152,2048,1152,1-12-2024,16-1-47,24,VR_target_stimuli/s31_1x_4.96_333.png,125,1x,4.96,1.5,2748,125,meters,jsons/MX_seq2_2_VE125.json,323528,409966,27,Woman
24,911824,final-intermixed-textured,v2,jsons/MX_seq2_2_VE125.json,http://54.235.29.9/FacialAge/BNav_EC2/DepthDuration/MX_fS_VE_MTurk/MX_fS_HTML.html#187,187,2048,1152,2048,1152,1-12-2024,16-1-47,25,VR_target_stimuli/s33_0.75x_3.1_361.png,125,0.75x,3.1,1.5,5820,124,meters,jsons/MX_seq2_2_VE125.json,323528,409966,27,Woman
25,911824,final-intermixed-textured,v2,jsons/MX_seq2_2_VE125.json,http://54.235.29.9/FacialAge/BNav_EC2/DepthDuration/MX_fS_VE_MTurk/MX_fS_HTML.html#187,187,2048,1152,2048,1152,1-12-2024,16-1-47,26,catch_stimuli/c2.png,125,,,0.0,2154,124,meters,jsons/MX_seq2_2_VE125.json,323528,409966,27,Woman
26,911824,final-intermixed-textured,v2,jsons/MX_seq2_2_VE125.json,http://54.235.29.9/FacialAge/BNav_EC2/DepthDuration/MX_fS_VE_MTurk/MX_fS_HTML.html#187,187,2048,1152,2048,1152,1-12-2024,16-1-47,27,VR_target_stimuli/s52_1.3x_3.2_280.png,125,1.3x,3.2,2.0,5531,125,meters,jsons/MX_seq2_2_VE125.json,323528,409966,27,Woman
27,911824,final-intermixed-textured,v2,jsons/MX_seq2_2_VE125.json,http://54.235.29.9/FacialAge/BNav_EC2/DepthDuration/MX_fS_VE_MTurk/MX_fS_HTML.html#187,187,2048,1152,2048,1152,1-12-2024,16-1-47,28,VR_target_stimuli/s32_1.3x_1.5_224_BC.png,125,1.3x,1.5,0.5,5387,125,meters,jsons/MX_seq2_2_VE125.json,323528,409966,27,Woman
28,911824,final-intermixed-textured,v2,jsons/MX_seq2_2_VE125.json,http://54.235.29.9/FacialAge/BNav_EC2/DepthDuration/MX_fS_VE_MTurk/MX_fS_HTML.html#187,187,2048,1152,2048,1152,1-12-2024,16-1-47,29,VR_target_stimuli/s18_1x_2.25_353.png,125,1x,2.25,1.5,3309,124,meters,jsons/MX_seq2_2_VE125.json,323528,409966,27,Woman
29,911824,final-intermixed-textured,v2,jsons/MX_seq2_2_VE125.json,http://54.235.29.9/FacialAge/BNav_EC2/DepthDuration/MX_fS_VE_MTurk/MX_fS_HTML.html#187,187,2048,1152,2048,1152,1-12-2024,16-1-47,30,VR_target_stimuli/s39_0.75x_1_205_BC.png,125,0.75x,1.0,0.3,4745,124,meters,jsons/MX_seq2_2_VE125.json,323528,409966,27,Woman
30,911824,final-intermixed-textured,v2,jsons/MX_seq2_2_VE125.json,http://54.235.29.9/FacialAge/BNav_EC2/DepthDuration/MX_fS_VE_MTurk/MX_fS_HTML.html#187,187,2048,1152,2048,1152,1-12-2024,16-1-47,31,VR_target_stimuli/s51_1.3x_3.64_479.png,125,1.3x,3.64,1.5,3285,125,meters,jsons/MX_seq2_2_VE125.json,323528,409966,27,Woman
31,911824,final-intermixed-textured,v2,jsons/MX_seq2_2_VE125.json,http://54.235.29.9/FacialAge/BNav_EC2/DepthDuration/MX_fS_VE_MTurk/MX_fS_HTML.html#187,187,2048,1152,2048,1152,1-12-2024,16-1-47,32,VR_target_stimuli/s43_0.75x_2.2_348.png,125,0.75x,2.2,2.0,3330,125,meters,jsons/MX_seq2_2_VE125.json,323528,409966,27,Woman
32,911824,final-intermixed-textured,v2,jsons/MX_seq2_2_VE125.json,http://54.235.29.9/FacialAge/BNav_EC2/DepthDuration/MX_fS_VE_MTurk/MX_fS_HTML.html#187,187,2048,1152,2048,1152,1-12-2024,16-1-47,33,VR_target_stimuli/s24_1x_3.3_349_BC.png,125,1x,3.3,0.75,4092,124,meters,jsons/MX_seq2_2_VE125.json,323528,409966,27,Woman
33,911824,final-intermixed-textured,v2,jsons/MX_seq2_2_VE125.json,http://54.235.29.9/FacialAge/BNav_EC2/DepthDuration/MX_fS_VE_MTurk/MX_fS_HTML.html#187,187,2048,1152,2048,1152,1-12-2024,16-1-47,34,catch_stimuli/c3.png,125,,,0.0,1659,124,meters,jsons/MX_seq2_2_VE125.json,323528,409966,27,Woman
34,911824,final-intermixed-textured,v2,jsons/MX_seq2_2_VE125.json,http://54.235.29.9/FacialAge/BNav_EC2/DepthDuration/MX_fS_VE_MTurk/MX_fS_HTML.html#187,187,2048,1152,2048,1152,1-12-2024,16-1-47,35,VR_target_stimuli/s10_0.75x_2.7_321_BC.png,125,0.75x,2.7,2.5,4627,124,meters,jsons/MX_seq2_2_VE125.json,323528,409966,27,Woman
35,911824,final-intermixed-textured,v2,jsons/MX_seq2_2_VE125.json,http://54.235.29.9/FacialAge/BNav_EC2/DepthDuration/MX_fS_VE_MTurk/MX_fS_HTML.html#187,187,2048,1152,2048,1152,1-12-2024,16-1-47,36,VR_target_stimuli/s36_1.3x_4.1_442_BC.png,125,1.3x,4.1,3.0,4658,124,meters,jsons/MX_seq2_2_VE125.json,323528,409966,27,Woman
36,911824,final-intermixed-textured,v2,jsons/MX_seq2_2_VE125.json,http://54.235.29.9/FacialAge/BNav_EC2/DepthDuration/MX_fS_VE_MTurk/MX_fS_HTML.html#187,187,2048,1152,2048,1152,1-12-2024,16-1-47,37,VR_target_stimuli/s40_1x_1.2_319.png,125,1x,1.2,1.5,2412,125,meters,jsons/MX_seq2_2_VE125.json,323528,409966,27,Woman
37,911824,final-intermixed-textured,v2,jsons/MX_seq2_2_VE125.json,http://54.235.29.9/FacialAge/BNav_EC2/DepthDuration/MX_fS_VE_MTurk/MX_fS_HTML.html#187,187,2048,1152,2048,1152,1-12-2024,16-1-47,38,VR_target_stimuli/s41_1x_2.1_286_BC.png,125,1x,2.1,1.0,18132,125,meters,jsons/MX_seq2_2_VE125.json,323528,409966,27,Woman
38,911824,final-intermixed-textured,v2,jsons/MX_seq2_2_VE125.json,http://54.235.29.9/FacialAge/BNav_EC2/DepthDuration/MX_fS_VE_MTurk/MX_fS_HTML.html#187,187,2048,1152,2048,1152,1-12-2024,16-1-47,39,VR_target_stimuli/s45_0.75x_3.5_362.png,125,0.75x,3.5,2.0,4514,124,meters,jsons/MX_seq2_2_VE125.json,323528,409966,27,Woman
39,911824,final-intermixed-textured,v2,jsons/MX_seq2_2_VE125.json,http://54.235.29.9/FacialAge/BNav_EC2/DepthDuration/MX_fS_VE_MTurk/MX_fS_HTML.html#187,187,2048,1152,2048,1152,1-12-2024,16-1-47,40,VR_target_stimuli/s23_1.3x_3.65_354.png,125,1.3x,3.65,1.2,9629,125,meters,jsons/MX_seq2_2_VE125.json,323528,409966,27,Woman
40,911824,final-intermixed-textured,v2,jsons/MX_seq2_2_VE125.json,http://54.235.29.9/FacialAge/BNav_EC2/DepthDuration/MX_fS_VE_MTurk/MX_fS_HTML.html#187,187,2048,1152,2048,1152,1-12-2024,16-1-47,41,VR_target_stimuli/s26_0.75x_4_430.png,125,0.75x,4.0,2.0,6297,125,meters,jsons/MX_seq2_2_VE125.json,323528,409966,27,Woman
41,911824,final-intermixed-textured,v2,jsons/MX_seq2_2_VE125.json,http://54.235.29.9/FacialAge/BNav_EC2/DepthDuration/MX_fS_VE_MTurk/MX_fS_HTML.html#187,187,2048,1152,2048,1152,1-12-2024,16-1-47,42,VR_target_stimuli/s12_1x_3.1_372_BC.png,125,1x,3.1,2.0,2108,124,meters,jsons/MX_seq2_2_VE125.json,323528,409966,27,Woman
42,911824,final-intermixed-textured,v2,jsons/MX_seq2_2_VE125.json,http://54.235.29.9/FacialAge/BNav_EC2/DepthDuration/MX_fS_VE_MTurk/MX_fS_HTML.html#187,187,2048,1152,2048,1152,1-12-2024,16-1-47,43,VR_target_stimuli/s30_1.3x_2.3_337.png,125,1.3x,2.3,1.5,4266,125,meters,jsons/MX_seq2_2_VE125.json,323528,409966,27,Woman
43,911824,final-intermixed-textured,v2,jsons/MX_seq2_2_VE125.json,http://54.235.29.9/FacialAge/BNav_EC2/DepthDuration/MX_fS_VE_MTurk/MX_fS_HTML.html#187,187,2048,1152,2048,1152,1-12-2024,16-1-47,44,VR_target_stimuli/s16_1x_1_219.png,125,1x,1.0,1.0,2020,125,meters,jsons/MX_seq2_2_VE125.json,323528,409966,27,Woman
44,911824,final-intermixed-textured,v2,jsons/MX_seq2_2_VE125.json,http://54.235.29.9/FacialAge/BNav_EC2/DepthDuration/MX_fS_VE_MTurk/MX_fS_HTML.html#187,187,2048,1152,2048,1152,1-12-2024,16-1-47,45,catch_stimuli/c4.png,125,,,0.0,2355,124,meters,jsons/MX_seq2_2_VE125.json,323528,409966,27,Woman
45,911824,final-intermixed-textured,v2,jsons/MX_seq2_2_VE125.json,http://54.235.29.9/FacialAge/BNav_EC2/DepthDuration/MX_fS_VE_MTurk/MX_fS_HTML.html#187,187,2048,1152,2048,1152,1-12-2024,16-1-47,46,VR_target_stimuli/s17_0.75x_1.8_285_BC.png,125,0.75x,1.8,0.75,14315,125,meters,jsons/MX_seq2_2_VE125.json,323528,409966,27,Woman
46,911824,final-intermixed-textured,v2,jsons/MX_seq2_2_VE125.json,http://54.235.29.9/FacialAge/BNav_EC2/DepthDuration/MX_fS_VE_MTurk/MX_fS_HTML.html#187,187,2048,1152,2048,1152,1-12-2024,16-1-47,47,VR_target_stimuli/s5_1.3x_4_393_BC.png,125,1.3x,4.0,2.5,5586,124,meters,jsons/MX_seq2_2_VE125.json,323528,409966,27,Woman
47,911824,final-intermixed-textured,v2,jsons/MX_seq2_2_VE125.json,http://54.235.29.9/FacialAge/BNav_EC2/DepthDuration/MX_fS_VE_MTurk/MX_fS_HTML.html#187,187,2048,1152,2048,1152,1-12-2024,16-1-47,48,VR_target_stimuli/s37_1.3x_3.3_555.png,125,1.3x,3.3,0.75,5596,124,meters,jsons/MX_seq2_2_VE125.json,323528,409966,27,Woman
48,911824,final-intermixed-textured,v2,jsons/MX_seq2_2_VE125.json,http://54.235.29.9/FacialAge/BNav_EC2/DepthDuration/MX_fS_VE_MTurk/MX_fS_HTML.html#187,187,2048,1152,2048,1152,1-12-2024,16-1-47,49,VR_target_stimuli/s46_1x_2.42_348_BC.png,125,1x,2.42,1.5,3613,124,meters,jsons/MX_seq2_2_VE125.json,323528,409966,27,Woman
49,911824,final-intermixed-textured,v2,jsons/MX_seq2_2_VE125.json,http://54.235.29.9/FacialAge/BNav_EC2/DepthDuration/MX_fS_VE_MTurk/MX_fS_HTML.html#187,187,2048,1152,2048,1152,1-12-2024,16-1-47,50,VR_target_stimuli/s22_0.75x_4.29_348_BC.png,125,0.75x,4.29,3.5,4147,125,meters,jsons/MX_seq2_2_VE125.json,323528,409966,27,Woman
50,911824,final-intermixed-textured,v2,jsons/MX_seq2_2_VE125.json,http://54.235.29.9/FacialAge/BNav_EC2/DepthDuration/MX_fS_VE_MTurk/MX_fS_HTML.html#187,187,2048,1152,2048,1152,1-12-2024,16-1-47,51,VR_target_stimuli/s42_1x_3.2_303.png,125,1x,3.2,2.0,2555,125,meters,jsons/MX_seq2_2_VE125.json,323528,409966,27,Woman
51,911824,final-intermixed-textured,v2,jsons/MX_seq2_2_VE125.json,http://54.235.29.9/FacialAge/BNav_EC2/DepthDuration/MX_fS_VE_MTurk/MX_fS_HTML.html#187,187,2048,1152,2048,1152,1-12-2024,16-1-47,52,VR_target_stimuli/s25_1.3x_1.4_299_BC.png,125,1.3x,1.4,0.5,2261,124,meters,jsons/MX_seq2_2_VE125.json,323528,409966,27,Woman
52,911824,final-intermixed-textured,v2,jsons/MX_seq2_2_VE125.json,http://54.235.29.9/FacialAge/BNav_EC2/DepthDuration/MX_fS_VE_MTurk/MX_fS_HTML.html#187,187,2048,1152,2048,1152,1-12-2024,16-1-47,53,catch_stimuli/c5.png,125,,,0.0,1952,125,meters,jsons/MX_seq2_2_VE125.json,323528,409966,27,Woman
53,911824,final-intermixed-textured,v2,jsons/MX_seq2_2_VE125.json,http://54.235.29.9/FacialAge/BNav_EC2/DepthDuration/MX_fS_VE_MTurk/MX_fS_HTML.html#187,187,2048,1152,2048,1152,1-12-2024,16-1-47,54,VR_target_stimuli/s50_0.75x_4.53_517.png,125,0.75x,4.53,1.8,4835,124,meters,jsons/MX_seq2_2_VE125.json,323528,409966,27,Woman
54,911824,final-intermixed-textured,v2,jsons/MX_seq2_2_VE125.json,http://54.235.29.9/FacialAge/BNav_EC2/DepthDuration/MX_fS_VE_MTurk/MX_fS_HTML.html#187,187,2048,1152,2048,1152,1-12-2024,16-1-47,55,VR_target_stimuli/s53_1.3x_1.6_355.png,125,1.3x,1.6,0.5,3692,124,meters,jsons/MX_seq2_2_VE125.json,323528,409966,27,Woman
55,911824,final-intermixed-textured,v2,jsons/MX_seq2_2_VE125.json,http://54.235.29.9/FacialAge/BNav_EC2/DepthDuration/MX_fS_VE_MTurk/MX_fS_HTML.html#187,187,2048,1152,2048,1152,1-12-2024,16-1-47,56,VR_target_stimuli/s38_1x_3.55_353.png,125,1x,3.55,3.0,4650,124,meters,jsons/MX_seq2_2_VE125.json,323528,409966,27,Woman
56,911824,final-intermixed-textured,v2,jsons/MX_seq2_2_VE125.json,http://54.235.29.9/FacialAge/BNav_EC2/DepthDuration/MX_fS_VE_MTurk/MX_fS_HTML.html#187,187,2048,1152,2048,1152,1-12-2024,16-1-47,57,VR_target_stimuli/s9_0.75x_1.2_260.png,125,0.75x,1.2,1.5,2099,125,meters,jsons/MX_seq2_2_VE125.json,323528,409966,27,Woman
57,911824,final-intermixed-textured,v2,jsons/MX_seq2_2_VE125.json,http://54.235.29.9/FacialAge/BNav_EC2/DepthDuration/MX_fS_VE_MTurk/MX_fS_HTML.html#187,187,2048,1152,2048,1152,1-12-2024,16-1-47,58,VR_target_stimuli/s44_0.75x_4.4_314_BC.png,125,0.75x,4.4,3.0,2044,124,meters,jsons/MX_seq2_2_VE125.json,323528,409966,27,Woman
58,911824,final-intermixed-textured,v2,jsons/MX_seq2_2_VE125.json,http://54.235.29.9/FacialAge/BNav_EC2/DepthDuration/MX_fS_VE_MTurk/MX_fS_HTML.html#187,187,2048,1152,2048,1152,1-12-2024,16-1-47,59,VR_target_stimuli/s3_1.3x_5_390_BC.png,125,1.3x,5.0,3.0,2403,125,meters,jsons/MX_seq2_2_VE125.json,323528,409966,27,Woman
59,911824,final-intermixed-textured,v2,jsons/MX_seq2_2_VE125.json,http://54.235.29.9/FacialAge/BNav_EC2/DepthDuration/MX_fS_VE_MTurk/MX_fS_HTML.html#187,187,2048,1152,2048,1152,1-12-2024,16-1-47,60,VR_target_stimuli/s1_1x_1.7_262_BC.png,125,1x,1.7,0.75,5443,125,meters,jsons/MX_seq2_2_VE125.json,323528,409966,27,Woman
