,subjID,experimentName,versionName,sequenceName,url,selected_row,windowWidth,windowHeight,screenWidth,screenHeight,startDate,startTime,trial,stimulus,duration,scale,actual_depth,depth_estimate,trial_RT,log_sceneDuration,unitSelection,seq_filepath,experimentTime,totalTime,age,gender
0,921668,final-intermixed-textured,v2,jsons/MX_seq25_2_VE125.json,http://54.235.29.9/FacialAge/BNav_EC2/DepthDuration/MX_fS_VE_MTurk/MX_fS_HTML.html#121,121,1920,1080,1920,1080,1-12-2024,21-40-35,1,VR_target_stimuli/s52_1x_3.2_275.png,125,1x,3.2,5.0,3654,126,meters,jsons/MX_seq25_2_VE125.json,175275,524313,22,Woman
1,921668,final-intermixed-textured,v2,jsons/MX_seq25_2_VE125.json,http://54.235.29.9/FacialAge/BNav_EC2/DepthDuration/MX_fS_VE_MTurk/MX_fS_HTML.html#121,121,1920,1080,1920,1080,1-12-2024,21-40-35,2,VR_target_stimuli/s32_1.3x_1.5_224_BC.png,125,1.3x,1.5,3.0,2571,129,meters,jsons/MX_seq25_2_VE125.json,175275,524313,22,Woman
2,921668,final-intermixed-textured,v2,jsons/MX_seq25_2_VE125.json,http://54.235.29.9/FacialAge/BNav_EC2/DepthDuration/MX_fS_VE_MTurk/MX_fS_HTML.html#121,121,1920,1080,1920,1080,1-12-2024,21-40-35,3,VR_target_stimuli/s18_0.75x_2.25_341_BC.png,125,0.75x,2.25,3.0,2966,127,meters,jsons/MX_seq25_2_VE125.json,175275,524313,22,Woman
3,921668,final-intermixed-textured,v2,jsons/MX_seq25_2_VE125.json,http://54.235.29.9/FacialAge/BNav_EC2/DepthDuration/MX_fS_VE_MTurk/MX_fS_HTML.html#121,121,1920,1080,1920,1080,1-12-2024,21-40-35,4,VR_target_stimuli/s39_1.3x_1_208.png,125,1.3x,1.0,2.0,2468,126,meters,jsons/MX_seq25_2_VE125.json,175275,524313,22,Woman
4,921668,final-intermixed-textured,v2,jsons/MX_seq25_2_VE125.json,http://54.235.29.9/FacialAge/BNav_EC2/DepthDuration/MX_fS_VE_MTurk/MX_fS_HTML.html#121,121,1920,1080,1920,1080,1-12-2024,21-40-35,5,VR_target_stimuli/s51_1x_3.64_461_BC.png,125,1x,3.64,2.0,1870,124,meters,jsons/MX_seq25_2_VE125.json,175275,524313,22,Woman
5,921668,final-intermixed-textured,v2,jsons/MX_seq25_2_VE125.json,http://54.235.29.9/FacialAge/BNav_EC2/DepthDuration/MX_fS_VE_MTurk/MX_fS_HTML.html#121,121,1920,1080,1920,1080,1-12-2024,21-40-35,6,VR_target_stimuli/s43_0.75x_2.2_348.png,125,0.75x,2.2,4.0,1886,129,meters,jsons/MX_seq25_2_VE125.json,175275,524313,22,Woman
6,921668,final-intermixed-textured,v2,jsons/MX_seq25_2_VE125.json,http://54.235.29.9/FacialAge/BNav_EC2/DepthDuration/MX_fS_VE_MTurk/MX_fS_HTML.html#121,121,1920,1080,1920,1080,1-12-2024,21-40-35,7,catch_stimuli/c0.png,125,,,0.0,2355,130,meters,jsons/MX_seq25_2_VE125.json,175275,524313,22,Woman
7,921668,final-intermixed-textured,v2,jsons/MX_seq25_2_VE125.json,http://54.235.29.9/FacialAge/BNav_EC2/DepthDuration/MX_fS_VE_MTurk/MX_fS_HTML.html#121,121,1920,1080,1920,1080,1-12-2024,21-40-35,8,VR_target_stimuli/s24_0.75x_3.3_344_BC.png,125,0.75x,3.3,3.0,2604,125,meters,jsons/MX_seq25_2_VE125.json,175275,524313,22,Woman
8,921668,final-intermixed-textured,v2,jsons/MX_seq25_2_VE125.json,http://54.235.29.9/FacialAge/BNav_EC2/DepthDuration/MX_fS_VE_MTurk/MX_fS_HTML.html#121,121,1920,1080,1920,1080,1-12-2024,21-40-35,9,VR_target_stimuli/s10_1.3x_2.7_325_BC.png,125,1.3x,2.7,3.0,1835,125,meters,jsons/MX_seq25_2_VE125.json,175275,524313,22,Woman
9,921668,final-intermixed-textured,v2,jsons/MX_seq25_2_VE125.json,http://54.235.29.9/FacialAge/BNav_EC2/DepthDuration/MX_fS_VE_MTurk/MX_fS_HTML.html#121,121,1920,1080,1920,1080,1-12-2024,21-40-35,10,VR_target_stimuli/s36_1x_4.1_423_BC.png,125,1x,4.1,4.0,2501,125,meters,jsons/MX_seq25_2_VE125.json,175275,524313,22,Woman
10,921668,final-intermixed-textured,v2,jsons/MX_seq25_2_VE125.json,http://54.235.29.9/FacialAge/BNav_EC2/DepthDuration/MX_fS_VE_MTurk/MX_fS_HTML.html#121,121,1920,1080,1920,1080,1-12-2024,21-40-35,11,VR_target_stimuli/s40_1.3x_1.2_332.png,125,1.3x,1.2,1.5,5356,123,meters,jsons/MX_seq25_2_VE125.json,175275,524313,22,Woman
11,921668,final-intermixed-textured,v2,jsons/MX_seq25_2_VE125.json,http://54.235.29.9/FacialAge/BNav_EC2/DepthDuration/MX_fS_VE_MTurk/MX_fS_HTML.html#121,121,1920,1080,1920,1080,1-12-2024,21-40-35,12,VR_target_stimuli/s41_0.75x_2.1_281.png,125,0.75x,2.1,3.0,2819,124,meters,jsons/MX_seq25_2_VE125.json,175275,524313,22,Woman
12,921668,final-intermixed-textured,v2,jsons/MX_seq25_2_VE125.json,http://54.235.29.9/FacialAge/BNav_EC2/DepthDuration/MX_fS_VE_MTurk/MX_fS_HTML.html#121,121,1920,1080,1920,1080,1-12-2024,21-40-35,13,VR_target_stimuli/s45_1x_3.5_368.png,125,1x,3.5,3.0,1904,123,meters,jsons/MX_seq25_2_VE125.json,175275,524313,22,Woman
13,921668,final-intermixed-textured,v2,jsons/MX_seq25_2_VE125.json,http://54.235.29.9/FacialAge/BNav_EC2/DepthDuration/MX_fS_VE_MTurk/MX_fS_HTML.html#121,121,1920,1080,1920,1080,1-12-2024,21-40-35,14,VR_target_stimuli/s23_0.75x_3.65_351_BC.png,125,0.75x,3.65,3.0,2032,123,meters,jsons/MX_seq25_2_VE125.json,175275,524313,22,Woman
14,921668,final-intermixed-textured,v2,jsons/MX_seq25_2_VE125.json,http://54.235.29.9/FacialAge/BNav_EC2/DepthDuration/MX_fS_VE_MTurk/MX_fS_HTML.html#121,121,1920,1080,1920,1080,1-12-2024,21-40-35,15,VR_target_stimuli/s26_1.3x_4_441.png,125,1.3x,4.0,3.0,1768,125,meters,jsons/MX_seq25_2_VE125.json,175275,524313,22,Woman
15,921668,final-intermixed-textured,v2,jsons/MX_seq25_2_VE125.json,http://54.235.29.9/FacialAge/BNav_EC2/DepthDuration/MX_fS_VE_MTurk/MX_fS_HTML.html#121,121,1920,1080,1920,1080,1-12-2024,21-40-35,16,VR_target_stimuli/s12_1x_3.1_372.png,125,1x,3.1,3.5,3788,138,meters,jsons/MX_seq25_2_VE125.json,175275,524313,22,Woman
16,921668,final-intermixed-textured,v2,jsons/MX_seq25_2_VE125.json,http://54.235.29.9/FacialAge/BNav_EC2/DepthDuration/MX_fS_VE_MTurk/MX_fS_HTML.html#121,121,1920,1080,1920,1080,1-12-2024,21-40-35,17,catch_stimuli/c1.png,125,,,0.0,2952,126,meters,jsons/MX_seq25_2_VE125.json,175275,524313,22,Woman
17,921668,final-intermixed-textured,v2,jsons/MX_seq25_2_VE125.json,http://54.235.29.9/FacialAge/BNav_EC2/DepthDuration/MX_fS_VE_MTurk/MX_fS_HTML.html#121,121,1920,1080,1920,1080,1-12-2024,21-40-35,18,VR_target_stimuli/s30_1x_2.3_334_BC.png,125,1x,2.3,3.0,3377,124,meters,jsons/MX_seq25_2_VE125.json,175275,524313,22,Woman
18,921668,final-intermixed-textured,v2,jsons/MX_seq25_2_VE125.json,http://54.235.29.9/FacialAge/BNav_EC2/DepthDuration/MX_fS_VE_MTurk/MX_fS_HTML.html#121,121,1920,1080,1920,1080,1-12-2024,21-40-35,19,VR_target_stimuli/s16_0.75x_1_217.png,125,0.75x,1.0,2.0,2126,125,meters,jsons/MX_seq25_2_VE125.json,175275,524313,22,Woman
19,921668,final-intermixed-textured,v2,jsons/MX_seq25_2_VE125.json,http://54.235.29.9/FacialAge/BNav_EC2/DepthDuration/MX_fS_VE_MTurk/MX_fS_HTML.html#121,121,1920,1080,1920,1080,1-12-2024,21-40-35,20,VR_target_stimuli/s17_1.3x_1.8_300_BC.png,125,1.3x,1.8,1.5,2977,123,meters,jsons/MX_seq25_2_VE125.json,175275,524313,22,Woman
20,921668,final-intermixed-textured,v2,jsons/MX_seq25_2_VE125.json,http://54.235.29.9/FacialAge/BNav_EC2/DepthDuration/MX_fS_VE_MTurk/MX_fS_HTML.html#121,121,1920,1080,1920,1080,1-12-2024,21-40-35,21,VR_target_stimuli/s5_0.75x_4_375.png,125,0.75x,4.0,2.0,1851,124,meters,jsons/MX_seq25_2_VE125.json,175275,524313,22,Woman
21,921668,final-intermixed-textured,v2,jsons/MX_seq25_2_VE125.json,http://54.235.29.9/FacialAge/BNav_EC2/DepthDuration/MX_fS_VE_MTurk/MX_fS_HTML.html#121,121,1920,1080,1920,1080,1-12-2024,21-40-35,22,VR_target_stimuli/s37_1x_3.3_563.png,125,1x,3.3,2.5,4062,119,meters,jsons/MX_seq25_2_VE125.json,175275,524313,22,Woman
22,921668,final-intermixed-textured,v2,jsons/MX_seq25_2_VE125.json,http://54.235.29.9/FacialAge/BNav_EC2/DepthDuration/MX_fS_VE_MTurk/MX_fS_HTML.html#121,121,1920,1080,1920,1080,1-12-2024,21-40-35,23,VR_target_stimuli/s46_1.3x_2.42_354_BC.png,125,1.3x,2.42,2.0,1734,126,meters,jsons/MX_seq25_2_VE125.json,175275,524313,22,Woman
23,921668,final-intermixed-textured,v2,jsons/MX_seq25_2_VE125.json,http://54.235.29.9/FacialAge/BNav_EC2/DepthDuration/MX_fS_VE_MTurk/MX_fS_HTML.html#121,121,1920,1080,1920,1080,1-12-2024,21-40-35,24,VR_target_stimuli/s22_1x_4.29_354_BC.png,125,1x,4.29,2.0,1571,125,meters,jsons/MX_seq25_2_VE125.json,175275,524313,22,Woman
24,921668,final-intermixed-textured,v2,jsons/MX_seq25_2_VE125.json,http://54.235.29.9/FacialAge/BNav_EC2/DepthDuration/MX_fS_VE_MTurk/MX_fS_HTML.html#121,121,1920,1080,1920,1080,1-12-2024,21-40-35,25,VR_target_stimuli/s42_0.75x_3.2_301_BC.png,125,0.75x,3.2,4.0,1828,124,meters,jsons/MX_seq25_2_VE125.json,175275,524313,22,Woman
25,921668,final-intermixed-textured,v2,jsons/MX_seq25_2_VE125.json,http://54.235.29.9/FacialAge/BNav_EC2/DepthDuration/MX_fS_VE_MTurk/MX_fS_HTML.html#121,121,1920,1080,1920,1080,1-12-2024,21-40-35,26,catch_stimuli/c2.png,125,,,0.0,2753,125,meters,jsons/MX_seq25_2_VE125.json,175275,524313,22,Woman
26,921668,final-intermixed-textured,v2,jsons/MX_seq25_2_VE125.json,http://54.235.29.9/FacialAge/BNav_EC2/DepthDuration/MX_fS_VE_MTurk/MX_fS_HTML.html#121,121,1920,1080,1920,1080,1-12-2024,21-40-35,27,VR_target_stimuli/s25_1.3x_1.4_299.png,125,1.3x,1.4,1.0,5643,140,meters,jsons/MX_seq25_2_VE125.json,175275,524313,22,Woman
27,921668,final-intermixed-textured,v2,jsons/MX_seq25_2_VE125.json,http://54.235.29.9/FacialAge/BNav_EC2/DepthDuration/MX_fS_VE_MTurk/MX_fS_HTML.html#121,121,1920,1080,1920,1080,1-12-2024,21-40-35,28,VR_target_stimuli/s50_1.3x_4.53_518_BC.png,125,1.3x,4.53,2.0,2043,114,meters,jsons/MX_seq25_2_VE125.json,175275,524313,22,Woman
28,921668,final-intermixed-textured,v2,jsons/MX_seq25_2_VE125.json,http://54.235.29.9/FacialAge/BNav_EC2/DepthDuration/MX_fS_VE_MTurk/MX_fS_HTML.html#121,121,1920,1080,1920,1080,1-12-2024,21-40-35,29,VR_target_stimuli/s53_1x_1.6_387_BC.png,125,1x,1.6,0.5,3848,123,meters,jsons/MX_seq25_2_VE125.json,175275,524313,22,Woman
29,921668,final-intermixed-textured,v2,jsons/MX_seq25_2_VE125.json,http://54.235.29.9/FacialAge/BNav_EC2/DepthDuration/MX_fS_VE_MTurk/MX_fS_HTML.html#121,121,1920,1080,1920,1080,1-12-2024,21-40-35,30,VR_target_stimuli/s38_0.75x_3.55_346.png,125,0.75x,3.55,4.0,2555,122,meters,jsons/MX_seq25_2_VE125.json,175275,524313,22,Woman
30,921668,final-intermixed-textured,v2,jsons/MX_seq25_2_VE125.json,http://54.235.29.9/FacialAge/BNav_EC2/DepthDuration/MX_fS_VE_MTurk/MX_fS_HTML.html#121,121,1920,1080,1920,1080,1-12-2024,21-40-35,31,VR_target_stimuli/s9_1.3x_1.2_276.png,125,1.3x,1.2,1.0,2008,127,meters,jsons/MX_seq25_2_VE125.json,175275,524313,22,Woman
31,921668,final-intermixed-textured,v2,jsons/MX_seq25_2_VE125.json,http://54.235.29.9/FacialAge/BNav_EC2/DepthDuration/MX_fS_VE_MTurk/MX_fS_HTML.html#121,121,1920,1080,1920,1080,1-12-2024,21-40-35,32,VR_target_stimuli/s44_0.75x_4.4_314_BC.png,125,0.75x,4.4,2.0,1818,122,meters,jsons/MX_seq25_2_VE125.json,175275,524313,22,Woman
32,921668,final-intermixed-textured,v2,jsons/MX_seq25_2_VE125.json,http://54.235.29.9/FacialAge/BNav_EC2/DepthDuration/MX_fS_VE_MTurk/MX_fS_HTML.html#121,121,1920,1080,1920,1080,1-12-2024,21-40-35,33,VR_target_stimuli/s3_1x_5_385.png,125,1x,5.0,4.0,1905,124,meters,jsons/MX_seq25_2_VE125.json,175275,524313,22,Woman
33,921668,final-intermixed-textured,v2,jsons/MX_seq25_2_VE125.json,http://54.235.29.9/FacialAge/BNav_EC2/DepthDuration/MX_fS_VE_MTurk/MX_fS_HTML.html#121,121,1920,1080,1920,1080,1-12-2024,21-40-35,34,catch_stimuli/c3.png,125,,,0.0,2187,125,meters,jsons/MX_seq25_2_VE125.json,175275,524313,22,Woman
34,921668,final-intermixed-textured,v2,jsons/MX_seq25_2_VE125.json,http://54.235.29.9/FacialAge/BNav_EC2/DepthDuration/MX_fS_VE_MTurk/MX_fS_HTML.html#121,121,1920,1080,1920,1080,1-12-2024,21-40-35,35,VR_target_stimuli/s1_0.75x_1.7_265.png,125,0.75x,1.7,3.0,2060,129,meters,jsons/MX_seq25_2_VE125.json,175275,524313,22,Woman
35,921668,final-intermixed-textured,v2,jsons/MX_seq25_2_VE125.json,http://54.235.29.9/FacialAge/BNav_EC2/DepthDuration/MX_fS_VE_MTurk/MX_fS_HTML.html#121,121,1920,1080,1920,1080,1-12-2024,21-40-35,36,VR_target_stimuli/s11_1.3x_5_363.png,125,1.3x,5.0,3.0,1749,124,meters,jsons/MX_seq25_2_VE125.json,175275,524313,22,Woman
36,921668,final-intermixed-textured,v2,jsons/MX_seq25_2_VE125.json,http://54.235.29.9/FacialAge/BNav_EC2/DepthDuration/MX_fS_VE_MTurk/MX_fS_HTML.html#121,121,1920,1080,1920,1080,1-12-2024,21-40-35,37,VR_target_stimuli/s2_1x_2.7_390_BC.png,125,1x,2.7,2.0,1565,139,meters,jsons/MX_seq25_2_VE125.json,175275,524313,22,Woman
37,921668,final-intermixed-textured,v2,jsons/MX_seq25_2_VE125.json,http://54.235.29.9/FacialAge/BNav_EC2/DepthDuration/MX_fS_VE_MTurk/MX_fS_HTML.html#121,121,1920,1080,1920,1080,1-12-2024,21-40-35,38,VR_target_stimuli/s6_1x_2.1_293.png,125,1x,2.1,2.0,1867,128,meters,jsons/MX_seq25_2_VE125.json,175275,524313,22,Woman
38,921668,final-intermixed-textured,v2,jsons/MX_seq25_2_VE125.json,http://54.235.29.9/FacialAge/BNav_EC2/DepthDuration/MX_fS_VE_MTurk/MX_fS_HTML.html#121,121,1920,1080,1920,1080,1-12-2024,21-40-35,39,VR_target_stimuli/s0_0.75x_2.6_345_BC.png,125,0.75x,2.6,2.0,2067,124,meters,jsons/MX_seq25_2_VE125.json,175275,524313,22,Woman
39,921668,final-intermixed-textured,v2,jsons/MX_seq25_2_VE125.json,http://54.235.29.9/FacialAge/BNav_EC2/DepthDuration/MX_fS_VE_MTurk/MX_fS_HTML.html#121,121,1920,1080,1920,1080,1-12-2024,21-40-35,40,VR_target_stimuli/s34_1.3x_2.8_294_BC.png,125,1.3x,2.8,4.0,1797,124,meters,jsons/MX_seq25_2_VE125.json,175275,524313,22,Woman
40,921668,final-intermixed-textured,v2,jsons/MX_seq25_2_VE125.json,http://54.235.29.9/FacialAge/BNav_EC2/DepthDuration/MX_fS_VE_MTurk/MX_fS_HTML.html#121,121,1920,1080,1920,1080,1-12-2024,21-40-35,41,VR_target_stimuli/s13_0.75x_2.4_308_BC.png,125,0.75x,2.4,3.0,1970,124,meters,jsons/MX_seq25_2_VE125.json,175275,524313,22,Woman
41,921668,final-intermixed-textured,v2,jsons/MX_seq25_2_VE125.json,http://54.235.29.9/FacialAge/BNav_EC2/DepthDuration/MX_fS_VE_MTurk/MX_fS_HTML.html#121,121,1920,1080,1920,1080,1-12-2024,21-40-35,42,VR_target_stimuli/s14_1x_ 3.83_357_BC.png,125,1x,3.83,4.0,1649,124,meters,jsons/MX_seq25_2_VE125.json,175275,524313,22,Woman
42,921668,final-intermixed-textured,v2,jsons/MX_seq25_2_VE125.json,http://54.235.29.9/FacialAge/BNav_EC2/DepthDuration/MX_fS_VE_MTurk/MX_fS_HTML.html#121,121,1920,1080,1920,1080,1-12-2024,21-40-35,43,VR_target_stimuli/s47_1.3x_3.45_373.png,125,1.3x,3.45,0.0,3708,117,meters,jsons/MX_seq25_2_VE125.json,175275,524313,22,Woman
43,921668,final-intermixed-textured,v2,jsons/MX_seq25_2_VE125.json,http://54.235.29.9/FacialAge/BNav_EC2/DepthDuration/MX_fS_VE_MTurk/MX_fS_HTML.html#121,121,1920,1080,1920,1080,1-12-2024,21-40-35,44,VR_target_stimuli/s29_1x_1.3_250.png,125,1x,1.3,1.0,1779,124,meters,jsons/MX_seq25_2_VE125.json,175275,524313,22,Woman
44,921668,final-intermixed-textured,v2,jsons/MX_seq25_2_VE125.json,http://54.235.29.9/FacialAge/BNav_EC2/DepthDuration/MX_fS_VE_MTurk/MX_fS_HTML.html#121,121,1920,1080,1920,1080,1-12-2024,21-40-35,45,catch_stimuli/c4.png,125,,,0.0,1947,123,meters,jsons/MX_seq25_2_VE125.json,175275,524313,22,Woman
45,921668,final-intermixed-textured,v2,jsons/MX_seq25_2_VE125.json,http://54.235.29.9/FacialAge/BNav_EC2/DepthDuration/MX_fS_VE_MTurk/MX_fS_HTML.html#121,121,1920,1080,1920,1080,1-12-2024,21-40-35,46,VR_target_stimuli/s28_0.75x_3.2_357.png,125,0.75x,3.2,3.0,2309,124,meters,jsons/MX_seq25_2_VE125.json,175275,524313,22,Woman
46,921668,final-intermixed-textured,v2,jsons/MX_seq25_2_VE125.json,http://54.235.29.9/FacialAge/BNav_EC2/DepthDuration/MX_fS_VE_MTurk/MX_fS_HTML.html#121,121,1920,1080,1920,1080,1-12-2024,21-40-35,47,VR_target_stimuli/s48_1.3x_2.55_255_BC.png,125,1.3x,2.55,1.0,2169,123,meters,jsons/MX_seq25_2_VE125.json,175275,524313,22,Woman
47,921668,final-intermixed-textured,v2,jsons/MX_seq25_2_VE125.json,http://54.235.29.9/FacialAge/BNav_EC2/DepthDuration/MX_fS_VE_MTurk/MX_fS_HTML.html#121,121,1920,1080,1920,1080,1-12-2024,21-40-35,48,VR_target_stimuli/s19_1.3x_1.21_270.png,125,1.3x,1.21,1.0,1517,124,meters,jsons/MX_seq25_2_VE125.json,175275,524313,22,Woman
48,921668,final-intermixed-textured,v2,jsons/MX_seq25_2_VE125.json,http://54.235.29.9/FacialAge/BNav_EC2/DepthDuration/MX_fS_VE_MTurk/MX_fS_HTML.html#121,121,1920,1080,1920,1080,1-12-2024,21-40-35,49,VR_target_stimuli/s21_1x_4.22_379.png,125,1x,4.22,5.0,4052,122,meters,jsons/MX_seq25_2_VE125.json,175275,524313,22,Woman
49,921668,final-intermixed-textured,v2,jsons/MX_seq25_2_VE125.json,http://54.235.29.9/FacialAge/BNav_EC2/DepthDuration/MX_fS_VE_MTurk/MX_fS_HTML.html#121,121,1920,1080,1920,1080,1-12-2024,21-40-35,50,VR_target_stimuli/s8_0.75x_3.1_325.png,125,0.75x,3.1,2.0,2755,118,meters,jsons/MX_seq25_2_VE125.json,175275,524313,22,Woman
50,921668,final-intermixed-textured,v2,jsons/MX_seq25_2_VE125.json,http://54.235.29.9/FacialAge/BNav_EC2/DepthDuration/MX_fS_VE_MTurk/MX_fS_HTML.html#121,121,1920,1080,1920,1080,1-12-2024,21-40-35,51,VR_target_stimuli/s27_1x_1.76_248_BC.png,125,1x,1.76,2.0,1623,123,meters,jsons/MX_seq25_2_VE125.json,175275,524313,22,Woman
51,921668,final-intermixed-textured,v2,jsons/MX_seq25_2_VE125.json,http://54.235.29.9/FacialAge/BNav_EC2/DepthDuration/MX_fS_VE_MTurk/MX_fS_HTML.html#121,121,1920,1080,1920,1080,1-12-2024,21-40-35,52,VR_target_stimuli/s15_1.3x_4.2_389_BC.png,125,1.3x,4.2,3.0,1525,124,meters,jsons/MX_seq25_2_VE125.json,175275,524313,22,Woman
52,921668,final-intermixed-textured,v2,jsons/MX_seq25_2_VE125.json,http://54.235.29.9/FacialAge/BNav_EC2/DepthDuration/MX_fS_VE_MTurk/MX_fS_HTML.html#121,121,1920,1080,1920,1080,1-12-2024,21-40-35,53,catch_stimuli/c5.png,125,,,0.0,2015,123,meters,jsons/MX_seq25_2_VE125.json,175275,524313,22,Woman
53,921668,final-intermixed-textured,v2,jsons/MX_seq25_2_VE125.json,http://54.235.29.9/FacialAge/BNav_EC2/DepthDuration/MX_fS_VE_MTurk/MX_fS_HTML.html#121,121,1920,1080,1920,1080,1-12-2024,21-40-35,54,VR_target_stimuli/s4_0.75x_1.4_301_BC.png,125,0.75x,1.4,3.0,1863,123,meters,jsons/MX_seq25_2_VE125.json,175275,524313,22,Woman
54,921668,final-intermixed-textured,v2,jsons/MX_seq25_2_VE125.json,http://54.235.29.9/FacialAge/BNav_EC2/DepthDuration/MX_fS_VE_MTurk/MX_fS_HTML.html#121,121,1920,1080,1920,1080,1-12-2024,21-40-35,55,VR_target_stimuli/s35_1.3x_2_338_BC.png,125,1.3x,2.0,1.0,4733,138,meters,jsons/MX_seq25_2_VE125.json,175275,524313,22,Woman
55,921668,final-intermixed-textured,v2,jsons/MX_seq25_2_VE125.json,http://54.235.29.9/FacialAge/BNav_EC2/DepthDuration/MX_fS_VE_MTurk/MX_fS_HTML.html#121,121,1920,1080,1920,1080,1-12-2024,21-40-35,56,VR_target_stimuli/s49_1x_4.67_341.png,125,1x,4.67,4.0,1785,124,meters,jsons/MX_seq25_2_VE125.json,175275,524313,22,Woman
56,921668,final-intermixed-textured,v2,jsons/MX_seq25_2_VE125.json,http://54.235.29.9/FacialAge/BNav_EC2/DepthDuration/MX_fS_VE_MTurk/MX_fS_HTML.html#121,121,1920,1080,1920,1080,1-12-2024,21-40-35,57,VR_target_stimuli/s7_0.75x_1.5_253.png,125,0.75x,1.5,3.0,1774,124,meters,jsons/MX_seq25_2_VE125.json,175275,524313,22,Woman
57,921668,final-intermixed-textured,v2,jsons/MX_seq25_2_VE125.json,http://54.235.29.9/FacialAge/BNav_EC2/DepthDuration/MX_fS_VE_MTurk/MX_fS_HTML.html#121,121,1920,1080,1920,1080,1-12-2024,21-40-35,58,VR_target_stimuli/s20_0.75x_4.99_390_BC.png,125,0.75x,4.99,4.0,1777,133,meters,jsons/MX_seq25_2_VE125.json,175275,524313,22,Woman
58,921668,final-intermixed-textured,v2,jsons/MX_seq25_2_VE125.json,http://54.235.29.9/FacialAge/BNav_EC2/DepthDuration/MX_fS_VE_MTurk/MX_fS_HTML.html#121,121,1920,1080,1920,1080,1-12-2024,21-40-35,59,VR_target_stimuli/s31_1.3x_4.96_342.png,125,1.3x,4.96,2.0,1599,124,meters,jsons/MX_seq25_2_VE125.json,175275,524313,22,Woman
59,921668,final-intermixed-textured,v2,jsons/MX_seq25_2_VE125.json,http://54.235.29.9/FacialAge/BNav_EC2/DepthDuration/MX_fS_VE_MTurk/MX_fS_HTML.html#121,121,1920,1080,1920,1080,1-12-2024,21-40-35,60,VR_target_stimuli/s33_1x_3.1_366_BC.png,125,1x,3.1,3.0,1585,123,meters,jsons/MX_seq25_2_VE125.json,175275,524313,22,Woman
