,subjID,experimentName,versionName,sequenceName,url,selected_row,windowWidth,windowHeight,screenWidth,screenHeight,startDate,startTime,trial,stimulus,duration,scale,actual_depth,depth_estimate,trial_RT,log_sceneDuration,unitSelection,seq_filepath,experimentTime,totalTime,age,gender
0,930635,final-intermixed-textured,v2,jsons/MX_seq34_2_VE125_flipped.json,http://54.235.29.9/FacialAge/BNav_EC2/DepthDuration/MX_fS_VE_MTurk/MX_fS_HTML.html#287,287,1366,617,1366,768,1-12-2024,21-46-14,1,VR_target_stimuli/s40_1x_1.2_319_BC.png,125,1x,1.2,2,11516,125,meters,jsons/MX_seq34_2_VE125_flipped.json,357495,454857,33,Man
1,930635,final-intermixed-textured,v2,jsons/MX_seq34_2_VE125_flipped.json,http://54.235.29.9/FacialAge/BNav_EC2/DepthDuration/MX_fS_VE_MTurk/MX_fS_HTML.html#287,287,1366,617,1366,768,1-12-2024,21-46-14,2,VR_target_stimuli/s41_1.3x_2.1_294.png,125,1.3x,2.1,3,7652,125,meters,jsons/MX_seq34_2_VE125_flipped.json,357495,454857,33,Man
2,930635,final-intermixed-textured,v2,jsons/MX_seq34_2_VE125_flipped.json,http://54.235.29.9/FacialAge/BNav_EC2/DepthDuration/MX_fS_VE_MTurk/MX_fS_HTML.html#287,287,1366,617,1366,768,1-12-2024,21-46-14,3,VR_target_stimuli/s45_0.75x_3.5_362_BC.png,125,0.75x,3.5,2,5883,124,meters,jsons/MX_seq34_2_VE125_flipped.json,357495,454857,33,Man
3,930635,final-intermixed-textured,v2,jsons/MX_seq34_2_VE125_flipped.json,http://54.235.29.9/FacialAge/BNav_EC2/DepthDuration/MX_fS_VE_MTurk/MX_fS_HTML.html#287,287,1366,617,1366,768,1-12-2024,21-46-14,4,VR_target_stimuli/s23_1.3x_3.65_354_BC.png,125,1.3x,3.65,1,4853,124,meters,jsons/MX_seq34_2_VE125_flipped.json,357495,454857,33,Man
4,930635,final-intermixed-textured,v2,jsons/MX_seq34_2_VE125_flipped.json,http://54.235.29.9/FacialAge/BNav_EC2/DepthDuration/MX_fS_VE_MTurk/MX_fS_HTML.html#287,287,1366,617,1366,768,1-12-2024,21-46-14,5,VR_target_stimuli/s26_1x_4_433.png,125,1x,4.0,0,4234,124,meters,jsons/MX_seq34_2_VE125_flipped.json,357495,454857,33,Man
5,930635,final-intermixed-textured,v2,jsons/MX_seq34_2_VE125_flipped.json,http://54.235.29.9/FacialAge/BNav_EC2/DepthDuration/MX_fS_VE_MTurk/MX_fS_HTML.html#287,287,1366,617,1366,768,1-12-2024,21-46-14,6,VR_target_stimuli/s12_0.75x_3.1_364.png,125,0.75x,3.1,4,3823,125,meters,jsons/MX_seq34_2_VE125_flipped.json,357495,454857,33,Man
6,930635,final-intermixed-textured,v2,jsons/MX_seq34_2_VE125_flipped.json,http://54.235.29.9/FacialAge/BNav_EC2/DepthDuration/MX_fS_VE_MTurk/MX_fS_HTML.html#287,287,1366,617,1366,768,1-12-2024,21-46-14,7,catch_stimuli/c0_BC.png,125,,,0,3296,125,meters,jsons/MX_seq34_2_VE125_flipped.json,357495,454857,33,Man
7,930635,final-intermixed-textured,v2,jsons/MX_seq34_2_VE125_flipped.json,http://54.235.29.9/FacialAge/BNav_EC2/DepthDuration/MX_fS_VE_MTurk/MX_fS_HTML.html#287,287,1366,617,1366,768,1-12-2024,21-46-14,8,VR_target_stimuli/s30_0.75x_2.3_332.png,125,0.75x,2.3,3,4345,125,meters,jsons/MX_seq34_2_VE125_flipped.json,357495,454857,33,Man
8,930635,final-intermixed-textured,v2,jsons/MX_seq34_2_VE125_flipped.json,http://54.235.29.9/FacialAge/BNav_EC2/DepthDuration/MX_fS_VE_MTurk/MX_fS_HTML.html#287,287,1366,617,1366,768,1-12-2024,21-46-14,9,VR_target_stimuli/s16_1.3x_1_223.png,125,1.3x,1.0,2,5650,124,meters,jsons/MX_seq34_2_VE125_flipped.json,357495,454857,33,Man
9,930635,final-intermixed-textured,v2,jsons/MX_seq34_2_VE125_flipped.json,http://54.235.29.9/FacialAge/BNav_EC2/DepthDuration/MX_fS_VE_MTurk/MX_fS_HTML.html#287,287,1366,617,1366,768,1-12-2024,21-46-14,10,VR_target_stimuli/s17_1x_1.8_291_BC.png,125,1x,1.8,2,23481,125,meters,jsons/MX_seq34_2_VE125_flipped.json,357495,454857,33,Man
10,930635,final-intermixed-textured,v2,jsons/MX_seq34_2_VE125_flipped.json,http://54.235.29.9/FacialAge/BNav_EC2/DepthDuration/MX_fS_VE_MTurk/MX_fS_HTML.html#287,287,1366,617,1366,768,1-12-2024,21-46-14,11,VR_target_stimuli/s5_1.3x_4_393_BC.png,125,1.3x,4.0,1,29922,125,meters,jsons/MX_seq34_2_VE125_flipped.json,357495,454857,33,Man
11,930635,final-intermixed-textured,v2,jsons/MX_seq34_2_VE125_flipped.json,http://54.235.29.9/FacialAge/BNav_EC2/DepthDuration/MX_fS_VE_MTurk/MX_fS_HTML.html#287,287,1366,617,1366,768,1-12-2024,21-46-14,12,VR_target_stimuli/s37_0.75x_3.3_567_BC.png,125,0.75x,3.3,4,3154,125,meters,jsons/MX_seq34_2_VE125_flipped.json,357495,454857,33,Man
12,930635,final-intermixed-textured,v2,jsons/MX_seq34_2_VE125_flipped.json,http://54.235.29.9/FacialAge/BNav_EC2/DepthDuration/MX_fS_VE_MTurk/MX_fS_HTML.html#287,287,1366,617,1366,768,1-12-2024,21-46-14,13,VR_target_stimuli/s46_1x_2.42_348.png,125,1x,2.42,3,4702,124,meters,jsons/MX_seq34_2_VE125_flipped.json,357495,454857,33,Man
13,930635,final-intermixed-textured,v2,jsons/MX_seq34_2_VE125_flipped.json,http://54.235.29.9/FacialAge/BNav_EC2/DepthDuration/MX_fS_VE_MTurk/MX_fS_HTML.html#287,287,1366,617,1366,768,1-12-2024,21-46-14,14,VR_target_stimuli/s22_0.75x_4.29_348_BC.png,125,0.75x,4.29,2,15609,125,meters,jsons/MX_seq34_2_VE125_flipped.json,357495,454857,33,Man
14,930635,final-intermixed-textured,v2,jsons/MX_seq34_2_VE125_flipped.json,http://54.235.29.9/FacialAge/BNav_EC2/DepthDuration/MX_fS_VE_MTurk/MX_fS_HTML.html#287,287,1366,617,1366,768,1-12-2024,21-46-14,15,VR_target_stimuli/s42_1.3x_3.2_305_BC.png,125,1.3x,3.2,3,3165,125,meters,jsons/MX_seq34_2_VE125_flipped.json,357495,454857,33,Man
15,930635,final-intermixed-textured,v2,jsons/MX_seq34_2_VE125_flipped.json,http://54.235.29.9/FacialAge/BNav_EC2/DepthDuration/MX_fS_VE_MTurk/MX_fS_HTML.html#287,287,1366,617,1366,768,1-12-2024,21-46-14,16,VR_target_stimuli/s25_1x_1.4_290.png,125,1x,1.4,2,3884,125,meters,jsons/MX_seq34_2_VE125_flipped.json,357495,454857,33,Man
16,930635,final-intermixed-textured,v2,jsons/MX_seq34_2_VE125_flipped.json,http://54.235.29.9/FacialAge/BNav_EC2/DepthDuration/MX_fS_VE_MTurk/MX_fS_HTML.html#287,287,1366,617,1366,768,1-12-2024,21-46-14,17,catch_stimuli/c1_BC.png,125,,,3,6798,123,meters,jsons/MX_seq34_2_VE125_flipped.json,357495,454857,33,Man
17,930635,final-intermixed-textured,v2,jsons/MX_seq34_2_VE125_flipped.json,http://54.235.29.9/FacialAge/BNav_EC2/DepthDuration/MX_fS_VE_MTurk/MX_fS_HTML.html#287,287,1366,617,1366,768,1-12-2024,21-46-14,18,VR_target_stimuli/s50_1x_4.53_518_BC.png,125,1x,4.53,4,3384,125,meters,jsons/MX_seq34_2_VE125_flipped.json,357495,454857,33,Man
18,930635,final-intermixed-textured,v2,jsons/MX_seq34_2_VE125_flipped.json,http://54.235.29.9/FacialAge/BNav_EC2/DepthDuration/MX_fS_VE_MTurk/MX_fS_HTML.html#287,287,1366,617,1366,768,1-12-2024,21-46-14,19,VR_target_stimuli/s53_0.75x_1.6_403.png,125,0.75x,1.6,1,3844,124,meters,jsons/MX_seq34_2_VE125_flipped.json,357495,454857,33,Man
19,930635,final-intermixed-textured,v2,jsons/MX_seq34_2_VE125_flipped.json,http://54.235.29.9/FacialAge/BNav_EC2/DepthDuration/MX_fS_VE_MTurk/MX_fS_HTML.html#287,287,1366,617,1366,768,1-12-2024,21-46-14,20,VR_target_stimuli/s38_1.3x_3.55_358.png,125,1.3x,3.55,4,3772,124,meters,jsons/MX_seq34_2_VE125_flipped.json,357495,454857,33,Man
20,930635,final-intermixed-textured,v2,jsons/MX_seq34_2_VE125_flipped.json,http://54.235.29.9/FacialAge/BNav_EC2/DepthDuration/MX_fS_VE_MTurk/MX_fS_HTML.html#287,287,1366,617,1366,768,1-12-2024,21-46-14,21,VR_target_stimuli/s9_0.75x_1.2_260.png,125,0.75x,1.2,2,2925,124,meters,jsons/MX_seq34_2_VE125_flipped.json,357495,454857,33,Man
21,930635,final-intermixed-textured,v2,jsons/MX_seq34_2_VE125_flipped.json,http://54.235.29.9/FacialAge/BNav_EC2/DepthDuration/MX_fS_VE_MTurk/MX_fS_HTML.html#287,287,1366,617,1366,768,1-12-2024,21-46-14,22,VR_target_stimuli/s44_1x_4.4_317.png,125,1x,4.4,2,3375,125,meters,jsons/MX_seq34_2_VE125_flipped.json,357495,454857,33,Man
22,930635,final-intermixed-textured,v2,jsons/MX_seq34_2_VE125_flipped.json,http://54.235.29.9/FacialAge/BNav_EC2/DepthDuration/MX_fS_VE_MTurk/MX_fS_HTML.html#287,287,1366,617,1366,768,1-12-2024,21-46-14,23,VR_target_stimuli/s3_1.3x_5_390.png,125,1.3x,5.0,5,5580,124,meters,jsons/MX_seq34_2_VE125_flipped.json,357495,454857,33,Man
23,930635,final-intermixed-textured,v2,jsons/MX_seq34_2_VE125_flipped.json,http://54.235.29.9/FacialAge/BNav_EC2/DepthDuration/MX_fS_VE_MTurk/MX_fS_HTML.html#287,287,1366,617,1366,768,1-12-2024,21-46-14,24,VR_target_stimuli/s1_1x_1.7_262_BC.png,125,1x,1.7,3,2844,124,meters,jsons/MX_seq34_2_VE125_flipped.json,357495,454857,33,Man
24,930635,final-intermixed-textured,v2,jsons/MX_seq34_2_VE125_flipped.json,http://54.235.29.9/FacialAge/BNav_EC2/DepthDuration/MX_fS_VE_MTurk/MX_fS_HTML.html#287,287,1366,617,1366,768,1-12-2024,21-46-14,25,VR_target_stimuli/s11_0.75x_5_359_BC.png,125,0.75x,5.0,5,3255,126,meters,jsons/MX_seq34_2_VE125_flipped.json,357495,454857,33,Man
25,930635,final-intermixed-textured,v2,jsons/MX_seq34_2_VE125_flipped.json,http://54.235.29.9/FacialAge/BNav_EC2/DepthDuration/MX_fS_VE_MTurk/MX_fS_HTML.html#287,287,1366,617,1366,768,1-12-2024,21-46-14,26,catch_stimuli/c2_BC.png,125,,,0,7159,125,meters,jsons/MX_seq34_2_VE125_flipped.json,357495,454857,33,Man
26,930635,final-intermixed-textured,v2,jsons/MX_seq34_2_VE125_flipped.json,http://54.235.29.9/FacialAge/BNav_EC2/DepthDuration/MX_fS_VE_MTurk/MX_fS_HTML.html#287,287,1366,617,1366,768,1-12-2024,21-46-14,27,VR_target_stimuli/s2_1.3x_2.7_397_BC.png,125,1.3x,2.7,3,4743,125,meters,jsons/MX_seq34_2_VE125_flipped.json,357495,454857,33,Man
27,930635,final-intermixed-textured,v2,jsons/MX_seq34_2_VE125_flipped.json,http://54.235.29.9/FacialAge/BNav_EC2/DepthDuration/MX_fS_VE_MTurk/MX_fS_HTML.html#287,287,1366,617,1366,768,1-12-2024,21-46-14,28,VR_target_stimuli/s6_1.3x_2.1_298.png,125,1.3x,2.1,2,2715,124,meters,jsons/MX_seq34_2_VE125_flipped.json,357495,454857,33,Man
28,930635,final-intermixed-textured,v2,jsons/MX_seq34_2_VE125_flipped.json,http://54.235.29.9/FacialAge/BNav_EC2/DepthDuration/MX_fS_VE_MTurk/MX_fS_HTML.html#287,287,1366,617,1366,768,1-12-2024,21-46-14,29,VR_target_stimuli/s0_1x_2.6_351.png,125,1x,2.6,3,4651,125,meters,jsons/MX_seq34_2_VE125_flipped.json,357495,454857,33,Man
29,930635,final-intermixed-textured,v2,jsons/MX_seq34_2_VE125_flipped.json,http://54.235.29.9/FacialAge/BNav_EC2/DepthDuration/MX_fS_VE_MTurk/MX_fS_HTML.html#287,287,1366,617,1366,768,1-12-2024,21-46-14,30,VR_target_stimuli/s34_0.75x_2.8_269.png,125,0.75x,2.8,3,7319,125,meters,jsons/MX_seq34_2_VE125_flipped.json,357495,454857,33,Man
30,930635,final-intermixed-textured,v2,jsons/MX_seq34_2_VE125_flipped.json,http://54.235.29.9/FacialAge/BNav_EC2/DepthDuration/MX_fS_VE_MTurk/MX_fS_HTML.html#287,287,1366,617,1366,768,1-12-2024,21-46-14,31,VR_target_stimuli/s13_1.3x_2.4_313_BC.png,125,1.3x,2.4,3,13020,126,meters,jsons/MX_seq34_2_VE125_flipped.json,357495,454857,33,Man
31,930635,final-intermixed-textured,v2,jsons/MX_seq34_2_VE125_flipped.json,http://54.235.29.9/FacialAge/BNav_EC2/DepthDuration/MX_fS_VE_MTurk/MX_fS_HTML.html#287,287,1366,617,1366,768,1-12-2024,21-46-14,32,VR_target_stimuli/s14_0.75x_3.83_355_BC.png,125,0.75x,3.83,3,6308,124,meters,jsons/MX_seq34_2_VE125_flipped.json,357495,454857,33,Man
32,930635,final-intermixed-textured,v2,jsons/MX_seq34_2_VE125_flipped.json,http://54.235.29.9/FacialAge/BNav_EC2/DepthDuration/MX_fS_VE_MTurk/MX_fS_HTML.html#287,287,1366,617,1366,768,1-12-2024,21-46-14,33,VR_target_stimuli/s47_1x_3.45_370_BC.png,125,1x,3.45,2,5640,125,meters,jsons/MX_seq34_2_VE125_flipped.json,357495,454857,33,Man
33,930635,final-intermixed-textured,v2,jsons/MX_seq34_2_VE125_flipped.json,http://54.235.29.9/FacialAge/BNav_EC2/DepthDuration/MX_fS_VE_MTurk/MX_fS_HTML.html#287,287,1366,617,1366,768,1-12-2024,21-46-14,34,catch_stimuli/c3_BC.png,125,,,0,4083,124,meters,jsons/MX_seq34_2_VE125_flipped.json,357495,454857,33,Man
34,930635,final-intermixed-textured,v2,jsons/MX_seq34_2_VE125_flipped.json,http://54.235.29.9/FacialAge/BNav_EC2/DepthDuration/MX_fS_VE_MTurk/MX_fS_HTML.html#287,287,1366,617,1366,768,1-12-2024,21-46-14,35,VR_target_stimuli/s29_0.75x_1.3_246.png,125,0.75x,1.3,2,12247,125,meters,jsons/MX_seq34_2_VE125_flipped.json,357495,454857,33,Man
35,930635,final-intermixed-textured,v2,jsons/MX_seq34_2_VE125_flipped.json,http://54.235.29.9/FacialAge/BNav_EC2/DepthDuration/MX_fS_VE_MTurk/MX_fS_HTML.html#287,287,1366,617,1366,768,1-12-2024,21-46-14,36,VR_target_stimuli/s28_1.3x_3.2_365_BC.png,125,1.3x,3.2,3,8055,124,meters,jsons/MX_seq34_2_VE125_flipped.json,357495,454857,33,Man
36,930635,final-intermixed-textured,v2,jsons/MX_seq34_2_VE125_flipped.json,http://54.235.29.9/FacialAge/BNav_EC2/DepthDuration/MX_fS_VE_MTurk/MX_fS_HTML.html#287,287,1366,617,1366,768,1-12-2024,21-46-14,37,VR_target_stimuli/s48_1x_2.55_256_BC.png,125,1x,2.55,3,3113,124,meters,jsons/MX_seq34_2_VE125_flipped.json,357495,454857,33,Man
37,930635,final-intermixed-textured,v2,jsons/MX_seq34_2_VE125_flipped.json,http://54.235.29.9/FacialAge/BNav_EC2/DepthDuration/MX_fS_VE_MTurk/MX_fS_HTML.html#287,287,1366,617,1366,768,1-12-2024,21-46-14,38,VR_target_stimuli/s19_1x_1.21_263.png,125,1x,1.21,2,3223,124,meters,jsons/MX_seq34_2_VE125_flipped.json,357495,454857,33,Man
38,930635,final-intermixed-textured,v2,jsons/MX_seq34_2_VE125_flipped.json,http://54.235.29.9/FacialAge/BNav_EC2/DepthDuration/MX_fS_VE_MTurk/MX_fS_HTML.html#287,287,1366,617,1366,768,1-12-2024,21-46-14,39,VR_target_stimuli/s21_0.75x_4.22_374_BC.png,125,0.75x,4.22,5,4189,125,meters,jsons/MX_seq34_2_VE125_flipped.json,357495,454857,33,Man
39,930635,final-intermixed-textured,v2,jsons/MX_seq34_2_VE125_flipped.json,http://54.235.29.9/FacialAge/BNav_EC2/DepthDuration/MX_fS_VE_MTurk/MX_fS_HTML.html#287,287,1366,617,1366,768,1-12-2024,21-46-14,40,VR_target_stimuli/s8_1.3x_3.1_345.png,125,1.3x,3.1,3,2737,125,meters,jsons/MX_seq34_2_VE125_flipped.json,357495,454857,33,Man
40,930635,final-intermixed-textured,v2,jsons/MX_seq34_2_VE125_flipped.json,http://54.235.29.9/FacialAge/BNav_EC2/DepthDuration/MX_fS_VE_MTurk/MX_fS_HTML.html#287,287,1366,617,1366,768,1-12-2024,21-46-14,41,VR_target_stimuli/s27_0.75x_1.76_243_BC.png,125,0.75x,1.76,3,3164,126,meters,jsons/MX_seq34_2_VE125_flipped.json,357495,454857,33,Man
41,930635,final-intermixed-textured,v2,jsons/MX_seq34_2_VE125_flipped.json,http://54.235.29.9/FacialAge/BNav_EC2/DepthDuration/MX_fS_VE_MTurk/MX_fS_HTML.html#287,287,1366,617,1366,768,1-12-2024,21-46-14,42,VR_target_stimuli/s15_1x_4.2_390_BC.png,125,1x,4.2,4,3503,125,meters,jsons/MX_seq34_2_VE125_flipped.json,357495,454857,33,Man
42,930635,final-intermixed-textured,v2,jsons/MX_seq34_2_VE125_flipped.json,http://54.235.29.9/FacialAge/BNav_EC2/DepthDuration/MX_fS_VE_MTurk/MX_fS_HTML.html#287,287,1366,617,1366,768,1-12-2024,21-46-14,43,VR_target_stimuli/s4_1.3x_1.4_328.png,125,1.3x,1.4,1,6049,126,meters,jsons/MX_seq34_2_VE125_flipped.json,357495,454857,33,Man
43,930635,final-intermixed-textured,v2,jsons/MX_seq34_2_VE125_flipped.json,http://54.235.29.9/FacialAge/BNav_EC2/DepthDuration/MX_fS_VE_MTurk/MX_fS_HTML.html#287,287,1366,617,1366,768,1-12-2024,21-46-14,44,VR_target_stimuli/s35_1x_2_331.png,125,1x,2.0,1,2883,124,meters,jsons/MX_seq34_2_VE125_flipped.json,357495,454857,33,Man
44,930635,final-intermixed-textured,v2,jsons/MX_seq34_2_VE125_flipped.json,http://54.235.29.9/FacialAge/BNav_EC2/DepthDuration/MX_fS_VE_MTurk/MX_fS_HTML.html#287,287,1366,617,1366,768,1-12-2024,21-46-14,45,catch_stimuli/c4_BC.png,125,,,0,3552,124,meters,jsons/MX_seq34_2_VE125_flipped.json,357495,454857,33,Man
45,930635,final-intermixed-textured,v2,jsons/MX_seq34_2_VE125_flipped.json,http://54.235.29.9/FacialAge/BNav_EC2/DepthDuration/MX_fS_VE_MTurk/MX_fS_HTML.html#287,287,1366,617,1366,768,1-12-2024,21-46-14,46,VR_target_stimuli/s49_0.75x_4.67_328.png,125,0.75x,4.67,3,4771,124,meters,jsons/MX_seq34_2_VE125_flipped.json,357495,454857,33,Man
46,930635,final-intermixed-textured,v2,jsons/MX_seq34_2_VE125_flipped.json,http://54.235.29.9/FacialAge/BNav_EC2/DepthDuration/MX_fS_VE_MTurk/MX_fS_HTML.html#287,287,1366,617,1366,768,1-12-2024,21-46-14,47,VR_target_stimuli/s7_1.3x_1.5_256_BC.png,125,1.3x,1.5,2,2941,124,meters,jsons/MX_seq34_2_VE125_flipped.json,357495,454857,33,Man
47,930635,final-intermixed-textured,v2,jsons/MX_seq34_2_VE125_flipped.json,http://54.235.29.9/FacialAge/BNav_EC2/DepthDuration/MX_fS_VE_MTurk/MX_fS_HTML.html#287,287,1366,617,1366,768,1-12-2024,21-46-14,48,VR_target_stimuli/s20_1.3x_4.99_412_BC.png,125,1.3x,4.99,3,2705,125,meters,jsons/MX_seq34_2_VE125_flipped.json,357495,454857,33,Man
48,930635,final-intermixed-textured,v2,jsons/MX_seq34_2_VE125_flipped.json,http://54.235.29.9/FacialAge/BNav_EC2/DepthDuration/MX_fS_VE_MTurk/MX_fS_HTML.html#287,287,1366,617,1366,768,1-12-2024,21-46-14,49,VR_target_stimuli/s31_1x_4.96_333.png,125,1x,4.96,0,5348,125,meters,jsons/MX_seq34_2_VE125_flipped.json,357495,454857,33,Man
49,930635,final-intermixed-textured,v2,jsons/MX_seq34_2_VE125_flipped.json,http://54.235.29.9/FacialAge/BNav_EC2/DepthDuration/MX_fS_VE_MTurk/MX_fS_HTML.html#287,287,1366,617,1366,768,1-12-2024,21-46-14,50,VR_target_stimuli/s33_0.75x_3.1_361_BC.png,125,0.75x,3.1,3,3551,124,meters,jsons/MX_seq34_2_VE125_flipped.json,357495,454857,33,Man
50,930635,final-intermixed-textured,v2,jsons/MX_seq34_2_VE125_flipped.json,http://54.235.29.9/FacialAge/BNav_EC2/DepthDuration/MX_fS_VE_MTurk/MX_fS_HTML.html#287,287,1366,617,1366,768,1-12-2024,21-46-14,51,VR_target_stimuli/s52_1x_3.2_275_BC.png,125,1x,3.2,3,2624,124,meters,jsons/MX_seq34_2_VE125_flipped.json,357495,454857,33,Man
51,930635,final-intermixed-textured,v2,jsons/MX_seq34_2_VE125_flipped.json,http://54.235.29.9/FacialAge/BNav_EC2/DepthDuration/MX_fS_VE_MTurk/MX_fS_HTML.html#287,287,1366,617,1366,768,1-12-2024,21-46-14,52,VR_target_stimuli/s32_1.3x_1.5_224.png,125,1.3x,1.5,2,3081,125,meters,jsons/MX_seq34_2_VE125_flipped.json,357495,454857,33,Man
52,930635,final-intermixed-textured,v2,jsons/MX_seq34_2_VE125_flipped.json,http://54.235.29.9/FacialAge/BNav_EC2/DepthDuration/MX_fS_VE_MTurk/MX_fS_HTML.html#287,287,1366,617,1366,768,1-12-2024,21-46-14,53,catch_stimuli/c5_BC.png,125,,,0,2713,124,meters,jsons/MX_seq34_2_VE125_flipped.json,357495,454857,33,Man
53,930635,final-intermixed-textured,v2,jsons/MX_seq34_2_VE125_flipped.json,http://54.235.29.9/FacialAge/BNav_EC2/DepthDuration/MX_fS_VE_MTurk/MX_fS_HTML.html#287,287,1366,617,1366,768,1-12-2024,21-46-14,54,VR_target_stimuli/s18_0.75x_2.25_341.png,125,0.75x,2.25,3,2863,126,meters,jsons/MX_seq34_2_VE125_flipped.json,357495,454857,33,Man
54,930635,final-intermixed-textured,v2,jsons/MX_seq34_2_VE125_flipped.json,http://54.235.29.9/FacialAge/BNav_EC2/DepthDuration/MX_fS_VE_MTurk/MX_fS_HTML.html#287,287,1366,617,1366,768,1-12-2024,21-46-14,55,VR_target_stimuli/s39_1.3x_1_208.png,125,1.3x,1.0,0,3842,124,meters,jsons/MX_seq34_2_VE125_flipped.json,357495,454857,33,Man
55,930635,final-intermixed-textured,v2,jsons/MX_seq34_2_VE125_flipped.json,http://54.235.29.9/FacialAge/BNav_EC2/DepthDuration/MX_fS_VE_MTurk/MX_fS_HTML.html#287,287,1366,617,1366,768,1-12-2024,21-46-14,56,VR_target_stimuli/s51_1x_3.64_461.png,125,1x,3.64,2,2723,125,meters,jsons/MX_seq34_2_VE125_flipped.json,357495,454857,33,Man
56,930635,final-intermixed-textured,v2,jsons/MX_seq34_2_VE125_flipped.json,http://54.235.29.9/FacialAge/BNav_EC2/DepthDuration/MX_fS_VE_MTurk/MX_fS_HTML.html#287,287,1366,617,1366,768,1-12-2024,21-46-14,57,VR_target_stimuli/s43_0.75x_2.2_348.png,125,0.75x,2.2,3,2651,124,meters,jsons/MX_seq34_2_VE125_flipped.json,357495,454857,33,Man
57,930635,final-intermixed-textured,v2,jsons/MX_seq34_2_VE125_flipped.json,http://54.235.29.9/FacialAge/BNav_EC2/DepthDuration/MX_fS_VE_MTurk/MX_fS_HTML.html#287,287,1366,617,1366,768,1-12-2024,21-46-14,58,VR_target_stimuli/s24_0.75x_3.3_344_BC.png,125,0.75x,3.3,4,2663,125,meters,jsons/MX_seq34_2_VE125_flipped.json,357495,454857,33,Man
58,930635,final-intermixed-textured,v2,jsons/MX_seq34_2_VE125_flipped.json,http://54.235.29.9/FacialAge/BNav_EC2/DepthDuration/MX_fS_VE_MTurk/MX_fS_HTML.html#287,287,1366,617,1366,768,1-12-2024,21-46-14,59,VR_target_stimuli/s10_1.3x_2.7_325_BC.png,125,1.3x,2.7,3,2812,125,meters,jsons/MX_seq34_2_VE125_flipped.json,357495,454857,33,Man
59,930635,final-intermixed-textured,v2,jsons/MX_seq34_2_VE125_flipped.json,http://54.235.29.9/FacialAge/BNav_EC2/DepthDuration/MX_fS_VE_MTurk/MX_fS_HTML.html#287,287,1366,617,1366,768,1-12-2024,21-46-14,60,VR_target_stimuli/s36_1x_4.1_423_BC.png,125,1x,4.1,5,2833,126,meters,jsons/MX_seq34_2_VE125_flipped.json,357495,454857,33,Man
