,subjID,experimentName,versionName,sequenceName,url,selected_row,windowWidth,windowHeight,screenWidth,screenHeight,startDate,startTime,trial,stimulus,duration,scale,actual_depth,depth_estimate,trial_RT,log_sceneDuration,unitSelection,seq_filepath,experimentTime,totalTime,age,gender
0,962899,final-intermixed-textured,v2,jsons/MX_seq6_0_VE125.json,http://54.235.29.9/FacialAge/BNav_EC2/DepthDuration/MX_fS_VE_MTurk/MX_fS_HTML.html#21,21,1920,1080,1920,1080,1-12-2024,11-36-20,1,VR_target_stimuli/s34_0.75x_2.8_269_BC.png,125,0.75x,2.8,3,5213,117,meters,jsons/MX_seq6_0_VE125.json,207716,347958,28,Man
1,962899,final-intermixed-textured,v2,jsons/MX_seq6_0_VE125.json,http://54.235.29.9/FacialAge/BNav_EC2/DepthDuration/MX_fS_VE_MTurk/MX_fS_HTML.html#21,21,1920,1080,1920,1080,1-12-2024,11-36-20,2,VR_target_stimuli/s13_1x_2.4_310_BC.png,125,1x,2.4,4,6410,120,meters,jsons/MX_seq6_0_VE125.json,207716,347958,28,Man
2,962899,final-intermixed-textured,v2,jsons/MX_seq6_0_VE125.json,http://54.235.29.9/FacialAge/BNav_EC2/DepthDuration/MX_fS_VE_MTurk/MX_fS_HTML.html#21,21,1920,1080,1920,1080,1-12-2024,11-36-20,3,VR_target_stimuli/s14_1.3x_3.83_359.png,125,1.3x,3.83,4,4081,114,meters,jsons/MX_seq6_0_VE125.json,207716,347958,28,Man
3,962899,final-intermixed-textured,v2,jsons/MX_seq6_0_VE125.json,http://54.235.29.9/FacialAge/BNav_EC2/DepthDuration/MX_fS_VE_MTurk/MX_fS_HTML.html#21,21,1920,1080,1920,1080,1-12-2024,11-36-20,4,VR_target_stimuli/s47_1x_3.45_370.png,125,1x,3.45,2,3417,124,meters,jsons/MX_seq6_0_VE125.json,207716,347958,28,Man
4,962899,final-intermixed-textured,v2,jsons/MX_seq6_0_VE125.json,http://54.235.29.9/FacialAge/BNav_EC2/DepthDuration/MX_fS_VE_MTurk/MX_fS_HTML.html#21,21,1920,1080,1920,1080,1-12-2024,11-36-20,5,VR_target_stimuli/s29_0.75x_1.3_246.png,125,0.75x,1.3,3,3904,125,meters,jsons/MX_seq6_0_VE125.json,207716,347958,28,Man
5,962899,final-intermixed-textured,v2,jsons/MX_seq6_0_VE125.json,http://54.235.29.9/FacialAge/BNav_EC2/DepthDuration/MX_fS_VE_MTurk/MX_fS_HTML.html#21,21,1920,1080,1920,1080,1-12-2024,11-36-20,6,VR_target_stimuli/s28_1.3x_3.2_365_BC.png,125,1.3x,3.2,2,4328,126,meters,jsons/MX_seq6_0_VE125.json,207716,347958,28,Man
6,962899,final-intermixed-textured,v2,jsons/MX_seq6_0_VE125.json,http://54.235.29.9/FacialAge/BNav_EC2/DepthDuration/MX_fS_VE_MTurk/MX_fS_HTML.html#21,21,1920,1080,1920,1080,1-12-2024,11-36-20,7,catch_stimuli/c0.png,125,,,0,3745,123,meters,jsons/MX_seq6_0_VE125.json,207716,347958,28,Man
7,962899,final-intermixed-textured,v2,jsons/MX_seq6_0_VE125.json,http://54.235.29.9/FacialAge/BNav_EC2/DepthDuration/MX_fS_VE_MTurk/MX_fS_HTML.html#21,21,1920,1080,1920,1080,1-12-2024,11-36-20,8,VR_target_stimuli/s48_1.3x_2.55_255_BC.png,125,1.3x,2.55,5,5722,131,meters,jsons/MX_seq6_0_VE125.json,207716,347958,28,Man
8,962899,final-intermixed-textured,v2,jsons/MX_seq6_0_VE125.json,http://54.235.29.9/FacialAge/BNav_EC2/DepthDuration/MX_fS_VE_MTurk/MX_fS_HTML.html#21,21,1920,1080,1920,1080,1-12-2024,11-36-20,9,VR_target_stimuli/s19_1x_1.21_263.png,125,1x,1.21,3,4663,124,meters,jsons/MX_seq6_0_VE125.json,207716,347958,28,Man
9,962899,final-intermixed-textured,v2,jsons/MX_seq6_0_VE125.json,http://54.235.29.9/FacialAge/BNav_EC2/DepthDuration/MX_fS_VE_MTurk/MX_fS_HTML.html#21,21,1920,1080,1920,1080,1-12-2024,11-36-20,10,VR_target_stimuli/s21_0.75x_4.22_374_BC.png,125,0.75x,4.22,6,3446,119,meters,jsons/MX_seq6_0_VE125.json,207716,347958,28,Man
10,962899,final-intermixed-textured,v2,jsons/MX_seq6_0_VE125.json,http://54.235.29.9/FacialAge/BNav_EC2/DepthDuration/MX_fS_VE_MTurk/MX_fS_HTML.html#21,21,1920,1080,1920,1080,1-12-2024,11-36-20,11,VR_target_stimuli/s8_1x_3.1_332_BC.png,125,1x,3.1,4,3170,123,meters,jsons/MX_seq6_0_VE125.json,207716,347958,28,Man
11,962899,final-intermixed-textured,v2,jsons/MX_seq6_0_VE125.json,http://54.235.29.9/FacialAge/BNav_EC2/DepthDuration/MX_fS_VE_MTurk/MX_fS_HTML.html#21,21,1920,1080,1920,1080,1-12-2024,11-36-20,12,VR_target_stimuli/s27_1.3x_1.76_250.png,125,1.3x,1.76,4,3933,119,meters,jsons/MX_seq6_0_VE125.json,207716,347958,28,Man
12,962899,final-intermixed-textured,v2,jsons/MX_seq6_0_VE125.json,http://54.235.29.9/FacialAge/BNav_EC2/DepthDuration/MX_fS_VE_MTurk/MX_fS_HTML.html#21,21,1920,1080,1920,1080,1-12-2024,11-36-20,13,VR_target_stimuli/s15_0.75x_4.2_388.png,125,0.75x,4.2,6,2985,113,meters,jsons/MX_seq6_0_VE125.json,207716,347958,28,Man
13,962899,final-intermixed-textured,v2,jsons/MX_seq6_0_VE125.json,http://54.235.29.9/FacialAge/BNav_EC2/DepthDuration/MX_fS_VE_MTurk/MX_fS_HTML.html#21,21,1920,1080,1920,1080,1-12-2024,11-36-20,14,VR_target_stimuli/s4_1.3x_1.4_328.png,125,1.3x,1.4,2,2791,123,meters,jsons/MX_seq6_0_VE125.json,207716,347958,28,Man
14,962899,final-intermixed-textured,v2,jsons/MX_seq6_0_VE125.json,http://54.235.29.9/FacialAge/BNav_EC2/DepthDuration/MX_fS_VE_MTurk/MX_fS_HTML.html#21,21,1920,1080,1920,1080,1-12-2024,11-36-20,15,VR_target_stimuli/s35_1x_2_331_BC.png,125,1x,2.0,2,2818,120,meters,jsons/MX_seq6_0_VE125.json,207716,347958,28,Man
15,962899,final-intermixed-textured,v2,jsons/MX_seq6_0_VE125.json,http://54.235.29.9/FacialAge/BNav_EC2/DepthDuration/MX_fS_VE_MTurk/MX_fS_HTML.html#21,21,1920,1080,1920,1080,1-12-2024,11-36-20,16,VR_target_stimuli/s49_0.75x_4.67_328.png,125,0.75x,4.67,4,3104,121,meters,jsons/MX_seq6_0_VE125.json,207716,347958,28,Man
16,962899,final-intermixed-textured,v2,jsons/MX_seq6_0_VE125.json,http://54.235.29.9/FacialAge/BNav_EC2/DepthDuration/MX_fS_VE_MTurk/MX_fS_HTML.html#21,21,1920,1080,1920,1080,1-12-2024,11-36-20,17,catch_stimuli/c1.png,125,,,0,2595,118,meters,jsons/MX_seq6_0_VE125.json,207716,347958,28,Man
17,962899,final-intermixed-textured,v2,jsons/MX_seq6_0_VE125.json,http://54.235.29.9/FacialAge/BNav_EC2/DepthDuration/MX_fS_VE_MTurk/MX_fS_HTML.html#21,21,1920,1080,1920,1080,1-12-2024,11-36-20,18,VR_target_stimuli/s7_0.75x_1.5_253_BC.png,125,0.75x,1.5,3,3206,128,meters,jsons/MX_seq6_0_VE125.json,207716,347958,28,Man
18,962899,final-intermixed-textured,v2,jsons/MX_seq6_0_VE125.json,http://54.235.29.9/FacialAge/BNav_EC2/DepthDuration/MX_fS_VE_MTurk/MX_fS_HTML.html#21,21,1920,1080,1920,1080,1-12-2024,11-36-20,19,VR_target_stimuli/s20_1.3x_4.99_412_BC.png,125,1.3x,4.99,5,2658,131,meters,jsons/MX_seq6_0_VE125.json,207716,347958,28,Man
19,962899,final-intermixed-textured,v2,jsons/MX_seq6_0_VE125.json,http://54.235.29.9/FacialAge/BNav_EC2/DepthDuration/MX_fS_VE_MTurk/MX_fS_HTML.html#21,21,1920,1080,1920,1080,1-12-2024,11-36-20,20,VR_target_stimuli/s31_1x_4.96_333.png,125,1x,4.96,2,2786,114,meters,jsons/MX_seq6_0_VE125.json,207716,347958,28,Man
20,962899,final-intermixed-textured,v2,jsons/MX_seq6_0_VE125.json,http://54.235.29.9/FacialAge/BNav_EC2/DepthDuration/MX_fS_VE_MTurk/MX_fS_HTML.html#21,21,1920,1080,1920,1080,1-12-2024,11-36-20,21,VR_target_stimuli/s33_1.3x_3.1_378_BC.png,125,1.3x,3.1,2,2973,123,meters,jsons/MX_seq6_0_VE125.json,207716,347958,28,Man
21,962899,final-intermixed-textured,v2,jsons/MX_seq6_0_VE125.json,http://54.235.29.9/FacialAge/BNav_EC2/DepthDuration/MX_fS_VE_MTurk/MX_fS_HTML.html#21,21,1920,1080,1920,1080,1-12-2024,11-36-20,22,VR_target_stimuli/s52_0.75x_3.2_270.png,125,0.75x,3.2,4,2768,121,meters,jsons/MX_seq6_0_VE125.json,207716,347958,28,Man
22,962899,final-intermixed-textured,v2,jsons/MX_seq6_0_VE125.json,http://54.235.29.9/FacialAge/BNav_EC2/DepthDuration/MX_fS_VE_MTurk/MX_fS_HTML.html#21,21,1920,1080,1920,1080,1-12-2024,11-36-20,23,VR_target_stimuli/s32_1x_1.5_218_BC.png,125,1x,1.5,3,2327,121,meters,jsons/MX_seq6_0_VE125.json,207716,347958,28,Man
23,962899,final-intermixed-textured,v2,jsons/MX_seq6_0_VE125.json,http://54.235.29.9/FacialAge/BNav_EC2/DepthDuration/MX_fS_VE_MTurk/MX_fS_HTML.html#21,21,1920,1080,1920,1080,1-12-2024,11-36-20,24,VR_target_stimuli/s18_0.75x_2.25_341_BC.png,125,0.75x,2.25,2,3666,129,meters,jsons/MX_seq6_0_VE125.json,207716,347958,28,Man
24,962899,final-intermixed-textured,v2,jsons/MX_seq6_0_VE125.json,http://54.235.29.9/FacialAge/BNav_EC2/DepthDuration/MX_fS_VE_MTurk/MX_fS_HTML.html#21,21,1920,1080,1920,1080,1-12-2024,11-36-20,25,VR_target_stimuli/s39_1.3x_1_208.png,125,1.3x,1.0,2,3050,123,meters,jsons/MX_seq6_0_VE125.json,207716,347958,28,Man
25,962899,final-intermixed-textured,v2,jsons/MX_seq6_0_VE125.json,http://54.235.29.9/FacialAge/BNav_EC2/DepthDuration/MX_fS_VE_MTurk/MX_fS_HTML.html#21,21,1920,1080,1920,1080,1-12-2024,11-36-20,26,catch_stimuli/c2.png,125,,,0,2082,129,meters,jsons/MX_seq6_0_VE125.json,207716,347958,28,Man
26,962899,final-intermixed-textured,v2,jsons/MX_seq6_0_VE125.json,http://54.235.29.9/FacialAge/BNav_EC2/DepthDuration/MX_fS_VE_MTurk/MX_fS_HTML.html#21,21,1920,1080,1920,1080,1-12-2024,11-36-20,27,VR_target_stimuli/s51_1x_3.64_461.png,125,1x,3.64,3,2784,110,meters,jsons/MX_seq6_0_VE125.json,207716,347958,28,Man
27,962899,final-intermixed-textured,v2,jsons/MX_seq6_0_VE125.json,http://54.235.29.9/FacialAge/BNav_EC2/DepthDuration/MX_fS_VE_MTurk/MX_fS_HTML.html#21,21,1920,1080,1920,1080,1-12-2024,11-36-20,28,VR_target_stimuli/s43_1x_2.2_354.png,125,1x,2.2,3,5053,136,meters,jsons/MX_seq6_0_VE125.json,207716,347958,28,Man
28,962899,final-intermixed-textured,v2,jsons/MX_seq6_0_VE125.json,http://54.235.29.9/FacialAge/BNav_EC2/DepthDuration/MX_fS_VE_MTurk/MX_fS_HTML.html#21,21,1920,1080,1920,1080,1-12-2024,11-36-20,29,VR_target_stimuli/s24_0.75x_3.3_344_BC.png,125,0.75x,3.3,3,1812,125,meters,jsons/MX_seq6_0_VE125.json,207716,347958,28,Man
29,962899,final-intermixed-textured,v2,jsons/MX_seq6_0_VE125.json,http://54.235.29.9/FacialAge/BNav_EC2/DepthDuration/MX_fS_VE_MTurk/MX_fS_HTML.html#21,21,1920,1080,1920,1080,1-12-2024,11-36-20,30,VR_target_stimuli/s10_1.3x_2.7_325_BC.png,125,1.3x,2.7,4,2059,134,meters,jsons/MX_seq6_0_VE125.json,207716,347958,28,Man
30,962899,final-intermixed-textured,v2,jsons/MX_seq6_0_VE125.json,http://54.235.29.9/FacialAge/BNav_EC2/DepthDuration/MX_fS_VE_MTurk/MX_fS_HTML.html#21,21,1920,1080,1920,1080,1-12-2024,11-36-20,31,VR_target_stimuli/s36_1x_4.1_423_BC.png,125,1x,4.1,5,2480,132,meters,jsons/MX_seq6_0_VE125.json,207716,347958,28,Man
31,962899,final-intermixed-textured,v2,jsons/MX_seq6_0_VE125.json,http://54.235.29.9/FacialAge/BNav_EC2/DepthDuration/MX_fS_VE_MTurk/MX_fS_HTML.html#21,21,1920,1080,1920,1080,1-12-2024,11-36-20,32,VR_target_stimuli/s40_1.3x_1.2_332.png,125,1.3x,1.2,3,1834,131,meters,jsons/MX_seq6_0_VE125.json,207716,347958,28,Man
32,962899,final-intermixed-textured,v2,jsons/MX_seq6_0_VE125.json,http://54.235.29.9/FacialAge/BNav_EC2/DepthDuration/MX_fS_VE_MTurk/MX_fS_HTML.html#21,21,1920,1080,1920,1080,1-12-2024,11-36-20,33,VR_target_stimuli/s41_0.75x_2.1_281.png,125,0.75x,2.1,4,3418,123,meters,jsons/MX_seq6_0_VE125.json,207716,347958,28,Man
33,962899,final-intermixed-textured,v2,jsons/MX_seq6_0_VE125.json,http://54.235.29.9/FacialAge/BNav_EC2/DepthDuration/MX_fS_VE_MTurk/MX_fS_HTML.html#21,21,1920,1080,1920,1080,1-12-2024,11-36-20,34,catch_stimuli/c3.png,125,,,0,1968,122,meters,jsons/MX_seq6_0_VE125.json,207716,347958,28,Man
34,962899,final-intermixed-textured,v2,jsons/MX_seq6_0_VE125.json,http://54.235.29.9/FacialAge/BNav_EC2/DepthDuration/MX_fS_VE_MTurk/MX_fS_HTML.html#21,21,1920,1080,1920,1080,1-12-2024,11-36-20,35,VR_target_stimuli/s45_1.3x_3.5_377_BC.png,125,1.3x,3.5,3,2353,122,meters,jsons/MX_seq6_0_VE125.json,207716,347958,28,Man
35,962899,final-intermixed-textured,v2,jsons/MX_seq6_0_VE125.json,http://54.235.29.9/FacialAge/BNav_EC2/DepthDuration/MX_fS_VE_MTurk/MX_fS_HTML.html#21,21,1920,1080,1920,1080,1-12-2024,11-36-20,36,VR_target_stimuli/s23_1x_3.65_353_BC.png,125,1x,3.65,3,2561,116,meters,jsons/MX_seq6_0_VE125.json,207716,347958,28,Man
36,962899,final-intermixed-textured,v2,jsons/MX_seq6_0_VE125.json,http://54.235.29.9/FacialAge/BNav_EC2/DepthDuration/MX_fS_VE_MTurk/MX_fS_HTML.html#21,21,1920,1080,1920,1080,1-12-2024,11-36-20,37,VR_target_stimuli/s26_0.75x_4_430_BC.png,125,0.75x,4.0,6,2739,122,meters,jsons/MX_seq6_0_VE125.json,207716,347958,28,Man
37,962899,final-intermixed-textured,v2,jsons/MX_seq6_0_VE125.json,http://54.235.29.9/FacialAge/BNav_EC2/DepthDuration/MX_fS_VE_MTurk/MX_fS_HTML.html#21,21,1920,1080,1920,1080,1-12-2024,11-36-20,38,VR_target_stimuli/s12_0.75x_3.1_364.png,125,0.75x,3.1,5,3470,119,meters,jsons/MX_seq6_0_VE125.json,207716,347958,28,Man
38,962899,final-intermixed-textured,v2,jsons/MX_seq6_0_VE125.json,http://54.235.29.9/FacialAge/BNav_EC2/DepthDuration/MX_fS_VE_MTurk/MX_fS_HTML.html#21,21,1920,1080,1920,1080,1-12-2024,11-36-20,39,VR_target_stimuli/s30_1.3x_2.3_337.png,125,1.3x,2.3,5,1745,115,meters,jsons/MX_seq6_0_VE125.json,207716,347958,28,Man
39,962899,final-intermixed-textured,v2,jsons/MX_seq6_0_VE125.json,http://54.235.29.9/FacialAge/BNav_EC2/DepthDuration/MX_fS_VE_MTurk/MX_fS_HTML.html#21,21,1920,1080,1920,1080,1-12-2024,11-36-20,40,VR_target_stimuli/s16_1x_1_219.png,125,1x,1.0,4,2182,129,meters,jsons/MX_seq6_0_VE125.json,207716,347958,28,Man
40,962899,final-intermixed-textured,v2,jsons/MX_seq6_0_VE125.json,http://54.235.29.9/FacialAge/BNav_EC2/DepthDuration/MX_fS_VE_MTurk/MX_fS_HTML.html#21,21,1920,1080,1920,1080,1-12-2024,11-36-20,41,VR_target_stimuli/s17_1.3x_1.8_300_BC.png,125,1.3x,1.8,4,4168,112,meters,jsons/MX_seq6_0_VE125.json,207716,347958,28,Man
41,962899,final-intermixed-textured,v2,jsons/MX_seq6_0_VE125.json,http://54.235.29.9/FacialAge/BNav_EC2/DepthDuration/MX_fS_VE_MTurk/MX_fS_HTML.html#21,21,1920,1080,1920,1080,1-12-2024,11-36-20,42,VR_target_stimuli/s5_0.75x_4_375_BC.png,125,0.75x,4.0,7,2244,121,meters,jsons/MX_seq6_0_VE125.json,207716,347958,28,Man
42,962899,final-intermixed-textured,v2,jsons/MX_seq6_0_VE125.json,http://54.235.29.9/FacialAge/BNav_EC2/DepthDuration/MX_fS_VE_MTurk/MX_fS_HTML.html#21,21,1920,1080,1920,1080,1-12-2024,11-36-20,43,VR_target_stimuli/s37_1x_3.3_563.png,125,1x,3.3,3,2693,126,meters,jsons/MX_seq6_0_VE125.json,207716,347958,28,Man
43,962899,final-intermixed-textured,v2,jsons/MX_seq6_0_VE125.json,http://54.235.29.9/FacialAge/BNav_EC2/DepthDuration/MX_fS_VE_MTurk/MX_fS_HTML.html#21,21,1920,1080,1920,1080,1-12-2024,11-36-20,44,VR_target_stimuli/s46_0.75x_2.42_343.png,125,0.75x,2.42,5,3308,126,meters,jsons/MX_seq6_0_VE125.json,207716,347958,28,Man
44,962899,final-intermixed-textured,v2,jsons/MX_seq6_0_VE125.json,http://54.235.29.9/FacialAge/BNav_EC2/DepthDuration/MX_fS_VE_MTurk/MX_fS_HTML.html#21,21,1920,1080,1920,1080,1-12-2024,11-36-20,45,catch_stimuli/c4.png,125,,,0,2317,123,meters,jsons/MX_seq6_0_VE125.json,207716,347958,28,Man
45,962899,final-intermixed-textured,v2,jsons/MX_seq6_0_VE125.json,http://54.235.29.9/FacialAge/BNav_EC2/DepthDuration/MX_fS_VE_MTurk/MX_fS_HTML.html#21,21,1920,1080,1920,1080,1-12-2024,11-36-20,46,VR_target_stimuli/s22_1.3x_4.29_364.png,125,1.3x,4.29,5,2435,120,meters,jsons/MX_seq6_0_VE125.json,207716,347958,28,Man
46,962899,final-intermixed-textured,v2,jsons/MX_seq6_0_VE125.json,http://54.235.29.9/FacialAge/BNav_EC2/DepthDuration/MX_fS_VE_MTurk/MX_fS_HTML.html#21,21,1920,1080,1920,1080,1-12-2024,11-36-20,47,VR_target_stimuli/s42_1x_3.2_303_BC.png,125,1x,3.2,0,2480,135,meters,jsons/MX_seq6_0_VE125.json,207716,347958,28,Man
47,962899,final-intermixed-textured,v2,jsons/MX_seq6_0_VE125.json,http://54.235.29.9/FacialAge/BNav_EC2/DepthDuration/MX_fS_VE_MTurk/MX_fS_HTML.html#21,21,1920,1080,1920,1080,1-12-2024,11-36-20,48,VR_target_stimuli/s25_1x_1.4_290_BC.png,125,1x,1.4,3,2574,129,meters,jsons/MX_seq6_0_VE125.json,207716,347958,28,Man
48,962899,final-intermixed-textured,v2,jsons/MX_seq6_0_VE125.json,http://54.235.29.9/FacialAge/BNav_EC2/DepthDuration/MX_fS_VE_MTurk/MX_fS_HTML.html#21,21,1920,1080,1920,1080,1-12-2024,11-36-20,49,VR_target_stimuli/s50_0.75x_4.53_517_BC.png,125,0.75x,4.53,6,2290,118,meters,jsons/MX_seq6_0_VE125.json,207716,347958,28,Man
49,962899,final-intermixed-textured,v2,jsons/MX_seq6_0_VE125.json,http://54.235.29.9/FacialAge/BNav_EC2/DepthDuration/MX_fS_VE_MTurk/MX_fS_HTML.html#21,21,1920,1080,1920,1080,1-12-2024,11-36-20,50,VR_target_stimuli/s53_1.3x_1.6_355_BC.png,125,1.3x,1.6,3,2467,120,meters,jsons/MX_seq6_0_VE125.json,207716,347958,28,Man
50,962899,final-intermixed-textured,v2,jsons/MX_seq6_0_VE125.json,http://54.235.29.9/FacialAge/BNav_EC2/DepthDuration/MX_fS_VE_MTurk/MX_fS_HTML.html#21,21,1920,1080,1920,1080,1-12-2024,11-36-20,51,VR_target_stimuli/s38_0.75x_3.55_346.png,125,0.75x,3.55,7,4366,138,meters,jsons/MX_seq6_0_VE125.json,207716,347958,28,Man
51,962899,final-intermixed-textured,v2,jsons/MX_seq6_0_VE125.json,http://54.235.29.9/FacialAge/BNav_EC2/DepthDuration/MX_fS_VE_MTurk/MX_fS_HTML.html#21,21,1920,1080,1920,1080,1-12-2024,11-36-20,52,VR_target_stimuli/s9_1x_1.2_263.png,125,1x,1.2,2,2261,123,meters,jsons/MX_seq6_0_VE125.json,207716,347958,28,Man
52,962899,final-intermixed-textured,v2,jsons/MX_seq6_0_VE125.json,http://54.235.29.9/FacialAge/BNav_EC2/DepthDuration/MX_fS_VE_MTurk/MX_fS_HTML.html#21,21,1920,1080,1920,1080,1-12-2024,11-36-20,53,catch_stimuli/c5.png,125,,,0,1751,115,meters,jsons/MX_seq6_0_VE125.json,207716,347958,28,Man
53,962899,final-intermixed-textured,v2,jsons/MX_seq6_0_VE125.json,http://54.235.29.9/FacialAge/BNav_EC2/DepthDuration/MX_fS_VE_MTurk/MX_fS_HTML.html#21,21,1920,1080,1920,1080,1-12-2024,11-36-20,54,VR_target_stimuli/s44_1.3x_4.4_325.png,125,1.3x,4.4,0,2206,121,meters,jsons/MX_seq6_0_VE125.json,207716,347958,28,Man
54,962899,final-intermixed-textured,v2,jsons/MX_seq6_0_VE125.json,http://54.235.29.9/FacialAge/BNav_EC2/DepthDuration/MX_fS_VE_MTurk/MX_fS_HTML.html#21,21,1920,1080,1920,1080,1-12-2024,11-36-20,55,VR_target_stimuli/s3_1x_5_385_BC.png,125,1x,5.0,6,2224,128,meters,jsons/MX_seq6_0_VE125.json,207716,347958,28,Man
55,962899,final-intermixed-textured,v2,jsons/MX_seq6_0_VE125.json,http://54.235.29.9/FacialAge/BNav_EC2/DepthDuration/MX_fS_VE_MTurk/MX_fS_HTML.html#21,21,1920,1080,1920,1080,1-12-2024,11-36-20,56,VR_target_stimuli/s1_0.75x_1.7_265.png,125,0.75x,1.7,4,1885,126,meters,jsons/MX_seq6_0_VE125.json,207716,347958,28,Man
56,962899,final-intermixed-textured,v2,jsons/MX_seq6_0_VE125.json,http://54.235.29.9/FacialAge/BNav_EC2/DepthDuration/MX_fS_VE_MTurk/MX_fS_HTML.html#21,21,1920,1080,1920,1080,1-12-2024,11-36-20,57,VR_target_stimuli/s11_1.3x_5_363.png,125,1.3x,5.0,5,1762,124,meters,jsons/MX_seq6_0_VE125.json,207716,347958,28,Man
57,962899,final-intermixed-textured,v2,jsons/MX_seq6_0_VE125.json,http://54.235.29.9/FacialAge/BNav_EC2/DepthDuration/MX_fS_VE_MTurk/MX_fS_HTML.html#21,21,1920,1080,1920,1080,1-12-2024,11-36-20,58,VR_target_stimuli/s2_1.3x_2.7_397_BC.png,125,1.3x,2.7,4,2038,116,meters,jsons/MX_seq6_0_VE125.json,207716,347958,28,Man
58,962899,final-intermixed-textured,v2,jsons/MX_seq6_0_VE125.json,http://54.235.29.9/FacialAge/BNav_EC2/DepthDuration/MX_fS_VE_MTurk/MX_fS_HTML.html#21,21,1920,1080,1920,1080,1-12-2024,11-36-20,59,VR_target_stimuli/s6_1x_2.1_293.png,125,1x,2.1,4,1458,126,meters,jsons/MX_seq6_0_VE125.json,207716,347958,28,Man
59,962899,final-intermixed-textured,v2,jsons/MX_seq6_0_VE125.json,http://54.235.29.9/FacialAge/BNav_EC2/DepthDuration/MX_fS_VE_MTurk/MX_fS_HTML.html#21,21,1920,1080,1920,1080,1-12-2024,11-36-20,60,VR_target_stimuli/s0_0.75x_2.6_345_BC.png,125,0.75x,2.6,3,1987,134,meters,jsons/MX_seq6_0_VE125.json,207716,347958,28,Man
