,subjID,experimentName,versionName,sequenceName,url,selected_row,windowWidth,windowHeight,screenWidth,screenHeight,startDate,startTime,trial,stimulus,duration,scale,actual_depth,depth_estimate,trial_RT,log_sceneDuration,unitSelection,seq_filepath,experimentTime,totalTime,age,gender
0,965674,final-intermixed-textured,v2,jsons/MX_seq31_0_VE125.json,http://54.235.29.9/FacialAge/BNav_EC2/DepthDuration/MX_fS_VE_MTurk/MX_fS_HTML.html#13,13,1920,1080,1920,1080,1-13-2024,0-49-32,1,VR_target_stimuli/s24_0.75x_3.3_344.png,125,0.75x,3.3,4,2345,122,meters,jsons/MX_seq31_0_VE125.json,150632,252142,22,Man
1,965674,final-intermixed-textured,v2,jsons/MX_seq31_0_VE125.json,http://54.235.29.9/FacialAge/BNav_EC2/DepthDuration/MX_fS_VE_MTurk/MX_fS_HTML.html#13,13,1920,1080,1920,1080,1-13-2024,0-49-32,2,VR_target_stimuli/s10_1x_2.7_324.png,125,1x,2.7,3,2421,125,meters,jsons/MX_seq31_0_VE125.json,150632,252142,22,Man
2,965674,final-intermixed-textured,v2,jsons/MX_seq31_0_VE125.json,http://54.235.29.9/FacialAge/BNav_EC2/DepthDuration/MX_fS_VE_MTurk/MX_fS_HTML.html#13,13,1920,1080,1920,1080,1-13-2024,0-49-32,3,VR_target_stimuli/s36_1.3x_4.1_442_BC.png,125,1.3x,4.1,5,2225,125,meters,jsons/MX_seq31_0_VE125.json,150632,252142,22,Man
3,965674,final-intermixed-textured,v2,jsons/MX_seq31_0_VE125.json,http://54.235.29.9/FacialAge/BNav_EC2/DepthDuration/MX_fS_VE_MTurk/MX_fS_HTML.html#13,13,1920,1080,1920,1080,1-13-2024,0-49-32,4,VR_target_stimuli/s40_1x_1.2_319_BC.png,125,1x,1.2,2,1699,124,meters,jsons/MX_seq31_0_VE125.json,150632,252142,22,Man
4,965674,final-intermixed-textured,v2,jsons/MX_seq31_0_VE125.json,http://54.235.29.9/FacialAge/BNav_EC2/DepthDuration/MX_fS_VE_MTurk/MX_fS_HTML.html#13,13,1920,1080,1920,1080,1-13-2024,0-49-32,5,VR_target_stimuli/s41_0.75x_2.1_281_BC.png,125,0.75x,2.1,3,1851,117,meters,jsons/MX_seq31_0_VE125.json,150632,252142,22,Man
5,965674,final-intermixed-textured,v2,jsons/MX_seq31_0_VE125.json,http://54.235.29.9/FacialAge/BNav_EC2/DepthDuration/MX_fS_VE_MTurk/MX_fS_HTML.html#13,13,1920,1080,1920,1080,1-13-2024,0-49-32,6,VR_target_stimuli/s45_1.3x_3.5_377.png,125,1.3x,3.5,2,2812,123,meters,jsons/MX_seq31_0_VE125.json,150632,252142,22,Man
6,965674,final-intermixed-textured,v2,jsons/MX_seq31_0_VE125.json,http://54.235.29.9/FacialAge/BNav_EC2/DepthDuration/MX_fS_VE_MTurk/MX_fS_HTML.html#13,13,1920,1080,1920,1080,1-13-2024,0-49-32,7,catch_stimuli/c0.png,125,,,0,2583,125,meters,jsons/MX_seq31_0_VE125.json,150632,252142,22,Man
7,965674,final-intermixed-textured,v2,jsons/MX_seq31_0_VE125.json,http://54.235.29.9/FacialAge/BNav_EC2/DepthDuration/MX_fS_VE_MTurk/MX_fS_HTML.html#13,13,1920,1080,1920,1080,1-13-2024,0-49-32,8,VR_target_stimuli/s23_1.3x_3.65_354_BC.png,125,1.3x,3.65,4,2250,135,meters,jsons/MX_seq31_0_VE125.json,150632,252142,22,Man
8,965674,final-intermixed-textured,v2,jsons/MX_seq31_0_VE125.json,http://54.235.29.9/FacialAge/BNav_EC2/DepthDuration/MX_fS_VE_MTurk/MX_fS_HTML.html#13,13,1920,1080,1920,1080,1-13-2024,0-49-32,9,VR_target_stimuli/s26_1x_4_433.png,125,1x,4.0,4,1762,115,meters,jsons/MX_seq31_0_VE125.json,150632,252142,22,Man
9,965674,final-intermixed-textured,v2,jsons/MX_seq31_0_VE125.json,http://54.235.29.9/FacialAge/BNav_EC2/DepthDuration/MX_fS_VE_MTurk/MX_fS_HTML.html#13,13,1920,1080,1920,1080,1-13-2024,0-49-32,10,VR_target_stimuli/s12_0.75x_3.1_364.png,125,0.75x,3.1,3,1686,120,meters,jsons/MX_seq31_0_VE125.json,150632,252142,22,Man
10,965674,final-intermixed-textured,v2,jsons/MX_seq31_0_VE125.json,http://54.235.29.9/FacialAge/BNav_EC2/DepthDuration/MX_fS_VE_MTurk/MX_fS_HTML.html#13,13,1920,1080,1920,1080,1-13-2024,0-49-32,11,VR_target_stimuli/s30_1x_2.3_334_BC.png,125,1x,2.3,4,4096,127,meters,jsons/MX_seq31_0_VE125.json,150632,252142,22,Man
11,965674,final-intermixed-textured,v2,jsons/MX_seq31_0_VE125.json,http://54.235.29.9/FacialAge/BNav_EC2/DepthDuration/MX_fS_VE_MTurk/MX_fS_HTML.html#13,13,1920,1080,1920,1080,1-13-2024,0-49-32,12,VR_target_stimuli/s16_1.3x_1_223.png,125,1.3x,1.0,1,2227,132,meters,jsons/MX_seq31_0_VE125.json,150632,252142,22,Man
12,965674,final-intermixed-textured,v2,jsons/MX_seq31_0_VE125.json,http://54.235.29.9/FacialAge/BNav_EC2/DepthDuration/MX_fS_VE_MTurk/MX_fS_HTML.html#13,13,1920,1080,1920,1080,1-13-2024,0-49-32,13,VR_target_stimuli/s17_0.75x_1.8_285_BC.png,125,0.75x,1.8,3,1710,124,meters,jsons/MX_seq31_0_VE125.json,150632,252142,22,Man
13,965674,final-intermixed-textured,v2,jsons/MX_seq31_0_VE125.json,http://54.235.29.9/FacialAge/BNav_EC2/DepthDuration/MX_fS_VE_MTurk/MX_fS_HTML.html#13,13,1920,1080,1920,1080,1-13-2024,0-49-32,14,VR_target_stimuli/s5_1.3x_4_393.png,125,1.3x,4.0,3,1716,130,meters,jsons/MX_seq31_0_VE125.json,150632,252142,22,Man
14,965674,final-intermixed-textured,v2,jsons/MX_seq31_0_VE125.json,http://54.235.29.9/FacialAge/BNav_EC2/DepthDuration/MX_fS_VE_MTurk/MX_fS_HTML.html#13,13,1920,1080,1920,1080,1-13-2024,0-49-32,15,VR_target_stimuli/s37_1x_3.3_563_BC.png,125,1x,3.3,2,2089,114,meters,jsons/MX_seq31_0_VE125.json,150632,252142,22,Man
15,965674,final-intermixed-textured,v2,jsons/MX_seq31_0_VE125.json,http://54.235.29.9/FacialAge/BNav_EC2/DepthDuration/MX_fS_VE_MTurk/MX_fS_HTML.html#13,13,1920,1080,1920,1080,1-13-2024,0-49-32,16,VR_target_stimuli/s46_0.75x_2.42_343.png,125,0.75x,2.42,4,2016,123,meters,jsons/MX_seq31_0_VE125.json,150632,252142,22,Man
16,965674,final-intermixed-textured,v2,jsons/MX_seq31_0_VE125.json,http://54.235.29.9/FacialAge/BNav_EC2/DepthDuration/MX_fS_VE_MTurk/MX_fS_HTML.html#13,13,1920,1080,1920,1080,1-13-2024,0-49-32,17,catch_stimuli/c1.png,125,,,0,2315,138,meters,jsons/MX_seq31_0_VE125.json,150632,252142,22,Man
17,965674,final-intermixed-textured,v2,jsons/MX_seq31_0_VE125.json,http://54.235.29.9/FacialAge/BNav_EC2/DepthDuration/MX_fS_VE_MTurk/MX_fS_HTML.html#13,13,1920,1080,1920,1080,1-13-2024,0-49-32,18,VR_target_stimuli/s22_0.75x_4.29_348_BC.png,125,0.75x,4.29,4,1723,133,meters,jsons/MX_seq31_0_VE125.json,150632,252142,22,Man
18,965674,final-intermixed-textured,v2,jsons/MX_seq31_0_VE125.json,http://54.235.29.9/FacialAge/BNav_EC2/DepthDuration/MX_fS_VE_MTurk/MX_fS_HTML.html#13,13,1920,1080,1920,1080,1-13-2024,0-49-32,19,VR_target_stimuli/s42_1.3x_3.2_305_BC.png,125,1.3x,3.2,3,1321,128,meters,jsons/MX_seq31_0_VE125.json,150632,252142,22,Man
19,965674,final-intermixed-textured,v2,jsons/MX_seq31_0_VE125.json,http://54.235.29.9/FacialAge/BNav_EC2/DepthDuration/MX_fS_VE_MTurk/MX_fS_HTML.html#13,13,1920,1080,1920,1080,1-13-2024,0-49-32,20,VR_target_stimuli/s25_1x_1.4_290.png,125,1x,1.4,2,1315,130,meters,jsons/MX_seq31_0_VE125.json,150632,252142,22,Man
20,965674,final-intermixed-textured,v2,jsons/MX_seq31_0_VE125.json,http://54.235.29.9/FacialAge/BNav_EC2/DepthDuration/MX_fS_VE_MTurk/MX_fS_HTML.html#13,13,1920,1080,1920,1080,1-13-2024,0-49-32,21,VR_target_stimuli/s50_1.3x_4.53_518_BC.png,125,1.3x,4.53,3,1552,123,meters,jsons/MX_seq31_0_VE125.json,150632,252142,22,Man
21,965674,final-intermixed-textured,v2,jsons/MX_seq31_0_VE125.json,http://54.235.29.9/FacialAge/BNav_EC2/DepthDuration/MX_fS_VE_MTurk/MX_fS_HTML.html#13,13,1920,1080,1920,1080,1-13-2024,0-49-32,22,VR_target_stimuli/s53_0.75x_1.6_403_BC.png,125,0.75x,1.6,2,1599,124,meters,jsons/MX_seq31_0_VE125.json,150632,252142,22,Man
22,965674,final-intermixed-textured,v2,jsons/MX_seq31_0_VE125.json,http://54.235.29.9/FacialAge/BNav_EC2/DepthDuration/MX_fS_VE_MTurk/MX_fS_HTML.html#13,13,1920,1080,1920,1080,1-13-2024,0-49-32,23,VR_target_stimuli/s38_1x_3.55_353_BC.png,125,1x,3.55,5,1803,124,meters,jsons/MX_seq31_0_VE125.json,150632,252142,22,Man
23,965674,final-intermixed-textured,v2,jsons/MX_seq31_0_VE125.json,http://54.235.29.9/FacialAge/BNav_EC2/DepthDuration/MX_fS_VE_MTurk/MX_fS_HTML.html#13,13,1920,1080,1920,1080,1-13-2024,0-49-32,24,VR_target_stimuli/s9_0.75x_1.2_260.png,125,0.75x,1.2,2,3143,124,meters,jsons/MX_seq31_0_VE125.json,150632,252142,22,Man
24,965674,final-intermixed-textured,v2,jsons/MX_seq31_0_VE125.json,http://54.235.29.9/FacialAge/BNav_EC2/DepthDuration/MX_fS_VE_MTurk/MX_fS_HTML.html#13,13,1920,1080,1920,1080,1-13-2024,0-49-32,25,VR_target_stimuli/s44_1.3x_4.4_325.png,125,1.3x,4.4,1,1873,124,meters,jsons/MX_seq31_0_VE125.json,150632,252142,22,Man
25,965674,final-intermixed-textured,v2,jsons/MX_seq31_0_VE125.json,http://54.235.29.9/FacialAge/BNav_EC2/DepthDuration/MX_fS_VE_MTurk/MX_fS_HTML.html#13,13,1920,1080,1920,1080,1-13-2024,0-49-32,26,catch_stimuli/c2.png,125,,,0,2166,123,meters,jsons/MX_seq31_0_VE125.json,150632,252142,22,Man
26,965674,final-intermixed-textured,v2,jsons/MX_seq31_0_VE125.json,http://54.235.29.9/FacialAge/BNav_EC2/DepthDuration/MX_fS_VE_MTurk/MX_fS_HTML.html#13,13,1920,1080,1920,1080,1-13-2024,0-49-32,27,VR_target_stimuli/s3_1x_5_385.png,125,1x,5.0,5,3295,132,meters,jsons/MX_seq31_0_VE125.json,150632,252142,22,Man
27,965674,final-intermixed-textured,v2,jsons/MX_seq31_0_VE125.json,http://54.235.29.9/FacialAge/BNav_EC2/DepthDuration/MX_fS_VE_MTurk/MX_fS_HTML.html#13,13,1920,1080,1920,1080,1-13-2024,0-49-32,28,VR_target_stimuli/s1_1x_1.7_262_BC.png,125,1x,1.7,3,1681,125,meters,jsons/MX_seq31_0_VE125.json,150632,252142,22,Man
28,965674,final-intermixed-textured,v2,jsons/MX_seq31_0_VE125.json,http://54.235.29.9/FacialAge/BNav_EC2/DepthDuration/MX_fS_VE_MTurk/MX_fS_HTML.html#13,13,1920,1080,1920,1080,1-13-2024,0-49-32,29,VR_target_stimuli/s11_0.75x_5_359_BC.png,125,0.75x,5.0,3,1428,123,meters,jsons/MX_seq31_0_VE125.json,150632,252142,22,Man
29,965674,final-intermixed-textured,v2,jsons/MX_seq31_0_VE125.json,http://54.235.29.9/FacialAge/BNav_EC2/DepthDuration/MX_fS_VE_MTurk/MX_fS_HTML.html#13,13,1920,1080,1920,1080,1-13-2024,0-49-32,30,VR_target_stimuli/s2_1.3x_2.7_397_BC.png,125,1.3x,2.7,2,1287,123,meters,jsons/MX_seq31_0_VE125.json,150632,252142,22,Man
30,965674,final-intermixed-textured,v2,jsons/MX_seq31_0_VE125.json,http://54.235.29.9/FacialAge/BNav_EC2/DepthDuration/MX_fS_VE_MTurk/MX_fS_HTML.html#13,13,1920,1080,1920,1080,1-13-2024,0-49-32,31,VR_target_stimuli/s6_1x_2.1_293.png,125,1x,2.1,4,1489,122,meters,jsons/MX_seq31_0_VE125.json,150632,252142,22,Man
31,965674,final-intermixed-textured,v2,jsons/MX_seq31_0_VE125.json,http://54.235.29.9/FacialAge/BNav_EC2/DepthDuration/MX_fS_VE_MTurk/MX_fS_HTML.html#13,13,1920,1080,1920,1080,1-13-2024,0-49-32,32,VR_target_stimuli/s0_1.3x_2.6_356.png,125,1.3x,2.6,3,1227,138,meters,jsons/MX_seq31_0_VE125.json,150632,252142,22,Man
32,965674,final-intermixed-textured,v2,jsons/MX_seq31_0_VE125.json,http://54.235.29.9/FacialAge/BNav_EC2/DepthDuration/MX_fS_VE_MTurk/MX_fS_HTML.html#13,13,1920,1080,1920,1080,1-13-2024,0-49-32,33,VR_target_stimuli/s34_0.75x_2.8_269.png,125,0.75x,2.8,6,1991,112,meters,jsons/MX_seq31_0_VE125.json,150632,252142,22,Man
33,965674,final-intermixed-textured,v2,jsons/MX_seq31_0_VE125.json,http://54.235.29.9/FacialAge/BNav_EC2/DepthDuration/MX_fS_VE_MTurk/MX_fS_HTML.html#13,13,1920,1080,1920,1080,1-13-2024,0-49-32,34,catch_stimuli/c3.png,125,,,0,2442,124,meters,jsons/MX_seq31_0_VE125.json,150632,252142,22,Man
34,965674,final-intermixed-textured,v2,jsons/MX_seq31_0_VE125.json,http://54.235.29.9/FacialAge/BNav_EC2/DepthDuration/MX_fS_VE_MTurk/MX_fS_HTML.html#13,13,1920,1080,1920,1080,1-13-2024,0-49-32,35,VR_target_stimuli/s13_1.3x_2.4_313.png,125,1.3x,2.4,3,1579,140,meters,jsons/MX_seq31_0_VE125.json,150632,252142,22,Man
35,965674,final-intermixed-textured,v2,jsons/MX_seq31_0_VE125.json,http://54.235.29.9/FacialAge/BNav_EC2/DepthDuration/MX_fS_VE_MTurk/MX_fS_HTML.html#13,13,1920,1080,1920,1080,1-13-2024,0-49-32,36,VR_target_stimuli/s14_1x_ 3.83_357_BC.png,125,1x,3.83,3,1638,123,meters,jsons/MX_seq31_0_VE125.json,150632,252142,22,Man
36,965674,final-intermixed-textured,v2,jsons/MX_seq31_0_VE125.json,http://54.235.29.9/FacialAge/BNav_EC2/DepthDuration/MX_fS_VE_MTurk/MX_fS_HTML.html#13,13,1920,1080,1920,1080,1-13-2024,0-49-32,37,VR_target_stimuli/s47_0.75x_3.45_366_BC.png,125,0.75x,3.45,3,1314,123,meters,jsons/MX_seq31_0_VE125.json,150632,252142,22,Man
37,965674,final-intermixed-textured,v2,jsons/MX_seq31_0_VE125.json,http://54.235.29.9/FacialAge/BNav_EC2/DepthDuration/MX_fS_VE_MTurk/MX_fS_HTML.html#13,13,1920,1080,1920,1080,1-13-2024,0-49-32,38,VR_target_stimuli/s29_0.75x_1.3_246.png,125,0.75x,1.3,2,1593,122,meters,jsons/MX_seq31_0_VE125.json,150632,252142,22,Man
38,965674,final-intermixed-textured,v2,jsons/MX_seq31_0_VE125.json,http://54.235.29.9/FacialAge/BNav_EC2/DepthDuration/MX_fS_VE_MTurk/MX_fS_HTML.html#13,13,1920,1080,1920,1080,1-13-2024,0-49-32,39,VR_target_stimuli/s28_1.3x_3.2_365_BC.png,125,1.3x,3.2,5,1490,137,meters,jsons/MX_seq31_0_VE125.json,150632,252142,22,Man
39,965674,final-intermixed-textured,v2,jsons/MX_seq31_0_VE125.json,http://54.235.29.9/FacialAge/BNav_EC2/DepthDuration/MX_fS_VE_MTurk/MX_fS_HTML.html#13,13,1920,1080,1920,1080,1-13-2024,0-49-32,40,VR_target_stimuli/s48_1x_2.55_256.png,125,1x,2.55,7,2707,122,meters,jsons/MX_seq31_0_VE125.json,150632,252142,22,Man
40,965674,final-intermixed-textured,v2,jsons/MX_seq31_0_VE125.json,http://54.235.29.9/FacialAge/BNav_EC2/DepthDuration/MX_fS_VE_MTurk/MX_fS_HTML.html#13,13,1920,1080,1920,1080,1-13-2024,0-49-32,41,VR_target_stimuli/s19_1.3x_1.21_270.png,125,1.3x,1.21,3,1827,127,meters,jsons/MX_seq31_0_VE125.json,150632,252142,22,Man
41,965674,final-intermixed-textured,v2,jsons/MX_seq31_0_VE125.json,http://54.235.29.9/FacialAge/BNav_EC2/DepthDuration/MX_fS_VE_MTurk/MX_fS_HTML.html#13,13,1920,1080,1920,1080,1-13-2024,0-49-32,42,VR_target_stimuli/s21_0.75x_4.22_374.png,125,0.75x,4.22,10,2707,125,meters,jsons/MX_seq31_0_VE125.json,150632,252142,22,Man
42,965674,final-intermixed-textured,v2,jsons/MX_seq31_0_VE125.json,http://54.235.29.9/FacialAge/BNav_EC2/DepthDuration/MX_fS_VE_MTurk/MX_fS_HTML.html#13,13,1920,1080,1920,1080,1-13-2024,0-49-32,43,VR_target_stimuli/s8_1x_3.1_332.png,125,1x,3.1,5,1892,125,meters,jsons/MX_seq31_0_VE125.json,150632,252142,22,Man
43,965674,final-intermixed-textured,v2,jsons/MX_seq31_0_VE125.json,http://54.235.29.9/FacialAge/BNav_EC2/DepthDuration/MX_fS_VE_MTurk/MX_fS_HTML.html#13,13,1920,1080,1920,1080,1-13-2024,0-49-32,44,VR_target_stimuli/s27_0.75x_1.76_243_BC.png,125,0.75x,1.76,5,1650,122,meters,jsons/MX_seq31_0_VE125.json,150632,252142,22,Man
44,965674,final-intermixed-textured,v2,jsons/MX_seq31_0_VE125.json,http://54.235.29.9/FacialAge/BNav_EC2/DepthDuration/MX_fS_VE_MTurk/MX_fS_HTML.html#13,13,1920,1080,1920,1080,1-13-2024,0-49-32,45,catch_stimuli/c4.png,125,,,0,1907,125,meters,jsons/MX_seq31_0_VE125.json,150632,252142,22,Man
45,965674,final-intermixed-textured,v2,jsons/MX_seq31_0_VE125.json,http://54.235.29.9/FacialAge/BNav_EC2/DepthDuration/MX_fS_VE_MTurk/MX_fS_HTML.html#13,13,1920,1080,1920,1080,1-13-2024,0-49-32,46,VR_target_stimuli/s15_1.3x_4.2_389_BC.png,125,1.3x,4.2,5,2182,123,meters,jsons/MX_seq31_0_VE125.json,150632,252142,22,Man
46,965674,final-intermixed-textured,v2,jsons/MX_seq31_0_VE125.json,http://54.235.29.9/FacialAge/BNav_EC2/DepthDuration/MX_fS_VE_MTurk/MX_fS_HTML.html#13,13,1920,1080,1920,1080,1-13-2024,0-49-32,47,VR_target_stimuli/s4_1x_1.4_313_BC.png,125,1x,1.4,2,1536,122,meters,jsons/MX_seq31_0_VE125.json,150632,252142,22,Man
47,965674,final-intermixed-textured,v2,jsons/MX_seq31_0_VE125.json,http://54.235.29.9/FacialAge/BNav_EC2/DepthDuration/MX_fS_VE_MTurk/MX_fS_HTML.html#13,13,1920,1080,1920,1080,1-13-2024,0-49-32,48,VR_target_stimuli/s35_1x_2_331.png,125,1x,2.0,3,1424,124,meters,jsons/MX_seq31_0_VE125.json,150632,252142,22,Man
48,965674,final-intermixed-textured,v2,jsons/MX_seq31_0_VE125.json,http://54.235.29.9/FacialAge/BNav_EC2/DepthDuration/MX_fS_VE_MTurk/MX_fS_HTML.html#13,13,1920,1080,1920,1080,1-13-2024,0-49-32,49,VR_target_stimuli/s49_0.75x_4.67_328_BC.png,125,0.75x,4.67,6,2054,124,meters,jsons/MX_seq31_0_VE125.json,150632,252142,22,Man
49,965674,final-intermixed-textured,v2,jsons/MX_seq31_0_VE125.json,http://54.235.29.9/FacialAge/BNav_EC2/DepthDuration/MX_fS_VE_MTurk/MX_fS_HTML.html#13,13,1920,1080,1920,1080,1-13-2024,0-49-32,50,VR_target_stimuli/s7_1.3x_1.5_256_BC.png,125,1.3x,1.5,5,1568,122,meters,jsons/MX_seq31_0_VE125.json,150632,252142,22,Man
50,965674,final-intermixed-textured,v2,jsons/MX_seq31_0_VE125.json,http://54.235.29.9/FacialAge/BNav_EC2/DepthDuration/MX_fS_VE_MTurk/MX_fS_HTML.html#13,13,1920,1080,1920,1080,1-13-2024,0-49-32,51,VR_target_stimuli/s20_0.75x_4.99_390.png,125,0.75x,4.99,7,2094,122,meters,jsons/MX_seq31_0_VE125.json,150632,252142,22,Man
51,965674,final-intermixed-textured,v2,jsons/MX_seq31_0_VE125.json,http://54.235.29.9/FacialAge/BNav_EC2/DepthDuration/MX_fS_VE_MTurk/MX_fS_HTML.html#13,13,1920,1080,1920,1080,1-13-2024,0-49-32,52,VR_target_stimuli/s31_1x_4.96_333_BC.png,125,1x,4.96,4,2165,123,meters,jsons/MX_seq31_0_VE125.json,150632,252142,22,Man
52,965674,final-intermixed-textured,v2,jsons/MX_seq31_0_VE125.json,http://54.235.29.9/FacialAge/BNav_EC2/DepthDuration/MX_fS_VE_MTurk/MX_fS_HTML.html#13,13,1920,1080,1920,1080,1-13-2024,0-49-32,53,catch_stimuli/c5.png,125,,,0,1996,126,meters,jsons/MX_seq31_0_VE125.json,150632,252142,22,Man
53,965674,final-intermixed-textured,v2,jsons/MX_seq31_0_VE125.json,http://54.235.29.9/FacialAge/BNav_EC2/DepthDuration/MX_fS_VE_MTurk/MX_fS_HTML.html#13,13,1920,1080,1920,1080,1-13-2024,0-49-32,54,VR_target_stimuli/s33_1.3x_3.1_378.png,125,1.3x,3.1,4,3260,131,meters,jsons/MX_seq31_0_VE125.json,150632,252142,22,Man
54,965674,final-intermixed-textured,v2,jsons/MX_seq31_0_VE125.json,http://54.235.29.9/FacialAge/BNav_EC2/DepthDuration/MX_fS_VE_MTurk/MX_fS_HTML.html#13,13,1920,1080,1920,1080,1-13-2024,0-49-32,55,VR_target_stimuli/s52_1x_3.2_275_BC.png,125,1x,3.2,7,2730,124,meters,jsons/MX_seq31_0_VE125.json,150632,252142,22,Man
55,965674,final-intermixed-textured,v2,jsons/MX_seq31_0_VE125.json,http://54.235.29.9/FacialAge/BNav_EC2/DepthDuration/MX_fS_VE_MTurk/MX_fS_HTML.html#13,13,1920,1080,1920,1080,1-13-2024,0-49-32,56,VR_target_stimuli/s32_0.75x_1.5_213_BC.png,125,0.75x,1.5,5,1619,123,meters,jsons/MX_seq31_0_VE125.json,150632,252142,22,Man
56,965674,final-intermixed-textured,v2,jsons/MX_seq31_0_VE125.json,http://54.235.29.9/FacialAge/BNav_EC2/DepthDuration/MX_fS_VE_MTurk/MX_fS_HTML.html#13,13,1920,1080,1920,1080,1-13-2024,0-49-32,57,VR_target_stimuli/s18_1.3x_2.25_368_BC.png,125,1.3x,2.25,2,2817,138,meters,jsons/MX_seq31_0_VE125.json,150632,252142,22,Man
57,965674,final-intermixed-textured,v2,jsons/MX_seq31_0_VE125.json,http://54.235.29.9/FacialAge/BNav_EC2/DepthDuration/MX_fS_VE_MTurk/MX_fS_HTML.html#13,13,1920,1080,1920,1080,1-13-2024,0-49-32,58,VR_target_stimuli/s39_1.3x_1_208.png,125,1.3x,1.0,1,2260,125,meters,jsons/MX_seq31_0_VE125.json,150632,252142,22,Man
58,965674,final-intermixed-textured,v2,jsons/MX_seq31_0_VE125.json,http://54.235.29.9/FacialAge/BNav_EC2/DepthDuration/MX_fS_VE_MTurk/MX_fS_HTML.html#13,13,1920,1080,1920,1080,1-13-2024,0-49-32,59,VR_target_stimuli/s51_1x_3.64_461.png,125,1x,3.64,4,1565,132,meters,jsons/MX_seq31_0_VE125.json,150632,252142,22,Man
59,965674,final-intermixed-textured,v2,jsons/MX_seq31_0_VE125.json,http://54.235.29.9/FacialAge/BNav_EC2/DepthDuration/MX_fS_VE_MTurk/MX_fS_HTML.html#13,13,1920,1080,1920,1080,1-13-2024,0-49-32,60,VR_target_stimuli/s43_0.75x_2.2_348.png,125,0.75x,2.2,5,1586,126,meters,jsons/MX_seq31_0_VE125.json,150632,252142,22,Man
