,subjID,experimentName,versionName,sequenceName,url,selected_row,windowWidth,windowHeight,screenWidth,screenHeight,startDate,startTime,trial,stimulus,duration,scale,actual_depth,depth_estimate,trial_RT,log_sceneDuration,unitSelection,seq_filepath,experimentTime,totalTime,age,gender
0,970967,final-intermixed-textured,v2,jsons/MX_seq14_0_VE125_flipped.json,http://54.235.29.9/FacialAge/BNav_EC2/DepthDuration/MX_fS_VE_MTurk/MX_fS_HTML.html#39,39,1401,760,1440,900,1-12-2024,20-16-47,1,VR_target_stimuli/s21_0.75x_4.22_374_BC.png,125,0.75x,4.22,8,4499,124,feet,jsons/MX_seq14_0_VE125_flipped.json,295240,628913,35,Woman
1,970967,final-intermixed-textured,v2,jsons/MX_seq14_0_VE125_flipped.json,http://54.235.29.9/FacialAge/BNav_EC2/DepthDuration/MX_fS_VE_MTurk/MX_fS_HTML.html#39,39,1401,760,1440,900,1-12-2024,20-16-47,2,VR_target_stimuli/s8_1x_3.1_332.png,125,1x,3.1,9,3756,123,feet,jsons/MX_seq14_0_VE125_flipped.json,295240,628913,35,Woman
2,970967,final-intermixed-textured,v2,jsons/MX_seq14_0_VE125_flipped.json,http://54.235.29.9/FacialAge/BNav_EC2/DepthDuration/MX_fS_VE_MTurk/MX_fS_HTML.html#39,39,1401,760,1440,900,1-12-2024,20-16-47,3,VR_target_stimuli/s27_1.3x_1.76_250_BC.png,125,1.3x,1.76,4,4301,119,feet,jsons/MX_seq14_0_VE125_flipped.json,295240,628913,35,Woman
3,970967,final-intermixed-textured,v2,jsons/MX_seq14_0_VE125_flipped.json,http://54.235.29.9/FacialAge/BNav_EC2/DepthDuration/MX_fS_VE_MTurk/MX_fS_HTML.html#39,39,1401,760,1440,900,1-12-2024,20-16-47,4,VR_target_stimuli/s15_1x_4.2_390_BC.png,125,1x,4.2,5,4001,119,feet,jsons/MX_seq14_0_VE125_flipped.json,295240,628913,35,Woman
4,970967,final-intermixed-textured,v2,jsons/MX_seq14_0_VE125_flipped.json,http://54.235.29.9/FacialAge/BNav_EC2/DepthDuration/MX_fS_VE_MTurk/MX_fS_HTML.html#39,39,1401,760,1440,900,1-12-2024,20-16-47,5,VR_target_stimuli/s4_0.75x_1.4_301.png,125,0.75x,1.4,8,4370,126,feet,jsons/MX_seq14_0_VE125_flipped.json,295240,628913,35,Woman
5,970967,final-intermixed-textured,v2,jsons/MX_seq14_0_VE125_flipped.json,http://54.235.29.9/FacialAge/BNav_EC2/DepthDuration/MX_fS_VE_MTurk/MX_fS_HTML.html#39,39,1401,760,1440,900,1-12-2024,20-16-47,6,VR_target_stimuli/s35_1.3x_2_338.png,125,1.3x,2.0,8,4649,118,feet,jsons/MX_seq14_0_VE125_flipped.json,295240,628913,35,Woman
6,970967,final-intermixed-textured,v2,jsons/MX_seq14_0_VE125_flipped.json,http://54.235.29.9/FacialAge/BNav_EC2/DepthDuration/MX_fS_VE_MTurk/MX_fS_HTML.html#39,39,1401,760,1440,900,1-12-2024,20-16-47,7,catch_stimuli/c0_BC.png,125,,,0,5374,130,feet,jsons/MX_seq14_0_VE125_flipped.json,295240,628913,35,Woman
7,970967,final-intermixed-textured,v2,jsons/MX_seq14_0_VE125_flipped.json,http://54.235.29.9/FacialAge/BNav_EC2/DepthDuration/MX_fS_VE_MTurk/MX_fS_HTML.html#39,39,1401,760,1440,900,1-12-2024,20-16-47,8,VR_target_stimuli/s49_1.3x_4.67_354_BC.png,125,1.3x,4.67,9,3232,131,feet,jsons/MX_seq14_0_VE125_flipped.json,295240,628913,35,Woman
8,970967,final-intermixed-textured,v2,jsons/MX_seq14_0_VE125_flipped.json,http://54.235.29.9/FacialAge/BNav_EC2/DepthDuration/MX_fS_VE_MTurk/MX_fS_HTML.html#39,39,1401,760,1440,900,1-12-2024,20-16-47,9,VR_target_stimuli/s7_1x_1.5_255.png,125,1x,1.5,10,6832,121,feet,jsons/MX_seq14_0_VE125_flipped.json,295240,628913,35,Woman
9,970967,final-intermixed-textured,v2,jsons/MX_seq14_0_VE125_flipped.json,http://54.235.29.9/FacialAge/BNav_EC2/DepthDuration/MX_fS_VE_MTurk/MX_fS_HTML.html#39,39,1401,760,1440,900,1-12-2024,20-16-47,10,VR_target_stimuli/s20_0.75x_4.99_390.png,125,0.75x,4.99,10,3958,120,feet,jsons/MX_seq14_0_VE125_flipped.json,295240,628913,35,Woman
10,970967,final-intermixed-textured,v2,jsons/MX_seq14_0_VE125_flipped.json,http://54.235.29.9/FacialAge/BNav_EC2/DepthDuration/MX_fS_VE_MTurk/MX_fS_HTML.html#39,39,1401,760,1440,900,1-12-2024,20-16-47,11,VR_target_stimuli/s31_1x_4.96_333_BC.png,125,1x,4.96,0,3750,127,feet,jsons/MX_seq14_0_VE125_flipped.json,295240,628913,35,Woman
11,970967,final-intermixed-textured,v2,jsons/MX_seq14_0_VE125_flipped.json,http://54.235.29.9/FacialAge/BNav_EC2/DepthDuration/MX_fS_VE_MTurk/MX_fS_HTML.html#39,39,1401,760,1440,900,1-12-2024,20-16-47,12,VR_target_stimuli/s33_1.3x_3.1_378.png,125,1.3x,3.1,9,3608,117,feet,jsons/MX_seq14_0_VE125_flipped.json,295240,628913,35,Woman
12,970967,final-intermixed-textured,v2,jsons/MX_seq14_0_VE125_flipped.json,http://54.235.29.9/FacialAge/BNav_EC2/DepthDuration/MX_fS_VE_MTurk/MX_fS_HTML.html#39,39,1401,760,1440,900,1-12-2024,20-16-47,13,VR_target_stimuli/s52_0.75x_3.2_270_BC.png,125,0.75x,3.2,12,5490,122,feet,jsons/MX_seq14_0_VE125_flipped.json,295240,628913,35,Woman
13,970967,final-intermixed-textured,v2,jsons/MX_seq14_0_VE125_flipped.json,http://54.235.29.9/FacialAge/BNav_EC2/DepthDuration/MX_fS_VE_MTurk/MX_fS_HTML.html#39,39,1401,760,1440,900,1-12-2024,20-16-47,14,VR_target_stimuli/s32_1.3x_1.5_224_BC.png,125,1.3x,1.5,12,4243,119,feet,jsons/MX_seq14_0_VE125_flipped.json,295240,628913,35,Woman
14,970967,final-intermixed-textured,v2,jsons/MX_seq14_0_VE125_flipped.json,http://54.235.29.9/FacialAge/BNav_EC2/DepthDuration/MX_fS_VE_MTurk/MX_fS_HTML.html#39,39,1401,760,1440,900,1-12-2024,20-16-47,15,VR_target_stimuli/s18_1x_2.25_353.png,125,1x,2.25,8,4481,125,feet,jsons/MX_seq14_0_VE125_flipped.json,295240,628913,35,Woman
15,970967,final-intermixed-textured,v2,jsons/MX_seq14_0_VE125_flipped.json,http://54.235.29.9/FacialAge/BNav_EC2/DepthDuration/MX_fS_VE_MTurk/MX_fS_HTML.html#39,39,1401,760,1440,900,1-12-2024,20-16-47,16,VR_target_stimuli/s39_0.75x_1_205_BC.png,125,0.75x,1.0,9,3828,129,feet,jsons/MX_seq14_0_VE125_flipped.json,295240,628913,35,Woman
16,970967,final-intermixed-textured,v2,jsons/MX_seq14_0_VE125_flipped.json,http://54.235.29.9/FacialAge/BNav_EC2/DepthDuration/MX_fS_VE_MTurk/MX_fS_HTML.html#39,39,1401,760,1440,900,1-12-2024,20-16-47,17,catch_stimuli/c1_BC.png,125,,,0,5143,116,feet,jsons/MX_seq14_0_VE125_flipped.json,295240,628913,35,Woman
17,970967,final-intermixed-textured,v2,jsons/MX_seq14_0_VE125_flipped.json,http://54.235.29.9/FacialAge/BNav_EC2/DepthDuration/MX_fS_VE_MTurk/MX_fS_HTML.html#39,39,1401,760,1440,900,1-12-2024,20-16-47,18,VR_target_stimuli/s51_0.75x_3.64_460.png,125,0.75x,3.64,9,3848,122,feet,jsons/MX_seq14_0_VE125_flipped.json,295240,628913,35,Woman
18,970967,final-intermixed-textured,v2,jsons/MX_seq14_0_VE125_flipped.json,http://54.235.29.9/FacialAge/BNav_EC2/DepthDuration/MX_fS_VE_MTurk/MX_fS_HTML.html#39,39,1401,760,1440,900,1-12-2024,20-16-47,19,VR_target_stimuli/s43_1.3x_2.2_363.png,125,1.3x,2.2,10,3932,115,feet,jsons/MX_seq14_0_VE125_flipped.json,295240,628913,35,Woman
19,970967,final-intermixed-textured,v2,jsons/MX_seq14_0_VE125_flipped.json,http://54.235.29.9/FacialAge/BNav_EC2/DepthDuration/MX_fS_VE_MTurk/MX_fS_HTML.html#39,39,1401,760,1440,900,1-12-2024,20-16-47,20,VR_target_stimuli/s24_1x_3.3_349_BC.png,125,1x,3.3,9,3390,123,feet,jsons/MX_seq14_0_VE125_flipped.json,295240,628913,35,Woman
20,970967,final-intermixed-textured,v2,jsons/MX_seq14_0_VE125_flipped.json,http://54.235.29.9/FacialAge/BNav_EC2/DepthDuration/MX_fS_VE_MTurk/MX_fS_HTML.html#39,39,1401,760,1440,900,1-12-2024,20-16-47,21,VR_target_stimuli/s10_1.3x_2.7_325.png,125,1.3x,2.7,10,4306,128,feet,jsons/MX_seq14_0_VE125_flipped.json,295240,628913,35,Woman
21,970967,final-intermixed-textured,v2,jsons/MX_seq14_0_VE125_flipped.json,http://54.235.29.9/FacialAge/BNav_EC2/DepthDuration/MX_fS_VE_MTurk/MX_fS_HTML.html#39,39,1401,760,1440,900,1-12-2024,20-16-47,22,VR_target_stimuli/s36_0.75x_4.1_407_BC.png,125,0.75x,4.1,9,3408,124,feet,jsons/MX_seq14_0_VE125_flipped.json,295240,628913,35,Woman
22,970967,final-intermixed-textured,v2,jsons/MX_seq14_0_VE125_flipped.json,http://54.235.29.9/FacialAge/BNav_EC2/DepthDuration/MX_fS_VE_MTurk/MX_fS_HTML.html#39,39,1401,760,1440,900,1-12-2024,20-16-47,23,VR_target_stimuli/s40_1x_1.2_319.png,125,1x,1.2,9,5379,119,feet,jsons/MX_seq14_0_VE125_flipped.json,295240,628913,35,Woman
23,970967,final-intermixed-textured,v2,jsons/MX_seq14_0_VE125_flipped.json,http://54.235.29.9/FacialAge/BNav_EC2/DepthDuration/MX_fS_VE_MTurk/MX_fS_HTML.html#39,39,1401,760,1440,900,1-12-2024,20-16-47,24,VR_target_stimuli/s41_0.75x_2.1_281.png,125,0.75x,2.1,0,5350,119,feet,jsons/MX_seq14_0_VE125_flipped.json,295240,628913,35,Woman
24,970967,final-intermixed-textured,v2,jsons/MX_seq14_0_VE125_flipped.json,http://54.235.29.9/FacialAge/BNav_EC2/DepthDuration/MX_fS_VE_MTurk/MX_fS_HTML.html#39,39,1401,760,1440,900,1-12-2024,20-16-47,25,VR_target_stimuli/s45_1.3x_3.5_377_BC.png,125,1.3x,3.5,10,4262,125,feet,jsons/MX_seq14_0_VE125_flipped.json,295240,628913,35,Woman
25,970967,final-intermixed-textured,v2,jsons/MX_seq14_0_VE125_flipped.json,http://54.235.29.9/FacialAge/BNav_EC2/DepthDuration/MX_fS_VE_MTurk/MX_fS_HTML.html#39,39,1401,760,1440,900,1-12-2024,20-16-47,26,catch_stimuli/c2_BC.png,125,,,8,3636,124,feet,jsons/MX_seq14_0_VE125_flipped.json,295240,628913,35,Woman
26,970967,final-intermixed-textured,v2,jsons/MX_seq14_0_VE125_flipped.json,http://54.235.29.9/FacialAge/BNav_EC2/DepthDuration/MX_fS_VE_MTurk/MX_fS_HTML.html#39,39,1401,760,1440,900,1-12-2024,20-16-47,27,VR_target_stimuli/s23_1x_3.65_353_BC.png,125,1x,3.65,10,3724,126,feet,jsons/MX_seq14_0_VE125_flipped.json,295240,628913,35,Woman
27,970967,final-intermixed-textured,v2,jsons/MX_seq14_0_VE125_flipped.json,http://54.235.29.9/FacialAge/BNav_EC2/DepthDuration/MX_fS_VE_MTurk/MX_fS_HTML.html#39,39,1401,760,1440,900,1-12-2024,20-16-47,28,VR_target_stimuli/s26_1x_4_433.png,125,1x,4.0,8,4344,129,feet,jsons/MX_seq14_0_VE125_flipped.json,295240,628913,35,Woman
28,970967,final-intermixed-textured,v2,jsons/MX_seq14_0_VE125_flipped.json,http://54.235.29.9/FacialAge/BNav_EC2/DepthDuration/MX_fS_VE_MTurk/MX_fS_HTML.html#39,39,1401,760,1440,900,1-12-2024,20-16-47,29,VR_target_stimuli/s12_0.75x_3.1_364.png,125,0.75x,3.1,10,3650,118,feet,jsons/MX_seq14_0_VE125_flipped.json,295240,628913,35,Woman
29,970967,final-intermixed-textured,v2,jsons/MX_seq14_0_VE125_flipped.json,http://54.235.29.9/FacialAge/BNav_EC2/DepthDuration/MX_fS_VE_MTurk/MX_fS_HTML.html#39,39,1401,760,1440,900,1-12-2024,20-16-47,30,VR_target_stimuli/s30_1.3x_2.3_337.png,125,1.3x,2.3,9,3430,118,feet,jsons/MX_seq14_0_VE125_flipped.json,295240,628913,35,Woman
30,970967,final-intermixed-textured,v2,jsons/MX_seq14_0_VE125_flipped.json,http://54.235.29.9/FacialAge/BNav_EC2/DepthDuration/MX_fS_VE_MTurk/MX_fS_HTML.html#39,39,1401,760,1440,900,1-12-2024,20-16-47,31,VR_target_stimuli/s16_1x_1_219_BC.png,125,1x,1.0,12,9042,127,feet,jsons/MX_seq14_0_VE125_flipped.json,295240,628913,35,Woman
31,970967,final-intermixed-textured,v2,jsons/MX_seq14_0_VE125_flipped.json,http://54.235.29.9/FacialAge/BNav_EC2/DepthDuration/MX_fS_VE_MTurk/MX_fS_HTML.html#39,39,1401,760,1440,900,1-12-2024,20-16-47,32,VR_target_stimuli/s17_1.3x_1.8_300_BC.png,125,1.3x,1.8,12,4469,117,feet,jsons/MX_seq14_0_VE125_flipped.json,295240,628913,35,Woman
32,970967,final-intermixed-textured,v2,jsons/MX_seq14_0_VE125_flipped.json,http://54.235.29.9/FacialAge/BNav_EC2/DepthDuration/MX_fS_VE_MTurk/MX_fS_HTML.html#39,39,1401,760,1440,900,1-12-2024,20-16-47,33,VR_target_stimuli/s5_0.75x_4_375_BC.png,125,0.75x,4.0,9,7611,129,feet,jsons/MX_seq14_0_VE125_flipped.json,295240,628913,35,Woman
33,970967,final-intermixed-textured,v2,jsons/MX_seq14_0_VE125_flipped.json,http://54.235.29.9/FacialAge/BNav_EC2/DepthDuration/MX_fS_VE_MTurk/MX_fS_HTML.html#39,39,1401,760,1440,900,1-12-2024,20-16-47,34,catch_stimuli/c3_BC.png,125,,,0,4437,119,feet,jsons/MX_seq14_0_VE125_flipped.json,295240,628913,35,Woman
34,970967,final-intermixed-textured,v2,jsons/MX_seq14_0_VE125_flipped.json,http://54.235.29.9/FacialAge/BNav_EC2/DepthDuration/MX_fS_VE_MTurk/MX_fS_HTML.html#39,39,1401,760,1440,900,1-12-2024,20-16-47,35,VR_target_stimuli/s37_1.3x_3.3_555.png,125,1.3x,3.3,9,3682,120,feet,jsons/MX_seq14_0_VE125_flipped.json,295240,628913,35,Woman
35,970967,final-intermixed-textured,v2,jsons/MX_seq14_0_VE125_flipped.json,http://54.235.29.9/FacialAge/BNav_EC2/DepthDuration/MX_fS_VE_MTurk/MX_fS_HTML.html#39,39,1401,760,1440,900,1-12-2024,20-16-47,36,VR_target_stimuli/s46_1x_2.42_348.png,125,1x,2.42,9,3249,119,feet,jsons/MX_seq14_0_VE125_flipped.json,295240,628913,35,Woman
36,970967,final-intermixed-textured,v2,jsons/MX_seq14_0_VE125_flipped.json,http://54.235.29.9/FacialAge/BNav_EC2/DepthDuration/MX_fS_VE_MTurk/MX_fS_HTML.html#39,39,1401,760,1440,900,1-12-2024,20-16-47,37,VR_target_stimuli/s22_0.75x_4.29_348_BC.png,125,0.75x,4.29,10,3699,129,feet,jsons/MX_seq14_0_VE125_flipped.json,295240,628913,35,Woman
37,970967,final-intermixed-textured,v2,jsons/MX_seq14_0_VE125_flipped.json,http://54.235.29.9/FacialAge/BNav_EC2/DepthDuration/MX_fS_VE_MTurk/MX_fS_HTML.html#39,39,1401,760,1440,900,1-12-2024,20-16-47,38,VR_target_stimuli/s42_0.75x_3.2_301.png,125,0.75x,3.2,10,7233,119,feet,jsons/MX_seq14_0_VE125_flipped.json,295240,628913,35,Woman
38,970967,final-intermixed-textured,v2,jsons/MX_seq14_0_VE125_flipped.json,http://54.235.29.9/FacialAge/BNav_EC2/DepthDuration/MX_fS_VE_MTurk/MX_fS_HTML.html#39,39,1401,760,1440,900,1-12-2024,20-16-47,39,VR_target_stimuli/s25_1.3x_1.4_299_BC.png,125,1.3x,1.4,9,4662,129,feet,jsons/MX_seq14_0_VE125_flipped.json,295240,628913,35,Woman
39,970967,final-intermixed-textured,v2,jsons/MX_seq14_0_VE125_flipped.json,http://54.235.29.9/FacialAge/BNav_EC2/DepthDuration/MX_fS_VE_MTurk/MX_fS_HTML.html#39,39,1401,760,1440,900,1-12-2024,20-16-47,40,VR_target_stimuli/s50_1x_4.53_518_BC.png,125,1x,4.53,8,3706,120,feet,jsons/MX_seq14_0_VE125_flipped.json,295240,628913,35,Woman
40,970967,final-intermixed-textured,v2,jsons/MX_seq14_0_VE125_flipped.json,http://54.235.29.9/FacialAge/BNav_EC2/DepthDuration/MX_fS_VE_MTurk/MX_fS_HTML.html#39,39,1401,760,1440,900,1-12-2024,20-16-47,41,VR_target_stimuli/s53_1.3x_1.6_355.png,125,1.3x,1.6,15,4809,131,feet,jsons/MX_seq14_0_VE125_flipped.json,295240,628913,35,Woman
41,970967,final-intermixed-textured,v2,jsons/MX_seq14_0_VE125_flipped.json,http://54.235.29.9/FacialAge/BNav_EC2/DepthDuration/MX_fS_VE_MTurk/MX_fS_HTML.html#39,39,1401,760,1440,900,1-12-2024,20-16-47,42,VR_target_stimuli/s38_0.75x_3.55_346_BC.png,125,0.75x,3.55,10,5500,130,feet,jsons/MX_seq14_0_VE125_flipped.json,295240,628913,35,Woman
42,970967,final-intermixed-textured,v2,jsons/MX_seq14_0_VE125_flipped.json,http://54.235.29.9/FacialAge/BNav_EC2/DepthDuration/MX_fS_VE_MTurk/MX_fS_HTML.html#39,39,1401,760,1440,900,1-12-2024,20-16-47,43,VR_target_stimuli/s9_1x_1.2_263_BC.png,125,1x,1.2,10,4297,118,feet,jsons/MX_seq14_0_VE125_flipped.json,295240,628913,35,Woman
43,970967,final-intermixed-textured,v2,jsons/MX_seq14_0_VE125_flipped.json,http://54.235.29.9/FacialAge/BNav_EC2/DepthDuration/MX_fS_VE_MTurk/MX_fS_HTML.html#39,39,1401,760,1440,900,1-12-2024,20-16-47,44,VR_target_stimuli/s44_0.75x_4.4_314.png,125,0.75x,4.4,10,4607,119,feet,jsons/MX_seq14_0_VE125_flipped.json,295240,628913,35,Woman
44,970967,final-intermixed-textured,v2,jsons/MX_seq14_0_VE125_flipped.json,http://54.235.29.9/FacialAge/BNav_EC2/DepthDuration/MX_fS_VE_MTurk/MX_fS_HTML.html#39,39,1401,760,1440,900,1-12-2024,20-16-47,45,catch_stimuli/c4_BC.png,125,,,8,3893,120,feet,jsons/MX_seq14_0_VE125_flipped.json,295240,628913,35,Woman
45,970967,final-intermixed-textured,v2,jsons/MX_seq14_0_VE125_flipped.json,http://54.235.29.9/FacialAge/BNav_EC2/DepthDuration/MX_fS_VE_MTurk/MX_fS_HTML.html#39,39,1401,760,1440,900,1-12-2024,20-16-47,46,VR_target_stimuli/s3_1.3x_5_390_BC.png,125,1.3x,5.0,10,4038,127,feet,jsons/MX_seq14_0_VE125_flipped.json,295240,628913,35,Woman
46,970967,final-intermixed-textured,v2,jsons/MX_seq14_0_VE125_flipped.json,http://54.235.29.9/FacialAge/BNav_EC2/DepthDuration/MX_fS_VE_MTurk/MX_fS_HTML.html#39,39,1401,760,1440,900,1-12-2024,20-16-47,47,VR_target_stimuli/s1_1x_1.7_262.png,125,1x,1.7,13,3937,124,feet,jsons/MX_seq14_0_VE125_flipped.json,295240,628913,35,Woman
47,970967,final-intermixed-textured,v2,jsons/MX_seq14_0_VE125_flipped.json,http://54.235.29.9/FacialAge/BNav_EC2/DepthDuration/MX_fS_VE_MTurk/MX_fS_HTML.html#39,39,1401,760,1440,900,1-12-2024,20-16-47,48,VR_target_stimuli/s11_1x_5_361.png,125,1x,5.0,5,6350,118,feet,jsons/MX_seq14_0_VE125_flipped.json,295240,628913,35,Woman
48,970967,final-intermixed-textured,v2,jsons/MX_seq14_0_VE125_flipped.json,http://54.235.29.9/FacialAge/BNav_EC2/DepthDuration/MX_fS_VE_MTurk/MX_fS_HTML.html#39,39,1401,760,1440,900,1-12-2024,20-16-47,49,VR_target_stimuli/s2_0.75x_2.7_384_BC.png,125,0.75x,2.7,13,4094,129,feet,jsons/MX_seq14_0_VE125_flipped.json,295240,628913,35,Woman
49,970967,final-intermixed-textured,v2,jsons/MX_seq14_0_VE125_flipped.json,http://54.235.29.9/FacialAge/BNav_EC2/DepthDuration/MX_fS_VE_MTurk/MX_fS_HTML.html#39,39,1401,760,1440,900,1-12-2024,20-16-47,50,VR_target_stimuli/s6_1.3x_2.1_298_BC.png,125,1.3x,2.1,13,4908,126,feet,jsons/MX_seq14_0_VE125_flipped.json,295240,628913,35,Woman
50,970967,final-intermixed-textured,v2,jsons/MX_seq14_0_VE125_flipped.json,http://54.235.29.9/FacialAge/BNav_EC2/DepthDuration/MX_fS_VE_MTurk/MX_fS_HTML.html#39,39,1401,760,1440,900,1-12-2024,20-16-47,51,VR_target_stimuli/s0_0.75x_2.6_345.png,125,0.75x,2.6,10,8437,130,feet,jsons/MX_seq14_0_VE125_flipped.json,295240,628913,35,Woman
51,970967,final-intermixed-textured,v2,jsons/MX_seq14_0_VE125_flipped.json,http://54.235.29.9/FacialAge/BNav_EC2/DepthDuration/MX_fS_VE_MTurk/MX_fS_HTML.html#39,39,1401,760,1440,900,1-12-2024,20-16-47,52,VR_target_stimuli/s34_1x_2.8_283_BC.png,125,1x,2.8,13,3497,121,feet,jsons/MX_seq14_0_VE125_flipped.json,295240,628913,35,Woman
52,970967,final-intermixed-textured,v2,jsons/MX_seq14_0_VE125_flipped.json,http://54.235.29.9/FacialAge/BNav_EC2/DepthDuration/MX_fS_VE_MTurk/MX_fS_HTML.html#39,39,1401,760,1440,900,1-12-2024,20-16-47,53,catch_stimuli/c5_BC.png,125,,,0,3244,119,feet,jsons/MX_seq14_0_VE125_flipped.json,295240,628913,35,Woman
53,970967,final-intermixed-textured,v2,jsons/MX_seq14_0_VE125_flipped.json,http://54.235.29.9/FacialAge/BNav_EC2/DepthDuration/MX_fS_VE_MTurk/MX_fS_HTML.html#39,39,1401,760,1440,900,1-12-2024,20-16-47,54,VR_target_stimuli/s13_1.3x_2.4_313.png,125,1.3x,2.4,12,3203,123,feet,jsons/MX_seq14_0_VE125_flipped.json,295240,628913,35,Woman
54,970967,final-intermixed-textured,v2,jsons/MX_seq14_0_VE125_flipped.json,http://54.235.29.9/FacialAge/BNav_EC2/DepthDuration/MX_fS_VE_MTurk/MX_fS_HTML.html#39,39,1401,760,1440,900,1-12-2024,20-16-47,55,VR_target_stimuli/s14_1x_ 3.83_357.png,125,1x,3.83,8,3447,126,feet,jsons/MX_seq14_0_VE125_flipped.json,295240,628913,35,Woman
55,970967,final-intermixed-textured,v2,jsons/MX_seq14_0_VE125_flipped.json,http://54.235.29.9/FacialAge/BNav_EC2/DepthDuration/MX_fS_VE_MTurk/MX_fS_HTML.html#39,39,1401,760,1440,900,1-12-2024,20-16-47,56,VR_target_stimuli/s47_0.75x_3.45_366_BC.png,125,0.75x,3.45,8,3701,119,feet,jsons/MX_seq14_0_VE125_flipped.json,295240,628913,35,Woman
56,970967,final-intermixed-textured,v2,jsons/MX_seq14_0_VE125_flipped.json,http://54.235.29.9/FacialAge/BNav_EC2/DepthDuration/MX_fS_VE_MTurk/MX_fS_HTML.html#39,39,1401,760,1440,900,1-12-2024,20-16-47,57,VR_target_stimuli/s29_1.3x_1.3_253_BC.png,125,1.3x,1.3,8,3357,127,feet,jsons/MX_seq14_0_VE125_flipped.json,295240,628913,35,Woman
57,970967,final-intermixed-textured,v2,jsons/MX_seq14_0_VE125_flipped.json,http://54.235.29.9/FacialAge/BNav_EC2/DepthDuration/MX_fS_VE_MTurk/MX_fS_HTML.html#39,39,1401,760,1440,900,1-12-2024,20-16-47,58,VR_target_stimuli/s28_1.3x_3.2_365.png,125,1.3x,3.2,13,3228,123,feet,jsons/MX_seq14_0_VE125_flipped.json,295240,628913,35,Woman
58,970967,final-intermixed-textured,v2,jsons/MX_seq14_0_VE125_flipped.json,http://54.235.29.9/FacialAge/BNav_EC2/DepthDuration/MX_fS_VE_MTurk/MX_fS_HTML.html#39,39,1401,760,1440,900,1-12-2024,20-16-47,59,VR_target_stimuli/s48_1x_2.55_256_BC.png,125,1x,2.55,13,2914,129,feet,jsons/MX_seq14_0_VE125_flipped.json,295240,628913,35,Woman
59,970967,final-intermixed-textured,v2,jsons/MX_seq14_0_VE125_flipped.json,http://54.235.29.9/FacialAge/BNav_EC2/DepthDuration/MX_fS_VE_MTurk/MX_fS_HTML.html#39,39,1401,760,1440,900,1-12-2024,20-16-47,60,VR_target_stimuli/s19_0.75x_1.21_257.png,125,0.75x,1.21,12,3359,120,feet,jsons/MX_seq14_0_VE125_flipped.json,295240,628913,35,Woman
