,subjID,experimentName,versionName,sequenceName,url,selected_row,windowWidth,windowHeight,screenWidth,screenHeight,startDate,startTime,trial,stimulus,duration,scale,actual_depth,depth_estimate,trial_RT,log_sceneDuration,unitSelection,seq_filepath,experimentTime,totalTime,age,gender
0,977517,final-intermixed-textured,v2,jsons/MX_seq44_1_VE125_flipped.json,http://54.235.29.9/FacialAge/BNav_EC2/DepthDuration/MX_fS_VE_MTurk/MX_fS_HTML.html#15,15,1920,927,1920,1080,1-12-2024,12-31-32,1,VR_target_stimuli/s37_1.3x_3.3_555_BC.png,125,1.3x,3.3,3.0,5036,111,meters,jsons/MX_seq44_1_VE125_flipped.json,241784,549256,24,Man
1,977517,final-intermixed-textured,v2,jsons/MX_seq44_1_VE125_flipped.json,http://54.235.29.9/FacialAge/BNav_EC2/DepthDuration/MX_fS_VE_MTurk/MX_fS_HTML.html#15,15,1920,927,1920,1080,1-12-2024,12-31-32,2,VR_target_stimuli/s46_0.75x_2.42_343.png,125,0.75x,2.42,4.0,3349,126,meters,jsons/MX_seq44_1_VE125_flipped.json,241784,549256,24,Man
2,977517,final-intermixed-textured,v2,jsons/MX_seq44_1_VE125_flipped.json,http://54.235.29.9/FacialAge/BNav_EC2/DepthDuration/MX_fS_VE_MTurk/MX_fS_HTML.html#15,15,1920,927,1920,1080,1-12-2024,12-31-32,3,VR_target_stimuli/s22_1x_4.29_354.png,125,1x,4.29,3.0,2912,124,meters,jsons/MX_seq44_1_VE125_flipped.json,241784,549256,24,Man
3,977517,final-intermixed-textured,v2,jsons/MX_seq44_1_VE125_flipped.json,http://54.235.29.9/FacialAge/BNav_EC2/DepthDuration/MX_fS_VE_MTurk/MX_fS_HTML.html#15,15,1920,927,1920,1080,1-12-2024,12-31-32,4,VR_target_stimuli/s42_0.75x_3.2_301_BC.png,125,0.75x,3.2,3.0,2112,129,meters,jsons/MX_seq44_1_VE125_flipped.json,241784,549256,24,Man
4,977517,final-intermixed-textured,v2,jsons/MX_seq44_1_VE125_flipped.json,http://54.235.29.9/FacialAge/BNav_EC2/DepthDuration/MX_fS_VE_MTurk/MX_fS_HTML.html#15,15,1920,927,1920,1080,1-12-2024,12-31-32,5,VR_target_stimuli/s25_1.3x_1.4_299.png,125,1.3x,1.4,2.0,3219,139,meters,jsons/MX_seq44_1_VE125_flipped.json,241784,549256,24,Man
5,977517,final-intermixed-textured,v2,jsons/MX_seq44_1_VE125_flipped.json,http://54.235.29.9/FacialAge/BNav_EC2/DepthDuration/MX_fS_VE_MTurk/MX_fS_HTML.html#15,15,1920,927,1920,1080,1-12-2024,12-31-32,6,VR_target_stimuli/s50_1x_4.53_518_BC.png,125,1x,4.53,2.0,3053,124,meters,jsons/MX_seq44_1_VE125_flipped.json,241784,549256,24,Man
6,977517,final-intermixed-textured,v2,jsons/MX_seq44_1_VE125_flipped.json,http://54.235.29.9/FacialAge/BNav_EC2/DepthDuration/MX_fS_VE_MTurk/MX_fS_HTML.html#15,15,1920,927,1920,1080,1-12-2024,12-31-32,7,catch_stimuli/c0_BC.png,125,,,0.0,2373,126,meters,jsons/MX_seq44_1_VE125_flipped.json,241784,549256,24,Man
7,977517,final-intermixed-textured,v2,jsons/MX_seq44_1_VE125_flipped.json,http://54.235.29.9/FacialAge/BNav_EC2/DepthDuration/MX_fS_VE_MTurk/MX_fS_HTML.html#15,15,1920,927,1920,1080,1-12-2024,12-31-32,8,VR_target_stimuli/s53_1x_1.6_387.png,125,1x,1.6,0.5,10310,124,meters,jsons/MX_seq44_1_VE125_flipped.json,241784,549256,24,Man
8,977517,final-intermixed-textured,v2,jsons/MX_seq44_1_VE125_flipped.json,http://54.235.29.9/FacialAge/BNav_EC2/DepthDuration/MX_fS_VE_MTurk/MX_fS_HTML.html#15,15,1920,927,1920,1080,1-12-2024,12-31-32,9,VR_target_stimuli/s38_0.75x_3.55_346.png,125,0.75x,3.55,4.0,2966,123,meters,jsons/MX_seq44_1_VE125_flipped.json,241784,549256,24,Man
9,977517,final-intermixed-textured,v2,jsons/MX_seq44_1_VE125_flipped.json,http://54.235.29.9/FacialAge/BNav_EC2/DepthDuration/MX_fS_VE_MTurk/MX_fS_HTML.html#15,15,1920,927,1920,1080,1-12-2024,12-31-32,10,VR_target_stimuli/s9_1.3x_1.2_276_BC.png,125,1.3x,1.2,0.5,8049,124,meters,jsons/MX_seq44_1_VE125_flipped.json,241784,549256,24,Man
10,977517,final-intermixed-textured,v2,jsons/MX_seq44_1_VE125_flipped.json,http://54.235.29.9/FacialAge/BNav_EC2/DepthDuration/MX_fS_VE_MTurk/MX_fS_HTML.html#15,15,1920,927,1920,1080,1-12-2024,12-31-32,11,VR_target_stimuli/s44_0.75x_4.4_314_BC.png,125,0.75x,4.4,4.0,10644,125,meters,jsons/MX_seq44_1_VE125_flipped.json,241784,549256,24,Man
11,977517,final-intermixed-textured,v2,jsons/MX_seq44_1_VE125_flipped.json,http://54.235.29.9/FacialAge/BNav_EC2/DepthDuration/MX_fS_VE_MTurk/MX_fS_HTML.html#15,15,1920,927,1920,1080,1-12-2024,12-31-32,12,VR_target_stimuli/s3_1x_5_385_BC.png,125,1x,5.0,5.0,3042,126,meters,jsons/MX_seq44_1_VE125_flipped.json,241784,549256,24,Man
12,977517,final-intermixed-textured,v2,jsons/MX_seq44_1_VE125_flipped.json,http://54.235.29.9/FacialAge/BNav_EC2/DepthDuration/MX_fS_VE_MTurk/MX_fS_HTML.html#15,15,1920,927,1920,1080,1-12-2024,12-31-32,13,VR_target_stimuli/s1_1.3x_1.7_261.png,125,1.3x,1.7,1.5,5905,122,meters,jsons/MX_seq44_1_VE125_flipped.json,241784,549256,24,Man
13,977517,final-intermixed-textured,v2,jsons/MX_seq44_1_VE125_flipped.json,http://54.235.29.9/FacialAge/BNav_EC2/DepthDuration/MX_fS_VE_MTurk/MX_fS_HTML.html#15,15,1920,927,1920,1080,1-12-2024,12-31-32,14,VR_target_stimuli/s11_1x_5_361.png,125,1x,5.0,5.0,2533,125,meters,jsons/MX_seq44_1_VE125_flipped.json,241784,549256,24,Man
14,977517,final-intermixed-textured,v2,jsons/MX_seq44_1_VE125_flipped.json,http://54.235.29.9/FacialAge/BNav_EC2/DepthDuration/MX_fS_VE_MTurk/MX_fS_HTML.html#15,15,1920,927,1920,1080,1-12-2024,12-31-32,15,VR_target_stimuli/s2_0.75x_2.7_384_BC.png,125,0.75x,2.7,2.0,1794,128,meters,jsons/MX_seq44_1_VE125_flipped.json,241784,549256,24,Man
15,977517,final-intermixed-textured,v2,jsons/MX_seq44_1_VE125_flipped.json,http://54.235.29.9/FacialAge/BNav_EC2/DepthDuration/MX_fS_VE_MTurk/MX_fS_HTML.html#15,15,1920,927,1920,1080,1-12-2024,12-31-32,16,VR_target_stimuli/s6_1.3x_2.1_298.png,125,1.3x,2.1,3.0,3182,123,meters,jsons/MX_seq44_1_VE125_flipped.json,241784,549256,24,Man
16,977517,final-intermixed-textured,v2,jsons/MX_seq44_1_VE125_flipped.json,http://54.235.29.9/FacialAge/BNav_EC2/DepthDuration/MX_fS_VE_MTurk/MX_fS_HTML.html#15,15,1920,927,1920,1080,1-12-2024,12-31-32,17,catch_stimuli/c1_BC.png,125,,,0.0,2529,124,meters,jsons/MX_seq44_1_VE125_flipped.json,241784,549256,24,Man
17,977517,final-intermixed-textured,v2,jsons/MX_seq44_1_VE125_flipped.json,http://54.235.29.9/FacialAge/BNav_EC2/DepthDuration/MX_fS_VE_MTurk/MX_fS_HTML.html#15,15,1920,927,1920,1080,1-12-2024,12-31-32,18,VR_target_stimuli/s0_1.3x_2.6_356_BC.png,125,1.3x,2.6,2.0,4147,123,meters,jsons/MX_seq44_1_VE125_flipped.json,241784,549256,24,Man
18,977517,final-intermixed-textured,v2,jsons/MX_seq44_1_VE125_flipped.json,http://54.235.29.9/FacialAge/BNav_EC2/DepthDuration/MX_fS_VE_MTurk/MX_fS_HTML.html#15,15,1920,927,1920,1080,1-12-2024,12-31-32,19,VR_target_stimuli/s34_1x_2.8_283_BC.png,125,1x,2.8,3.0,3073,125,meters,jsons/MX_seq44_1_VE125_flipped.json,241784,549256,24,Man
19,977517,final-intermixed-textured,v2,jsons/MX_seq44_1_VE125_flipped.json,http://54.235.29.9/FacialAge/BNav_EC2/DepthDuration/MX_fS_VE_MTurk/MX_fS_HTML.html#15,15,1920,927,1920,1080,1-12-2024,12-31-32,20,VR_target_stimuli/s13_0.75x_2.4_308.png,125,0.75x,2.4,1.0,2566,124,meters,jsons/MX_seq44_1_VE125_flipped.json,241784,549256,24,Man
20,977517,final-intermixed-textured,v2,jsons/MX_seq44_1_VE125_flipped.json,http://54.235.29.9/FacialAge/BNav_EC2/DepthDuration/MX_fS_VE_MTurk/MX_fS_HTML.html#15,15,1920,927,1920,1080,1-12-2024,12-31-32,21,VR_target_stimuli/s14_1x_ 3.83_357.png,125,1x,3.83,3.0,4653,125,meters,jsons/MX_seq44_1_VE125_flipped.json,241784,549256,24,Man
21,977517,final-intermixed-textured,v2,jsons/MX_seq44_1_VE125_flipped.json,http://54.235.29.9/FacialAge/BNav_EC2/DepthDuration/MX_fS_VE_MTurk/MX_fS_HTML.html#15,15,1920,927,1920,1080,1-12-2024,12-31-32,22,VR_target_stimuli/s47_1.3x_3.45_373.png,125,1.3x,3.45,3.0,7540,125,meters,jsons/MX_seq44_1_VE125_flipped.json,241784,549256,24,Man
22,977517,final-intermixed-textured,v2,jsons/MX_seq44_1_VE125_flipped.json,http://54.235.29.9/FacialAge/BNav_EC2/DepthDuration/MX_fS_VE_MTurk/MX_fS_HTML.html#15,15,1920,927,1920,1080,1-12-2024,12-31-32,23,VR_target_stimuli/s29_0.75x_1.3_246_BC.png,125,0.75x,1.3,1.0,2145,125,meters,jsons/MX_seq44_1_VE125_flipped.json,241784,549256,24,Man
23,977517,final-intermixed-textured,v2,jsons/MX_seq44_1_VE125_flipped.json,http://54.235.29.9/FacialAge/BNav_EC2/DepthDuration/MX_fS_VE_MTurk/MX_fS_HTML.html#15,15,1920,927,1920,1080,1-12-2024,12-31-32,24,VR_target_stimuli/s28_1.3x_3.2_365_BC.png,125,1.3x,3.2,2.0,1810,123,meters,jsons/MX_seq44_1_VE125_flipped.json,241784,549256,24,Man
24,977517,final-intermixed-textured,v2,jsons/MX_seq44_1_VE125_flipped.json,http://54.235.29.9/FacialAge/BNav_EC2/DepthDuration/MX_fS_VE_MTurk/MX_fS_HTML.html#15,15,1920,927,1920,1080,1-12-2024,12-31-32,25,VR_target_stimuli/s48_1x_2.55_256_BC.png,125,1x,2.55,6.0,3502,126,meters,jsons/MX_seq44_1_VE125_flipped.json,241784,549256,24,Man
25,977517,final-intermixed-textured,v2,jsons/MX_seq44_1_VE125_flipped.json,http://54.235.29.9/FacialAge/BNav_EC2/DepthDuration/MX_fS_VE_MTurk/MX_fS_HTML.html#15,15,1920,927,1920,1080,1-12-2024,12-31-32,26,catch_stimuli/c2_BC.png,125,,,0.0,2042,110,meters,jsons/MX_seq44_1_VE125_flipped.json,241784,549256,24,Man
26,977517,final-intermixed-textured,v2,jsons/MX_seq44_1_VE125_flipped.json,http://54.235.29.9/FacialAge/BNav_EC2/DepthDuration/MX_fS_VE_MTurk/MX_fS_HTML.html#15,15,1920,927,1920,1080,1-12-2024,12-31-32,27,VR_target_stimuli/s19_0.75x_1.21_257.png,125,0.75x,1.21,1.0,1733,121,meters,jsons/MX_seq44_1_VE125_flipped.json,241784,549256,24,Man
27,977517,final-intermixed-textured,v2,jsons/MX_seq44_1_VE125_flipped.json,http://54.235.29.9/FacialAge/BNav_EC2/DepthDuration/MX_fS_VE_MTurk/MX_fS_HTML.html#15,15,1920,927,1920,1080,1-12-2024,12-31-32,28,VR_target_stimuli/s21_0.75x_4.22_374.png,125,0.75x,4.22,6.0,2858,123,meters,jsons/MX_seq44_1_VE125_flipped.json,241784,549256,24,Man
28,977517,final-intermixed-textured,v2,jsons/MX_seq44_1_VE125_flipped.json,http://54.235.29.9/FacialAge/BNav_EC2/DepthDuration/MX_fS_VE_MTurk/MX_fS_HTML.html#15,15,1920,927,1920,1080,1-12-2024,12-31-32,29,VR_target_stimuli/s8_1.3x_3.1_345_BC.png,125,1.3x,3.1,3.0,3251,123,meters,jsons/MX_seq44_1_VE125_flipped.json,241784,549256,24,Man
29,977517,final-intermixed-textured,v2,jsons/MX_seq44_1_VE125_flipped.json,http://54.235.29.9/FacialAge/BNav_EC2/DepthDuration/MX_fS_VE_MTurk/MX_fS_HTML.html#15,15,1920,927,1920,1080,1-12-2024,12-31-32,30,VR_target_stimuli/s27_1x_1.76_248_BC.png,125,1x,1.76,2.0,2353,122,meters,jsons/MX_seq44_1_VE125_flipped.json,241784,549256,24,Man
30,977517,final-intermixed-textured,v2,jsons/MX_seq44_1_VE125_flipped.json,http://54.235.29.9/FacialAge/BNav_EC2/DepthDuration/MX_fS_VE_MTurk/MX_fS_HTML.html#15,15,1920,927,1920,1080,1-12-2024,12-31-32,31,VR_target_stimuli/s15_0.75x_4.2_388_BC.png,125,0.75x,4.2,3.0,3689,127,meters,jsons/MX_seq44_1_VE125_flipped.json,241784,549256,24,Man
31,977517,final-intermixed-textured,v2,jsons/MX_seq44_1_VE125_flipped.json,http://54.235.29.9/FacialAge/BNav_EC2/DepthDuration/MX_fS_VE_MTurk/MX_fS_HTML.html#15,15,1920,927,1920,1080,1-12-2024,12-31-32,32,VR_target_stimuli/s4_1x_1.4_313.png,125,1x,1.4,1.0,3026,123,meters,jsons/MX_seq44_1_VE125_flipped.json,241784,549256,24,Man
32,977517,final-intermixed-textured,v2,jsons/MX_seq44_1_VE125_flipped.json,http://54.235.29.9/FacialAge/BNav_EC2/DepthDuration/MX_fS_VE_MTurk/MX_fS_HTML.html#15,15,1920,927,1920,1080,1-12-2024,12-31-32,33,VR_target_stimuli/s35_1.3x_2_338.png,125,1.3x,2.0,1.0,3376,125,meters,jsons/MX_seq44_1_VE125_flipped.json,241784,549256,24,Man
33,977517,final-intermixed-textured,v2,jsons/MX_seq44_1_VE125_flipped.json,http://54.235.29.9/FacialAge/BNav_EC2/DepthDuration/MX_fS_VE_MTurk/MX_fS_HTML.html#15,15,1920,927,1920,1080,1-12-2024,12-31-32,34,catch_stimuli/c3_BC.png,125,,,0.0,1817,124,meters,jsons/MX_seq44_1_VE125_flipped.json,241784,549256,24,Man
34,977517,final-intermixed-textured,v2,jsons/MX_seq44_1_VE125_flipped.json,http://54.235.29.9/FacialAge/BNav_EC2/DepthDuration/MX_fS_VE_MTurk/MX_fS_HTML.html#15,15,1920,927,1920,1080,1-12-2024,12-31-32,35,VR_target_stimuli/s49_1x_4.67_341_BC.png,125,1x,4.67,3.0,2674,112,meters,jsons/MX_seq44_1_VE125_flipped.json,241784,549256,24,Man
35,977517,final-intermixed-textured,v2,jsons/MX_seq44_1_VE125_flipped.json,http://54.235.29.9/FacialAge/BNav_EC2/DepthDuration/MX_fS_VE_MTurk/MX_fS_HTML.html#15,15,1920,927,1920,1080,1-12-2024,12-31-32,36,VR_target_stimuli/s7_0.75x_1.5_253.png,125,0.75x,1.5,0.7,4426,127,meters,jsons/MX_seq44_1_VE125_flipped.json,241784,549256,24,Man
36,977517,final-intermixed-textured,v2,jsons/MX_seq44_1_VE125_flipped.json,http://54.235.29.9/FacialAge/BNav_EC2/DepthDuration/MX_fS_VE_MTurk/MX_fS_HTML.html#15,15,1920,927,1920,1080,1-12-2024,12-31-32,37,VR_target_stimuli/s20_1.3x_4.99_412.png,125,1.3x,4.99,2.0,3382,96,meters,jsons/MX_seq44_1_VE125_flipped.json,241784,549256,24,Man
37,977517,final-intermixed-textured,v2,jsons/MX_seq44_1_VE125_flipped.json,http://54.235.29.9/FacialAge/BNav_EC2/DepthDuration/MX_fS_VE_MTurk/MX_fS_HTML.html#15,15,1920,927,1920,1080,1-12-2024,12-31-32,38,VR_target_stimuli/s31_1.3x_4.96_342_BC.png,125,1.3x,4.96,6.0,4238,124,meters,jsons/MX_seq44_1_VE125_flipped.json,241784,549256,24,Man
38,977517,final-intermixed-textured,v2,jsons/MX_seq44_1_VE125_flipped.json,http://54.235.29.9/FacialAge/BNav_EC2/DepthDuration/MX_fS_VE_MTurk/MX_fS_HTML.html#15,15,1920,927,1920,1080,1-12-2024,12-31-32,39,VR_target_stimuli/s33_1x_3.1_366.png,125,1x,3.1,3.0,3101,125,meters,jsons/MX_seq44_1_VE125_flipped.json,241784,549256,24,Man
39,977517,final-intermixed-textured,v2,jsons/MX_seq44_1_VE125_flipped.json,http://54.235.29.9/FacialAge/BNav_EC2/DepthDuration/MX_fS_VE_MTurk/MX_fS_HTML.html#15,15,1920,927,1920,1080,1-12-2024,12-31-32,40,VR_target_stimuli/s52_0.75x_3.2_270_BC.png,125,0.75x,3.2,3.0,3546,123,meters,jsons/MX_seq44_1_VE125_flipped.json,241784,549256,24,Man
40,977517,final-intermixed-textured,v2,jsons/MX_seq44_1_VE125_flipped.json,http://54.235.29.9/FacialAge/BNav_EC2/DepthDuration/MX_fS_VE_MTurk/MX_fS_HTML.html#15,15,1920,927,1920,1080,1-12-2024,12-31-32,41,VR_target_stimuli/s32_1x_1.5_218_BC.png,125,1x,1.5,2.0,2293,122,meters,jsons/MX_seq44_1_VE125_flipped.json,241784,549256,24,Man
41,977517,final-intermixed-textured,v2,jsons/MX_seq44_1_VE125_flipped.json,http://54.235.29.9/FacialAge/BNav_EC2/DepthDuration/MX_fS_VE_MTurk/MX_fS_HTML.html#15,15,1920,927,1920,1080,1-12-2024,12-31-32,42,VR_target_stimuli/s18_1.3x_2.25_368_BC.png,125,1.3x,2.25,1.0,2631,127,meters,jsons/MX_seq44_1_VE125_flipped.json,241784,549256,24,Man
42,977517,final-intermixed-textured,v2,jsons/MX_seq44_1_VE125_flipped.json,http://54.235.29.9/FacialAge/BNav_EC2/DepthDuration/MX_fS_VE_MTurk/MX_fS_HTML.html#15,15,1920,927,1920,1080,1-12-2024,12-31-32,43,VR_target_stimuli/s39_0.75x_1_205.png,125,0.75x,1.0,0.5,4780,125,meters,jsons/MX_seq44_1_VE125_flipped.json,241784,549256,24,Man
43,977517,final-intermixed-textured,v2,jsons/MX_seq44_1_VE125_flipped.json,http://54.235.29.9/FacialAge/BNav_EC2/DepthDuration/MX_fS_VE_MTurk/MX_fS_HTML.html#15,15,1920,927,1920,1080,1-12-2024,12-31-32,44,VR_target_stimuli/s51_1.3x_3.64_479.png,125,1.3x,3.64,0.7,6088,127,meters,jsons/MX_seq44_1_VE125_flipped.json,241784,549256,24,Man
44,977517,final-intermixed-textured,v2,jsons/MX_seq44_1_VE125_flipped.json,http://54.235.29.9/FacialAge/BNav_EC2/DepthDuration/MX_fS_VE_MTurk/MX_fS_HTML.html#15,15,1920,927,1920,1080,1-12-2024,12-31-32,45,catch_stimuli/c4_BC.png,125,,,0.0,1822,123,meters,jsons/MX_seq44_1_VE125_flipped.json,241784,549256,24,Man
45,977517,final-intermixed-textured,v2,jsons/MX_seq44_1_VE125_flipped.json,http://54.235.29.9/FacialAge/BNav_EC2/DepthDuration/MX_fS_VE_MTurk/MX_fS_HTML.html#15,15,1920,927,1920,1080,1-12-2024,12-31-32,46,VR_target_stimuli/s43_1x_2.2_354.png,125,1x,2.2,1.0,3622,126,meters,jsons/MX_seq44_1_VE125_flipped.json,241784,549256,24,Man
46,977517,final-intermixed-textured,v2,jsons/MX_seq44_1_VE125_flipped.json,http://54.235.29.9/FacialAge/BNav_EC2/DepthDuration/MX_fS_VE_MTurk/MX_fS_HTML.html#15,15,1920,927,1920,1080,1-12-2024,12-31-32,47,VR_target_stimuli/s24_0.75x_3.3_344_BC.png,125,0.75x,3.3,1.0,3397,112,meters,jsons/MX_seq44_1_VE125_flipped.json,241784,549256,24,Man
47,977517,final-intermixed-textured,v2,jsons/MX_seq44_1_VE125_flipped.json,http://54.235.29.9/FacialAge/BNav_EC2/DepthDuration/MX_fS_VE_MTurk/MX_fS_HTML.html#15,15,1920,927,1920,1080,1-12-2024,12-31-32,48,VR_target_stimuli/s10_0.75x_2.7_321.png,125,0.75x,2.7,0.0,2265,125,meters,jsons/MX_seq44_1_VE125_flipped.json,241784,549256,24,Man
48,977517,final-intermixed-textured,v2,jsons/MX_seq44_1_VE125_flipped.json,http://54.235.29.9/FacialAge/BNav_EC2/DepthDuration/MX_fS_VE_MTurk/MX_fS_HTML.html#15,15,1920,927,1920,1080,1-12-2024,12-31-32,49,VR_target_stimuli/s36_1.3x_4.1_442_BC.png,125,1.3x,4.1,3.0,4009,129,meters,jsons/MX_seq44_1_VE125_flipped.json,241784,549256,24,Man
49,977517,final-intermixed-textured,v2,jsons/MX_seq44_1_VE125_flipped.json,http://54.235.29.9/FacialAge/BNav_EC2/DepthDuration/MX_fS_VE_MTurk/MX_fS_HTML.html#15,15,1920,927,1920,1080,1-12-2024,12-31-32,50,VR_target_stimuli/s40_1x_1.2_319.png,125,1x,1.2,1.0,1953,78,meters,jsons/MX_seq44_1_VE125_flipped.json,241784,549256,24,Man
50,977517,final-intermixed-textured,v2,jsons/MX_seq44_1_VE125_flipped.json,http://54.235.29.9/FacialAge/BNav_EC2/DepthDuration/MX_fS_VE_MTurk/MX_fS_HTML.html#15,15,1920,927,1920,1080,1-12-2024,12-31-32,51,VR_target_stimuli/s41_1.3x_2.1_294.png,125,1.3x,2.1,2.0,4414,125,meters,jsons/MX_seq44_1_VE125_flipped.json,241784,549256,24,Man
51,977517,final-intermixed-textured,v2,jsons/MX_seq44_1_VE125_flipped.json,http://54.235.29.9/FacialAge/BNav_EC2/DepthDuration/MX_fS_VE_MTurk/MX_fS_HTML.html#15,15,1920,927,1920,1080,1-12-2024,12-31-32,52,VR_target_stimuli/s45_0.75x_3.5_362_BC.png,125,0.75x,3.5,2.0,7576,128,meters,jsons/MX_seq44_1_VE125_flipped.json,241784,549256,24,Man
52,977517,final-intermixed-textured,v2,jsons/MX_seq44_1_VE125_flipped.json,http://54.235.29.9/FacialAge/BNav_EC2/DepthDuration/MX_fS_VE_MTurk/MX_fS_HTML.html#15,15,1920,927,1920,1080,1-12-2024,12-31-32,53,catch_stimuli/c5_BC.png,125,,,0.0,1876,124,meters,jsons/MX_seq44_1_VE125_flipped.json,241784,549256,24,Man
53,977517,final-intermixed-textured,v2,jsons/MX_seq44_1_VE125_flipped.json,http://54.235.29.9/FacialAge/BNav_EC2/DepthDuration/MX_fS_VE_MTurk/MX_fS_HTML.html#15,15,1920,927,1920,1080,1-12-2024,12-31-32,54,VR_target_stimuli/s23_1x_3.65_353_BC.png,125,1x,3.65,3.0,2593,124,meters,jsons/MX_seq44_1_VE125_flipped.json,241784,549256,24,Man
54,977517,final-intermixed-textured,v2,jsons/MX_seq44_1_VE125_flipped.json,http://54.235.29.9/FacialAge/BNav_EC2/DepthDuration/MX_fS_VE_MTurk/MX_fS_HTML.html#15,15,1920,927,1920,1080,1-12-2024,12-31-32,55,VR_target_stimuli/s26_0.75x_4_430.png,125,0.75x,4.0,4.0,2385,126,meters,jsons/MX_seq44_1_VE125_flipped.json,241784,549256,24,Man
55,977517,final-intermixed-textured,v2,jsons/MX_seq44_1_VE125_flipped.json,http://54.235.29.9/FacialAge/BNav_EC2/DepthDuration/MX_fS_VE_MTurk/MX_fS_HTML.html#15,15,1920,927,1920,1080,1-12-2024,12-31-32,56,VR_target_stimuli/s12_1.3x_3.1_375.png,125,1.3x,3.1,1.0,3031,123,meters,jsons/MX_seq44_1_VE125_flipped.json,241784,549256,24,Man
56,977517,final-intermixed-textured,v2,jsons/MX_seq44_1_VE125_flipped.json,http://54.235.29.9/FacialAge/BNav_EC2/DepthDuration/MX_fS_VE_MTurk/MX_fS_HTML.html#15,15,1920,927,1920,1080,1-12-2024,12-31-32,57,VR_target_stimuli/s30_1x_2.3_334.png,125,1x,2.3,1.0,2577,125,meters,jsons/MX_seq44_1_VE125_flipped.json,241784,549256,24,Man
57,977517,final-intermixed-textured,v2,jsons/MX_seq44_1_VE125_flipped.json,http://54.235.29.9/FacialAge/BNav_EC2/DepthDuration/MX_fS_VE_MTurk/MX_fS_HTML.html#15,15,1920,927,1920,1080,1-12-2024,12-31-32,58,VR_target_stimuli/s16_1x_1_219_BC.png,125,1x,1.0,1.0,2059,123,meters,jsons/MX_seq44_1_VE125_flipped.json,241784,549256,24,Man
58,977517,final-intermixed-textured,v2,jsons/MX_seq44_1_VE125_flipped.json,http://54.235.29.9/FacialAge/BNav_EC2/DepthDuration/MX_fS_VE_MTurk/MX_fS_HTML.html#15,15,1920,927,1920,1080,1-12-2024,12-31-32,59,VR_target_stimuli/s17_0.75x_1.8_285_BC.png,125,0.75x,1.8,1.0,1735,123,meters,jsons/MX_seq44_1_VE125_flipped.json,241784,549256,24,Man
59,977517,final-intermixed-textured,v2,jsons/MX_seq44_1_VE125_flipped.json,http://54.235.29.9/FacialAge/BNav_EC2/DepthDuration/MX_fS_VE_MTurk/MX_fS_HTML.html#15,15,1920,927,1920,1080,1-12-2024,12-31-32,60,VR_target_stimuli/s5_1.3x_4_393_BC.png,125,1.3x,4.0,3.0,2085,125,meters,jsons/MX_seq44_1_VE125_flipped.json,241784,549256,24,Man
