,subjID,experimentName,versionName,sequenceName,url,selected_row,windowWidth,windowHeight,screenWidth,screenHeight,startDate,startTime,trial,stimulus,duration,scale,actual_depth,depth_estimate,trial_RT,log_sceneDuration,unitSelection,seq_filepath,experimentTime,totalTime,age,gender
0,141435,final-intermixed-textured,v2,jsons/MX_seq11_2_VE250.json,http://54.235.29.9/FacialAge/BNav_EC2/DepthDuration/MX_fS_VE_MTurk/MX_fS_HTML.html#286,286,1366,641,1366,768,0-31-2024,20-11-49,1,VR_target_stimuli/s28_1x_3.2_362.png,250,1x,3.2,10,7087,254,meters,jsons/MX_seq11_2_VE250.json,287499,691121,29,Woman
1,141435,final-intermixed-textured,v2,jsons/MX_seq11_2_VE250.json,http://54.235.29.9/FacialAge/BNav_EC2/DepthDuration/MX_fS_VE_MTurk/MX_fS_HTML.html#286,286,1366,641,1366,768,0-31-2024,20-11-49,2,VR_target_stimuli/s48_1.3x_2.55_255.png,250,1.3x,2.55,20,4165,252,meters,jsons/MX_seq11_2_VE250.json,287499,691121,29,Woman
2,141435,final-intermixed-textured,v2,jsons/MX_seq11_2_VE250.json,http://54.235.29.9/FacialAge/BNav_EC2/DepthDuration/MX_fS_VE_MTurk/MX_fS_HTML.html#286,286,1366,641,1366,768,0-31-2024,20-11-49,3,VR_target_stimuli/s19_0.75x_1.21_257_BC.png,250,0.75x,1.21,20,3883,251,meters,jsons/MX_seq11_2_VE250.json,287499,691121,29,Woman
3,141435,final-intermixed-textured,v2,jsons/MX_seq11_2_VE250.json,http://54.235.29.9/FacialAge/BNav_EC2/DepthDuration/MX_fS_VE_MTurk/MX_fS_HTML.html#286,286,1366,641,1366,768,0-31-2024,20-11-49,4,VR_target_stimuli/s21_1.3x_4.22_384_BC.png,250,1.3x,4.22,5,3929,250,meters,jsons/MX_seq11_2_VE250.json,287499,691121,29,Woman
4,141435,final-intermixed-textured,v2,jsons/MX_seq11_2_VE250.json,http://54.235.29.9/FacialAge/BNav_EC2/DepthDuration/MX_fS_VE_MTurk/MX_fS_HTML.html#286,286,1366,641,1366,768,0-31-2024,20-11-49,5,VR_target_stimuli/s8_1x_3.1_332_BC.png,250,1x,3.1,5,2939,249,meters,jsons/MX_seq11_2_VE250.json,287499,691121,29,Woman
5,141435,final-intermixed-textured,v2,jsons/MX_seq11_2_VE250.json,http://54.235.29.9/FacialAge/BNav_EC2/DepthDuration/MX_fS_VE_MTurk/MX_fS_HTML.html#286,286,1366,641,1366,768,0-31-2024,20-11-49,6,VR_target_stimuli/s27_0.75x_1.76_243.png,250,0.75x,1.76,10,4190,250,meters,jsons/MX_seq11_2_VE250.json,287499,691121,29,Woman
6,141435,final-intermixed-textured,v2,jsons/MX_seq11_2_VE250.json,http://54.235.29.9/FacialAge/BNav_EC2/DepthDuration/MX_fS_VE_MTurk/MX_fS_HTML.html#286,286,1366,641,1366,768,0-31-2024,20-11-49,7,catch_stimuli/c0.png,250,,,0,5952,251,meters,jsons/MX_seq11_2_VE250.json,287499,691121,29,Woman
7,141435,final-intermixed-textured,v2,jsons/MX_seq11_2_VE250.json,http://54.235.29.9/FacialAge/BNav_EC2/DepthDuration/MX_fS_VE_MTurk/MX_fS_HTML.html#286,286,1366,641,1366,768,0-31-2024,20-11-49,8,VR_target_stimuli/s15_0.75x_4.2_388_BC.png,250,0.75x,4.2,5,5995,251,meters,jsons/MX_seq11_2_VE250.json,287499,691121,29,Woman
8,141435,final-intermixed-textured,v2,jsons/MX_seq11_2_VE250.json,http://54.235.29.9/FacialAge/BNav_EC2/DepthDuration/MX_fS_VE_MTurk/MX_fS_HTML.html#286,286,1366,641,1366,768,0-31-2024,20-11-49,9,VR_target_stimuli/s4_1.3x_1.4_328_BC.png,250,1.3x,1.4,5,3039,252,meters,jsons/MX_seq11_2_VE250.json,287499,691121,29,Woman
9,141435,final-intermixed-textured,v2,jsons/MX_seq11_2_VE250.json,http://54.235.29.9/FacialAge/BNav_EC2/DepthDuration/MX_fS_VE_MTurk/MX_fS_HTML.html#286,286,1366,641,1366,768,0-31-2024,20-11-49,10,VR_target_stimuli/s35_1x_2_331.png,250,1x,2.0,10,3375,252,meters,jsons/MX_seq11_2_VE250.json,287499,691121,29,Woman
10,141435,final-intermixed-textured,v2,jsons/MX_seq11_2_VE250.json,http://54.235.29.9/FacialAge/BNav_EC2/DepthDuration/MX_fS_VE_MTurk/MX_fS_HTML.html#286,286,1366,641,1366,768,0-31-2024,20-11-49,11,VR_target_stimuli/s49_1.3x_4.67_354.png,250,1.3x,4.67,30,3550,252,meters,jsons/MX_seq11_2_VE250.json,287499,691121,29,Woman
11,141435,final-intermixed-textured,v2,jsons/MX_seq11_2_VE250.json,http://54.235.29.9/FacialAge/BNav_EC2/DepthDuration/MX_fS_VE_MTurk/MX_fS_HTML.html#286,286,1366,641,1366,768,0-31-2024,20-11-49,12,VR_target_stimuli/s7_0.75x_1.5_253.png,250,0.75x,1.5,30,4510,251,meters,jsons/MX_seq11_2_VE250.json,287499,691121,29,Woman
12,141435,final-intermixed-textured,v2,jsons/MX_seq11_2_VE250.json,http://54.235.29.9/FacialAge/BNav_EC2/DepthDuration/MX_fS_VE_MTurk/MX_fS_HTML.html#286,286,1366,641,1366,768,0-31-2024,20-11-49,13,VR_target_stimuli/s20_1x_4.99_398_BC.png,250,1x,4.99,35,5748,251,meters,jsons/MX_seq11_2_VE250.json,287499,691121,29,Woman
13,141435,final-intermixed-textured,v2,jsons/MX_seq11_2_VE250.json,http://54.235.29.9/FacialAge/BNav_EC2/DepthDuration/MX_fS_VE_MTurk/MX_fS_HTML.html#286,286,1366,641,1366,768,0-31-2024,20-11-49,14,VR_target_stimuli/s31_0.75x_4.96_329_BC.png,250,0.75x,4.96,5,5854,236,meters,jsons/MX_seq11_2_VE250.json,287499,691121,29,Woman
14,141435,final-intermixed-textured,v2,jsons/MX_seq11_2_VE250.json,http://54.235.29.9/FacialAge/BNav_EC2/DepthDuration/MX_fS_VE_MTurk/MX_fS_HTML.html#286,286,1366,641,1366,768,0-31-2024,20-11-49,15,VR_target_stimuli/s33_1.3x_3.1_378_BC.png,250,1.3x,3.1,5,3731,236,meters,jsons/MX_seq11_2_VE250.json,287499,691121,29,Woman
15,141435,final-intermixed-textured,v2,jsons/MX_seq11_2_VE250.json,http://54.235.29.9/FacialAge/BNav_EC2/DepthDuration/MX_fS_VE_MTurk/MX_fS_HTML.html#286,286,1366,641,1366,768,0-31-2024,20-11-49,16,VR_target_stimuli/s52_1x_3.2_275_BC.png,250,1x,3.2,5,2557,251,meters,jsons/MX_seq11_2_VE250.json,287499,691121,29,Woman
16,141435,final-intermixed-textured,v2,jsons/MX_seq11_2_VE250.json,http://54.235.29.9/FacialAge/BNav_EC2/DepthDuration/MX_fS_VE_MTurk/MX_fS_HTML.html#286,286,1366,641,1366,768,0-31-2024,20-11-49,17,catch_stimuli/c1.png,250,,,0,6679,252,meters,jsons/MX_seq11_2_VE250.json,287499,691121,29,Woman
17,141435,final-intermixed-textured,v2,jsons/MX_seq11_2_VE250.json,http://54.235.29.9/FacialAge/BNav_EC2/DepthDuration/MX_fS_VE_MTurk/MX_fS_HTML.html#286,286,1366,641,1366,768,0-31-2024,20-11-49,18,VR_target_stimuli/s32_1x_1.5_218.png,250,1x,1.5,10,5573,248,meters,jsons/MX_seq11_2_VE250.json,287499,691121,29,Woman
18,141435,final-intermixed-textured,v2,jsons/MX_seq11_2_VE250.json,http://54.235.29.9/FacialAge/BNav_EC2/DepthDuration/MX_fS_VE_MTurk/MX_fS_HTML.html#286,286,1366,641,1366,768,0-31-2024,20-11-49,19,VR_target_stimuli/s18_0.75x_2.25_341.png,250,0.75x,2.25,5,4350,252,meters,jsons/MX_seq11_2_VE250.json,287499,691121,29,Woman
19,141435,final-intermixed-textured,v2,jsons/MX_seq11_2_VE250.json,http://54.235.29.9/FacialAge/BNav_EC2/DepthDuration/MX_fS_VE_MTurk/MX_fS_HTML.html#286,286,1366,641,1366,768,0-31-2024,20-11-49,20,VR_target_stimuli/s39_1.3x_1_208.png,250,1.3x,1.0,5,3143,250,meters,jsons/MX_seq11_2_VE250.json,287499,691121,29,Woman
20,141435,final-intermixed-textured,v2,jsons/MX_seq11_2_VE250.json,http://54.235.29.9/FacialAge/BNav_EC2/DepthDuration/MX_fS_VE_MTurk/MX_fS_HTML.html#286,286,1366,641,1366,768,0-31-2024,20-11-49,21,VR_target_stimuli/s51_0.75x_3.64_460.png,250,0.75x,3.64,5,2746,251,meters,jsons/MX_seq11_2_VE250.json,287499,691121,29,Woman
21,141435,final-intermixed-textured,v2,jsons/MX_seq11_2_VE250.json,http://54.235.29.9/FacialAge/BNav_EC2/DepthDuration/MX_fS_VE_MTurk/MX_fS_HTML.html#286,286,1366,641,1366,768,0-31-2024,20-11-49,22,VR_target_stimuli/s43_1x_2.2_354.png,250,1x,2.2,15,3608,250,meters,jsons/MX_seq11_2_VE250.json,287499,691121,29,Woman
22,141435,final-intermixed-textured,v2,jsons/MX_seq11_2_VE250.json,http://54.235.29.9/FacialAge/BNav_EC2/DepthDuration/MX_fS_VE_MTurk/MX_fS_HTML.html#286,286,1366,641,1366,768,0-31-2024,20-11-49,23,VR_target_stimuli/s24_1.3x_3.3_352_BC.png,250,1.3x,3.3,10,3677,251,meters,jsons/MX_seq11_2_VE250.json,287499,691121,29,Woman
23,141435,final-intermixed-textured,v2,jsons/MX_seq11_2_VE250.json,http://54.235.29.9/FacialAge/BNav_EC2/DepthDuration/MX_fS_VE_MTurk/MX_fS_HTML.html#286,286,1366,641,1366,768,0-31-2024,20-11-49,24,VR_target_stimuli/s10_1x_2.7_324_BC.png,250,1x,2.7,5,4773,249,meters,jsons/MX_seq11_2_VE250.json,287499,691121,29,Woman
24,141435,final-intermixed-textured,v2,jsons/MX_seq11_2_VE250.json,http://54.235.29.9/FacialAge/BNav_EC2/DepthDuration/MX_fS_VE_MTurk/MX_fS_HTML.html#286,286,1366,641,1366,768,0-31-2024,20-11-49,25,VR_target_stimuli/s36_0.75x_4.1_407_BC.png,250,0.75x,4.1,10,5059,249,meters,jsons/MX_seq11_2_VE250.json,287499,691121,29,Woman
25,141435,final-intermixed-textured,v2,jsons/MX_seq11_2_VE250.json,http://54.235.29.9/FacialAge/BNav_EC2/DepthDuration/MX_fS_VE_MTurk/MX_fS_HTML.html#286,286,1366,641,1366,768,0-31-2024,20-11-49,26,catch_stimuli/c2.png,250,,,30,5522,251,meters,jsons/MX_seq11_2_VE250.json,287499,691121,29,Woman
26,141435,final-intermixed-textured,v2,jsons/MX_seq11_2_VE250.json,http://54.235.29.9/FacialAge/BNav_EC2/DepthDuration/MX_fS_VE_MTurk/MX_fS_HTML.html#286,286,1366,641,1366,768,0-31-2024,20-11-49,27,VR_target_stimuli/s40_1.3x_1.2_332.png,250,1.3x,1.2,0,4798,251,meters,jsons/MX_seq11_2_VE250.json,287499,691121,29,Woman
27,141435,final-intermixed-textured,v2,jsons/MX_seq11_2_VE250.json,http://54.235.29.9/FacialAge/BNav_EC2/DepthDuration/MX_fS_VE_MTurk/MX_fS_HTML.html#286,286,1366,641,1366,768,0-31-2024,20-11-49,28,VR_target_stimuli/s41_1.3x_2.1_294_BC.png,250,1.3x,2.1,5,3774,251,meters,jsons/MX_seq11_2_VE250.json,287499,691121,29,Woman
28,141435,final-intermixed-textured,v2,jsons/MX_seq11_2_VE250.json,http://54.235.29.9/FacialAge/BNav_EC2/DepthDuration/MX_fS_VE_MTurk/MX_fS_HTML.html#286,286,1366,641,1366,768,0-31-2024,20-11-49,29,VR_target_stimuli/s45_1x_3.5_368_BC.png,250,1x,3.5,20,4008,251,meters,jsons/MX_seq11_2_VE250.json,287499,691121,29,Woman
29,141435,final-intermixed-textured,v2,jsons/MX_seq11_2_VE250.json,http://54.235.29.9/FacialAge/BNav_EC2/DepthDuration/MX_fS_VE_MTurk/MX_fS_HTML.html#286,286,1366,641,1366,768,0-31-2024,20-11-49,30,VR_target_stimuli/s23_0.75x_3.65_351.png,250,0.75x,3.65,20,3931,250,meters,jsons/MX_seq11_2_VE250.json,287499,691121,29,Woman
30,141435,final-intermixed-textured,v2,jsons/MX_seq11_2_VE250.json,http://54.235.29.9/FacialAge/BNav_EC2/DepthDuration/MX_fS_VE_MTurk/MX_fS_HTML.html#286,286,1366,641,1366,768,0-31-2024,20-11-49,31,VR_target_stimuli/s26_1.3x_4_441.png,250,1.3x,4.0,15,4073,249,meters,jsons/MX_seq11_2_VE250.json,287499,691121,29,Woman
31,141435,final-intermixed-textured,v2,jsons/MX_seq11_2_VE250.json,http://54.235.29.9/FacialAge/BNav_EC2/DepthDuration/MX_fS_VE_MTurk/MX_fS_HTML.html#286,286,1366,641,1366,768,0-31-2024,20-11-49,32,VR_target_stimuli/s12_0.75x_3.1_364_BC.png,250,0.75x,3.1,10,3075,252,meters,jsons/MX_seq11_2_VE250.json,287499,691121,29,Woman
32,141435,final-intermixed-textured,v2,jsons/MX_seq11_2_VE250.json,http://54.235.29.9/FacialAge/BNav_EC2/DepthDuration/MX_fS_VE_MTurk/MX_fS_HTML.html#286,286,1366,641,1366,768,0-31-2024,20-11-49,33,VR_target_stimuli/s30_1x_2.3_334.png,250,1x,2.3,10,5300,252,meters,jsons/MX_seq11_2_VE250.json,287499,691121,29,Woman
33,141435,final-intermixed-textured,v2,jsons/MX_seq11_2_VE250.json,http://54.235.29.9/FacialAge/BNav_EC2/DepthDuration/MX_fS_VE_MTurk/MX_fS_HTML.html#286,286,1366,641,1366,768,0-31-2024,20-11-49,34,catch_stimuli/c3.png,250,,,0,3312,251,meters,jsons/MX_seq11_2_VE250.json,287499,691121,29,Woman
34,141435,final-intermixed-textured,v2,jsons/MX_seq11_2_VE250.json,http://54.235.29.9/FacialAge/BNav_EC2/DepthDuration/MX_fS_VE_MTurk/MX_fS_HTML.html#286,286,1366,641,1366,768,0-31-2024,20-11-49,35,VR_target_stimuli/s16_0.75x_1_217_BC.png,250,0.75x,1.0,5,3494,251,meters,jsons/MX_seq11_2_VE250.json,287499,691121,29,Woman
35,141435,final-intermixed-textured,v2,jsons/MX_seq11_2_VE250.json,http://54.235.29.9/FacialAge/BNav_EC2/DepthDuration/MX_fS_VE_MTurk/MX_fS_HTML.html#286,286,1366,641,1366,768,0-31-2024,20-11-49,36,VR_target_stimuli/s17_1.3x_1.8_300_BC.png,250,1.3x,1.8,5,2471,253,meters,jsons/MX_seq11_2_VE250.json,287499,691121,29,Woman
36,141435,final-intermixed-textured,v2,jsons/MX_seq11_2_VE250.json,http://54.235.29.9/FacialAge/BNav_EC2/DepthDuration/MX_fS_VE_MTurk/MX_fS_HTML.html#286,286,1366,641,1366,768,0-31-2024,20-11-49,37,VR_target_stimuli/s5_1x_4_378.png,250,1x,4.0,20,6028,253,meters,jsons/MX_seq11_2_VE250.json,287499,691121,29,Woman
37,141435,final-intermixed-textured,v2,jsons/MX_seq11_2_VE250.json,http://54.235.29.9/FacialAge/BNav_EC2/DepthDuration/MX_fS_VE_MTurk/MX_fS_HTML.html#286,286,1366,641,1366,768,0-31-2024,20-11-49,38,VR_target_stimuli/s37_1x_3.3_563_BC.png,250,1x,3.3,20,5492,253,meters,jsons/MX_seq11_2_VE250.json,287499,691121,29,Woman
38,141435,final-intermixed-textured,v2,jsons/MX_seq11_2_VE250.json,http://54.235.29.9/FacialAge/BNav_EC2/DepthDuration/MX_fS_VE_MTurk/MX_fS_HTML.html#286,286,1366,641,1366,768,0-31-2024,20-11-49,39,VR_target_stimuli/s46_0.75x_2.42_343.png,250,0.75x,2.42,5,3816,252,meters,jsons/MX_seq11_2_VE250.json,287499,691121,29,Woman
39,141435,final-intermixed-textured,v2,jsons/MX_seq11_2_VE250.json,http://54.235.29.9/FacialAge/BNav_EC2/DepthDuration/MX_fS_VE_MTurk/MX_fS_HTML.html#286,286,1366,641,1366,768,0-31-2024,20-11-49,40,VR_target_stimuli/s22_1.3x_4.29_364.png,250,1.3x,4.29,35,3044,250,meters,jsons/MX_seq11_2_VE250.json,287499,691121,29,Woman
40,141435,final-intermixed-textured,v2,jsons/MX_seq11_2_VE250.json,http://54.235.29.9/FacialAge/BNav_EC2/DepthDuration/MX_fS_VE_MTurk/MX_fS_HTML.html#286,286,1366,641,1366,768,0-31-2024,20-11-49,41,VR_target_stimuli/s42_0.75x_3.2_301.png,250,0.75x,3.2,35,18929,250,meters,jsons/MX_seq11_2_VE250.json,287499,691121,29,Woman
41,141435,final-intermixed-textured,v2,jsons/MX_seq11_2_VE250.json,http://54.235.29.9/FacialAge/BNav_EC2/DepthDuration/MX_fS_VE_MTurk/MX_fS_HTML.html#286,286,1366,641,1366,768,0-31-2024,20-11-49,42,VR_target_stimuli/s25_1x_1.4_290.png,250,1x,1.4,0,3630,247,meters,jsons/MX_seq11_2_VE250.json,287499,691121,29,Woman
42,141435,final-intermixed-textured,v2,jsons/MX_seq11_2_VE250.json,http://54.235.29.9/FacialAge/BNav_EC2/DepthDuration/MX_fS_VE_MTurk/MX_fS_HTML.html#286,286,1366,641,1366,768,0-31-2024,20-11-49,43,VR_target_stimuli/s50_1.3x_4.53_518.png,250,1.3x,4.53,5,3506,236,meters,jsons/MX_seq11_2_VE250.json,287499,691121,29,Woman
43,141435,final-intermixed-textured,v2,jsons/MX_seq11_2_VE250.json,http://54.235.29.9/FacialAge/BNav_EC2/DepthDuration/MX_fS_VE_MTurk/MX_fS_HTML.html#286,286,1366,641,1366,768,0-31-2024,20-11-49,44,VR_target_stimuli/s53_1x_1.6_387_BC.png,250,1x,1.6,5,3536,251,meters,jsons/MX_seq11_2_VE250.json,287499,691121,29,Woman
44,141435,final-intermixed-textured,v2,jsons/MX_seq11_2_VE250.json,http://54.235.29.9/FacialAge/BNav_EC2/DepthDuration/MX_fS_VE_MTurk/MX_fS_HTML.html#286,286,1366,641,1366,768,0-31-2024,20-11-49,45,catch_stimuli/c4.png,250,,,0,3195,252,meters,jsons/MX_seq11_2_VE250.json,287499,691121,29,Woman
45,141435,final-intermixed-textured,v2,jsons/MX_seq11_2_VE250.json,http://54.235.29.9/FacialAge/BNav_EC2/DepthDuration/MX_fS_VE_MTurk/MX_fS_HTML.html#286,286,1366,641,1366,768,0-31-2024,20-11-49,46,VR_target_stimuli/s38_0.75x_3.55_346_BC.png,250,0.75x,3.55,20,3731,252,meters,jsons/MX_seq11_2_VE250.json,287499,691121,29,Woman
46,141435,final-intermixed-textured,v2,jsons/MX_seq11_2_VE250.json,http://54.235.29.9/FacialAge/BNav_EC2/DepthDuration/MX_fS_VE_MTurk/MX_fS_HTML.html#286,286,1366,641,1366,768,0-31-2024,20-11-49,47,VR_target_stimuli/s9_1.3x_1.2_276_BC.png,250,1.3x,1.2,10,3382,247,meters,jsons/MX_seq11_2_VE250.json,287499,691121,29,Woman
47,141435,final-intermixed-textured,v2,jsons/MX_seq11_2_VE250.json,http://54.235.29.9/FacialAge/BNav_EC2/DepthDuration/MX_fS_VE_MTurk/MX_fS_HTML.html#286,286,1366,641,1366,768,0-31-2024,20-11-49,48,VR_target_stimuli/s44_1.3x_4.4_325.png,250,1.3x,4.4,50,3276,249,meters,jsons/MX_seq11_2_VE250.json,287499,691121,29,Woman
48,141435,final-intermixed-textured,v2,jsons/MX_seq11_2_VE250.json,http://54.235.29.9/FacialAge/BNav_EC2/DepthDuration/MX_fS_VE_MTurk/MX_fS_HTML.html#286,286,1366,641,1366,768,0-31-2024,20-11-49,49,VR_target_stimuli/s3_1x_5_385.png,250,1x,5.0,10,4085,254,meters,jsons/MX_seq11_2_VE250.json,287499,691121,29,Woman
49,141435,final-intermixed-textured,v2,jsons/MX_seq11_2_VE250.json,http://54.235.29.9/FacialAge/BNav_EC2/DepthDuration/MX_fS_VE_MTurk/MX_fS_HTML.html#286,286,1366,641,1366,768,0-31-2024,20-11-49,50,VR_target_stimuli/s1_0.75x_1.7_265.png,250,0.75x,1.7,15,3911,251,meters,jsons/MX_seq11_2_VE250.json,287499,691121,29,Woman
50,141435,final-intermixed-textured,v2,jsons/MX_seq11_2_VE250.json,http://54.235.29.9/FacialAge/BNav_EC2/DepthDuration/MX_fS_VE_MTurk/MX_fS_HTML.html#286,286,1366,641,1366,768,0-31-2024,20-11-49,51,VR_target_stimuli/s11_1x_5_361_BC.png,250,1x,5.0,35,3050,250,meters,jsons/MX_seq11_2_VE250.json,287499,691121,29,Woman
51,141435,final-intermixed-textured,v2,jsons/MX_seq11_2_VE250.json,http://54.235.29.9/FacialAge/BNav_EC2/DepthDuration/MX_fS_VE_MTurk/MX_fS_HTML.html#286,286,1366,641,1366,768,0-31-2024,20-11-49,52,VR_target_stimuli/s2_1.3x_2.7_397_BC.png,250,1.3x,2.7,5,3116,236,meters,jsons/MX_seq11_2_VE250.json,287499,691121,29,Woman
52,141435,final-intermixed-textured,v2,jsons/MX_seq11_2_VE250.json,http://54.235.29.9/FacialAge/BNav_EC2/DepthDuration/MX_fS_VE_MTurk/MX_fS_HTML.html#286,286,1366,641,1366,768,0-31-2024,20-11-49,53,catch_stimuli/c5.png,250,,,0,3168,237,meters,jsons/MX_seq11_2_VE250.json,287499,691121,29,Woman
53,141435,final-intermixed-textured,v2,jsons/MX_seq11_2_VE250.json,http://54.235.29.9/FacialAge/BNav_EC2/DepthDuration/MX_fS_VE_MTurk/MX_fS_HTML.html#286,286,1366,641,1366,768,0-31-2024,20-11-49,54,VR_target_stimuli/s6_0.75x_2.1_290_BC.png,250,0.75x,2.1,10,4075,251,meters,jsons/MX_seq11_2_VE250.json,287499,691121,29,Woman
54,141435,final-intermixed-textured,v2,jsons/MX_seq11_2_VE250.json,http://54.235.29.9/FacialAge/BNav_EC2/DepthDuration/MX_fS_VE_MTurk/MX_fS_HTML.html#286,286,1366,641,1366,768,0-31-2024,20-11-49,55,VR_target_stimuli/s0_1.3x_2.6_356.png,250,1.3x,2.6,5,3075,250,meters,jsons/MX_seq11_2_VE250.json,287499,691121,29,Woman
55,141435,final-intermixed-textured,v2,jsons/MX_seq11_2_VE250.json,http://54.235.29.9/FacialAge/BNav_EC2/DepthDuration/MX_fS_VE_MTurk/MX_fS_HTML.html#286,286,1366,641,1366,768,0-31-2024,20-11-49,56,VR_target_stimuli/s34_1x_2.8_283.png,250,1x,2.8,25,4494,250,meters,jsons/MX_seq11_2_VE250.json,287499,691121,29,Woman
56,141435,final-intermixed-textured,v2,jsons/MX_seq11_2_VE250.json,http://54.235.29.9/FacialAge/BNav_EC2/DepthDuration/MX_fS_VE_MTurk/MX_fS_HTML.html#286,286,1366,641,1366,768,0-31-2024,20-11-49,57,VR_target_stimuli/s13_0.75x_2.4_308.png,250,0.75x,2.4,45,3493,249,meters,jsons/MX_seq11_2_VE250.json,287499,691121,29,Woman
57,141435,final-intermixed-textured,v2,jsons/MX_seq11_2_VE250.json,http://54.235.29.9/FacialAge/BNav_EC2/DepthDuration/MX_fS_VE_MTurk/MX_fS_HTML.html#286,286,1366,641,1366,768,0-31-2024,20-11-49,58,VR_target_stimuli/s14_0.75x_3.83_355_BC.png,250,0.75x,3.83,55,3228,252,meters,jsons/MX_seq11_2_VE250.json,287499,691121,29,Woman
58,141435,final-intermixed-textured,v2,jsons/MX_seq11_2_VE250.json,http://54.235.29.9/FacialAge/BNav_EC2/DepthDuration/MX_fS_VE_MTurk/MX_fS_HTML.html#286,286,1366,641,1366,768,0-31-2024,20-11-49,59,VR_target_stimuli/s47_1.3x_3.45_373_BC.png,250,1.3x,3.45,45,2796,250,meters,jsons/MX_seq11_2_VE250.json,287499,691121,29,Woman
59,141435,final-intermixed-textured,v2,jsons/MX_seq11_2_VE250.json,http://54.235.29.9/FacialAge/BNav_EC2/DepthDuration/MX_fS_VE_MTurk/MX_fS_HTML.html#286,286,1366,641,1366,768,0-31-2024,20-11-49,60,VR_target_stimuli/s29_1x_1.3_250_BC.png,250,1x,1.3,5,3101,249,meters,jsons/MX_seq11_2_VE250.json,287499,691121,29,Woman
