,subjID,experimentName,versionName,sequenceName,url,selected_row,windowWidth,windowHeight,screenWidth,screenHeight,startDate,startTime,trial,stimulus,duration,scale,actual_depth,depth_estimate,trial_RT,log_sceneDuration,unitSelection,seq_filepath,experimentTime,totalTime,age,gender
0,144002,final-intermixed-textured,v2,jsons/MX_seq34_1_VE250.json,http://54.235.29.9/FacialAge/BNav_EC2/DepthDuration/MX_fS_VE_MTurk/MX_fS_HTML.html#78,78,1920,919,1920,1080,1-1-2024,13-8-30,1,VR_target_stimuli/s40_1.3x_1.2_332_BC.png,250,1.3x,1.2,3,2037,256,meters,jsons/MX_seq34_1_VE250.json,147500,228197,32,Prefer not to answer
1,144002,final-intermixed-textured,v2,jsons/MX_seq34_1_VE250.json,http://54.235.29.9/FacialAge/BNav_EC2/DepthDuration/MX_fS_VE_MTurk/MX_fS_HTML.html#78,78,1920,919,1920,1080,1-1-2024,13-8-30,2,VR_target_stimuli/s41_0.75x_2.1_281.png,250,0.75x,2.1,5,1857,252,meters,jsons/MX_seq34_1_VE250.json,147500,228197,32,Prefer not to answer
2,144002,final-intermixed-textured,v2,jsons/MX_seq34_1_VE250.json,http://54.235.29.9/FacialAge/BNav_EC2/DepthDuration/MX_fS_VE_MTurk/MX_fS_HTML.html#78,78,1920,919,1920,1080,1-1-2024,13-8-30,3,VR_target_stimuli/s45_1x_3.5_368.png,250,1x,3.5,4,1611,240,meters,jsons/MX_seq34_1_VE250.json,147500,228197,32,Prefer not to answer
3,144002,final-intermixed-textured,v2,jsons/MX_seq34_1_VE250.json,http://54.235.29.9/FacialAge/BNav_EC2/DepthDuration/MX_fS_VE_MTurk/MX_fS_HTML.html#78,78,1920,919,1920,1080,1-1-2024,13-8-30,4,VR_target_stimuli/s23_0.75x_3.65_351_BC.png,250,0.75x,3.65,4,1984,256,meters,jsons/MX_seq34_1_VE250.json,147500,228197,32,Prefer not to answer
4,144002,final-intermixed-textured,v2,jsons/MX_seq34_1_VE250.json,http://54.235.29.9/FacialAge/BNav_EC2/DepthDuration/MX_fS_VE_MTurk/MX_fS_HTML.html#78,78,1920,919,1920,1080,1-1-2024,13-8-30,5,VR_target_stimuli/s26_1.3x_4_441.png,250,1.3x,4.0,4,1717,250,meters,jsons/MX_seq34_1_VE250.json,147500,228197,32,Prefer not to answer
5,144002,final-intermixed-textured,v2,jsons/MX_seq34_1_VE250.json,http://54.235.29.9/FacialAge/BNav_EC2/DepthDuration/MX_fS_VE_MTurk/MX_fS_HTML.html#78,78,1920,919,1920,1080,1-1-2024,13-8-30,6,VR_target_stimuli/s12_1x_3.1_372_BC.png,250,1x,3.1,5,1720,254,meters,jsons/MX_seq34_1_VE250.json,147500,228197,32,Prefer not to answer
6,144002,final-intermixed-textured,v2,jsons/MX_seq34_1_VE250.json,http://54.235.29.9/FacialAge/BNav_EC2/DepthDuration/MX_fS_VE_MTurk/MX_fS_HTML.html#78,78,1920,919,1920,1080,1-1-2024,13-8-30,7,catch_stimuli/c0.png,250,,,0,2416,246,meters,jsons/MX_seq34_1_VE250.json,147500,228197,32,Prefer not to answer
7,144002,final-intermixed-textured,v2,jsons/MX_seq34_1_VE250.json,http://54.235.29.9/FacialAge/BNav_EC2/DepthDuration/MX_fS_VE_MTurk/MX_fS_HTML.html#78,78,1920,919,1920,1080,1-1-2024,13-8-30,8,VR_target_stimuli/s30_1x_2.3_334.png,250,1x,2.3,2,3178,238,meters,jsons/MX_seq34_1_VE250.json,147500,228197,32,Prefer not to answer
8,144002,final-intermixed-textured,v2,jsons/MX_seq34_1_VE250.json,http://54.235.29.9/FacialAge/BNav_EC2/DepthDuration/MX_fS_VE_MTurk/MX_fS_HTML.html#78,78,1920,919,1920,1080,1-1-2024,13-8-30,9,VR_target_stimuli/s16_0.75x_1_217_BC.png,250,0.75x,1.0,3,2047,253,meters,jsons/MX_seq34_1_VE250.json,147500,228197,32,Prefer not to answer
9,144002,final-intermixed-textured,v2,jsons/MX_seq34_1_VE250.json,http://54.235.29.9/FacialAge/BNav_EC2/DepthDuration/MX_fS_VE_MTurk/MX_fS_HTML.html#78,78,1920,919,1920,1080,1-1-2024,13-8-30,10,VR_target_stimuli/s17_1.3x_1.8_300.png,250,1.3x,1.8,4,1748,253,meters,jsons/MX_seq34_1_VE250.json,147500,228197,32,Prefer not to answer
10,144002,final-intermixed-textured,v2,jsons/MX_seq34_1_VE250.json,http://54.235.29.9/FacialAge/BNav_EC2/DepthDuration/MX_fS_VE_MTurk/MX_fS_HTML.html#78,78,1920,919,1920,1080,1-1-2024,13-8-30,11,VR_target_stimuli/s5_0.75x_4_375.png,250,0.75x,4.0,5,2196,252,meters,jsons/MX_seq34_1_VE250.json,147500,228197,32,Prefer not to answer
11,144002,final-intermixed-textured,v2,jsons/MX_seq34_1_VE250.json,http://54.235.29.9/FacialAge/BNav_EC2/DepthDuration/MX_fS_VE_MTurk/MX_fS_HTML.html#78,78,1920,919,1920,1080,1-1-2024,13-8-30,12,VR_target_stimuli/s37_1x_3.3_563_BC.png,250,1x,3.3,3,1748,247,meters,jsons/MX_seq34_1_VE250.json,147500,228197,32,Prefer not to answer
12,144002,final-intermixed-textured,v2,jsons/MX_seq34_1_VE250.json,http://54.235.29.9/FacialAge/BNav_EC2/DepthDuration/MX_fS_VE_MTurk/MX_fS_HTML.html#78,78,1920,919,1920,1080,1-1-2024,13-8-30,13,VR_target_stimuli/s46_1.3x_2.42_354_BC.png,250,1.3x,2.42,3,1457,264,meters,jsons/MX_seq34_1_VE250.json,147500,228197,32,Prefer not to answer
13,144002,final-intermixed-textured,v2,jsons/MX_seq34_1_VE250.json,http://54.235.29.9/FacialAge/BNav_EC2/DepthDuration/MX_fS_VE_MTurk/MX_fS_HTML.html#78,78,1920,919,1920,1080,1-1-2024,13-8-30,14,VR_target_stimuli/s22_1x_4.29_354.png,250,1x,4.29,6,1775,239,meters,jsons/MX_seq34_1_VE250.json,147500,228197,32,Prefer not to answer
14,144002,final-intermixed-textured,v2,jsons/MX_seq34_1_VE250.json,http://54.235.29.9/FacialAge/BNav_EC2/DepthDuration/MX_fS_VE_MTurk/MX_fS_HTML.html#78,78,1920,919,1920,1080,1-1-2024,13-8-30,15,VR_target_stimuli/s42_0.75x_3.2_301.png,250,0.75x,3.2,5,1703,254,meters,jsons/MX_seq34_1_VE250.json,147500,228197,32,Prefer not to answer
15,144002,final-intermixed-textured,v2,jsons/MX_seq34_1_VE250.json,http://54.235.29.9/FacialAge/BNav_EC2/DepthDuration/MX_fS_VE_MTurk/MX_fS_HTML.html#78,78,1920,919,1920,1080,1-1-2024,13-8-30,16,VR_target_stimuli/s25_1.3x_1.4_299.png,250,1.3x,1.4,2,1768,238,meters,jsons/MX_seq34_1_VE250.json,147500,228197,32,Prefer not to answer
16,144002,final-intermixed-textured,v2,jsons/MX_seq34_1_VE250.json,http://54.235.29.9/FacialAge/BNav_EC2/DepthDuration/MX_fS_VE_MTurk/MX_fS_HTML.html#78,78,1920,919,1920,1080,1-1-2024,13-8-30,17,catch_stimuli/c1.png,250,,,0,2101,254,meters,jsons/MX_seq34_1_VE250.json,147500,228197,32,Prefer not to answer
17,144002,final-intermixed-textured,v2,jsons/MX_seq34_1_VE250.json,http://54.235.29.9/FacialAge/BNav_EC2/DepthDuration/MX_fS_VE_MTurk/MX_fS_HTML.html#78,78,1920,919,1920,1080,1-1-2024,13-8-30,18,VR_target_stimuli/s50_1.3x_4.53_518_BC.png,250,1.3x,4.53,4,1617,256,meters,jsons/MX_seq34_1_VE250.json,147500,228197,32,Prefer not to answer
18,144002,final-intermixed-textured,v2,jsons/MX_seq34_1_VE250.json,http://54.235.29.9/FacialAge/BNav_EC2/DepthDuration/MX_fS_VE_MTurk/MX_fS_HTML.html#78,78,1920,919,1920,1080,1-1-2024,13-8-30,19,VR_target_stimuli/s53_1x_1.6_387_BC.png,250,1x,1.6,2,1812,240,meters,jsons/MX_seq34_1_VE250.json,147500,228197,32,Prefer not to answer
19,144002,final-intermixed-textured,v2,jsons/MX_seq34_1_VE250.json,http://54.235.29.9/FacialAge/BNav_EC2/DepthDuration/MX_fS_VE_MTurk/MX_fS_HTML.html#78,78,1920,919,1920,1080,1-1-2024,13-8-30,20,VR_target_stimuli/s38_0.75x_3.55_346_BC.png,250,0.75x,3.55,5,1848,254,meters,jsons/MX_seq34_1_VE250.json,147500,228197,32,Prefer not to answer
20,144002,final-intermixed-textured,v2,jsons/MX_seq34_1_VE250.json,http://54.235.29.9/FacialAge/BNav_EC2/DepthDuration/MX_fS_VE_MTurk/MX_fS_HTML.html#78,78,1920,919,1920,1080,1-1-2024,13-8-30,21,VR_target_stimuli/s9_1x_1.2_263.png,250,1x,1.2,3,1884,252,meters,jsons/MX_seq34_1_VE250.json,147500,228197,32,Prefer not to answer
21,144002,final-intermixed-textured,v2,jsons/MX_seq34_1_VE250.json,http://54.235.29.9/FacialAge/BNav_EC2/DepthDuration/MX_fS_VE_MTurk/MX_fS_HTML.html#78,78,1920,919,1920,1080,1-1-2024,13-8-30,22,VR_target_stimuli/s44_1.3x_4.4_325_BC.png,250,1.3x,4.4,6,1652,246,meters,jsons/MX_seq34_1_VE250.json,147500,228197,32,Prefer not to answer
22,144002,final-intermixed-textured,v2,jsons/MX_seq34_1_VE250.json,http://54.235.29.9/FacialAge/BNav_EC2/DepthDuration/MX_fS_VE_MTurk/MX_fS_HTML.html#78,78,1920,919,1920,1080,1-1-2024,13-8-30,23,VR_target_stimuli/s3_0.75x_5_381.png,250,0.75x,5.0,7,2170,255,meters,jsons/MX_seq34_1_VE250.json,147500,228197,32,Prefer not to answer
23,144002,final-intermixed-textured,v2,jsons/MX_seq34_1_VE250.json,http://54.235.29.9/FacialAge/BNav_EC2/DepthDuration/MX_fS_VE_MTurk/MX_fS_HTML.html#78,78,1920,919,1920,1080,1-1-2024,13-8-30,24,VR_target_stimuli/s1_1.3x_1.7_261.png,250,1.3x,1.7,3,1606,236,meters,jsons/MX_seq34_1_VE250.json,147500,228197,32,Prefer not to answer
24,144002,final-intermixed-textured,v2,jsons/MX_seq34_1_VE250.json,http://54.235.29.9/FacialAge/BNav_EC2/DepthDuration/MX_fS_VE_MTurk/MX_fS_HTML.html#78,78,1920,919,1920,1080,1-1-2024,13-8-30,25,VR_target_stimuli/s11_1x_5_361_BC.png,250,1x,5.0,4,1483,253,meters,jsons/MX_seq34_1_VE250.json,147500,228197,32,Prefer not to answer
25,144002,final-intermixed-textured,v2,jsons/MX_seq34_1_VE250.json,http://54.235.29.9/FacialAge/BNav_EC2/DepthDuration/MX_fS_VE_MTurk/MX_fS_HTML.html#78,78,1920,919,1920,1080,1-1-2024,13-8-30,26,catch_stimuli/c2.png,250,,,0,3841,249,meters,jsons/MX_seq34_1_VE250.json,147500,228197,32,Prefer not to answer
26,144002,final-intermixed-textured,v2,jsons/MX_seq34_1_VE250.json,http://54.235.29.9/FacialAge/BNav_EC2/DepthDuration/MX_fS_VE_MTurk/MX_fS_HTML.html#78,78,1920,919,1920,1080,1-1-2024,13-8-30,27,VR_target_stimuli/s2_0.75x_2.7_384_BC.png,250,0.75x,2.7,3,5016,253,meters,jsons/MX_seq34_1_VE250.json,147500,228197,32,Prefer not to answer
27,144002,final-intermixed-textured,v2,jsons/MX_seq34_1_VE250.json,http://54.235.29.9/FacialAge/BNav_EC2/DepthDuration/MX_fS_VE_MTurk/MX_fS_HTML.html#78,78,1920,919,1920,1080,1-1-2024,13-8-30,28,VR_target_stimuli/s6_0.75x_2.1_290.png,250,0.75x,2.1,4,1977,251,meters,jsons/MX_seq34_1_VE250.json,147500,228197,32,Prefer not to answer
28,144002,final-intermixed-textured,v2,jsons/MX_seq34_1_VE250.json,http://54.235.29.9/FacialAge/BNav_EC2/DepthDuration/MX_fS_VE_MTurk/MX_fS_HTML.html#78,78,1920,919,1920,1080,1-1-2024,13-8-30,29,VR_target_stimuli/s0_1.3x_2.6_356.png,250,1.3x,2.6,3,1627,245,meters,jsons/MX_seq34_1_VE250.json,147500,228197,32,Prefer not to answer
29,144002,final-intermixed-textured,v2,jsons/MX_seq34_1_VE250.json,http://54.235.29.9/FacialAge/BNav_EC2/DepthDuration/MX_fS_VE_MTurk/MX_fS_HTML.html#78,78,1920,919,1920,1080,1-1-2024,13-8-30,30,VR_target_stimuli/s34_1x_2.8_283_BC.png,250,1x,2.8,4,1577,255,meters,jsons/MX_seq34_1_VE250.json,147500,228197,32,Prefer not to answer
30,144002,final-intermixed-textured,v2,jsons/MX_seq34_1_VE250.json,http://54.235.29.9/FacialAge/BNav_EC2/DepthDuration/MX_fS_VE_MTurk/MX_fS_HTML.html#78,78,1920,919,1920,1080,1-1-2024,13-8-30,31,VR_target_stimuli/s13_0.75x_2.4_308_BC.png,250,0.75x,2.4,5,1439,252,meters,jsons/MX_seq34_1_VE250.json,147500,228197,32,Prefer not to answer
31,144002,final-intermixed-textured,v2,jsons/MX_seq34_1_VE250.json,http://54.235.29.9/FacialAge/BNav_EC2/DepthDuration/MX_fS_VE_MTurk/MX_fS_HTML.html#78,78,1920,919,1920,1080,1-1-2024,13-8-30,32,VR_target_stimuli/s14_1x_ 3.83_357.png,250,1x,3.83,6,1799,255,meters,jsons/MX_seq34_1_VE250.json,147500,228197,32,Prefer not to answer
32,144002,final-intermixed-textured,v2,jsons/MX_seq34_1_VE250.json,http://54.235.29.9/FacialAge/BNav_EC2/DepthDuration/MX_fS_VE_MTurk/MX_fS_HTML.html#78,78,1920,919,1920,1080,1-1-2024,13-8-30,33,VR_target_stimuli/s47_1.3x_3.45_373_BC.png,250,1.3x,3.45,3,1504,251,meters,jsons/MX_seq34_1_VE250.json,147500,228197,32,Prefer not to answer
33,144002,final-intermixed-textured,v2,jsons/MX_seq34_1_VE250.json,http://54.235.29.9/FacialAge/BNav_EC2/DepthDuration/MX_fS_VE_MTurk/MX_fS_HTML.html#78,78,1920,919,1920,1080,1-1-2024,13-8-30,34,catch_stimuli/c3.png,250,,,0,3258,256,meters,jsons/MX_seq34_1_VE250.json,147500,228197,32,Prefer not to answer
34,144002,final-intermixed-textured,v2,jsons/MX_seq34_1_VE250.json,http://54.235.29.9/FacialAge/BNav_EC2/DepthDuration/MX_fS_VE_MTurk/MX_fS_HTML.html#78,78,1920,919,1920,1080,1-1-2024,13-8-30,35,VR_target_stimuli/s29_1x_1.3_250_BC.png,250,1x,1.3,2,1981,255,meters,jsons/MX_seq34_1_VE250.json,147500,228197,32,Prefer not to answer
35,144002,final-intermixed-textured,v2,jsons/MX_seq34_1_VE250.json,http://54.235.29.9/FacialAge/BNav_EC2/DepthDuration/MX_fS_VE_MTurk/MX_fS_HTML.html#78,78,1920,919,1920,1080,1-1-2024,13-8-30,36,VR_target_stimuli/s28_0.75x_3.2_357.png,250,0.75x,3.2,5,1770,241,meters,jsons/MX_seq34_1_VE250.json,147500,228197,32,Prefer not to answer
36,144002,final-intermixed-textured,v2,jsons/MX_seq34_1_VE250.json,http://54.235.29.9/FacialAge/BNav_EC2/DepthDuration/MX_fS_VE_MTurk/MX_fS_HTML.html#78,78,1920,919,1920,1080,1-1-2024,13-8-30,37,VR_target_stimuli/s48_1.3x_2.55_255_BC.png,250,1.3x,2.55,3,1921,253,meters,jsons/MX_seq34_1_VE250.json,147500,228197,32,Prefer not to answer
37,144002,final-intermixed-textured,v2,jsons/MX_seq34_1_VE250.json,http://54.235.29.9/FacialAge/BNav_EC2/DepthDuration/MX_fS_VE_MTurk/MX_fS_HTML.html#78,78,1920,919,1920,1080,1-1-2024,13-8-30,38,VR_target_stimuli/s19_1.3x_1.21_270.png,250,1.3x,1.21,2,1516,256,meters,jsons/MX_seq34_1_VE250.json,147500,228197,32,Prefer not to answer
38,144002,final-intermixed-textured,v2,jsons/MX_seq34_1_VE250.json,http://54.235.29.9/FacialAge/BNav_EC2/DepthDuration/MX_fS_VE_MTurk/MX_fS_HTML.html#78,78,1920,919,1920,1080,1-1-2024,13-8-30,39,VR_target_stimuli/s21_1x_4.22_379.png,250,1x,4.22,6,1788,239,meters,jsons/MX_seq34_1_VE250.json,147500,228197,32,Prefer not to answer
39,144002,final-intermixed-textured,v2,jsons/MX_seq34_1_VE250.json,http://54.235.29.9/FacialAge/BNav_EC2/DepthDuration/MX_fS_VE_MTurk/MX_fS_HTML.html#78,78,1920,919,1920,1080,1-1-2024,13-8-30,40,VR_target_stimuli/s8_0.75x_3.1_325_BC.png,250,0.75x,3.1,6,1627,254,meters,jsons/MX_seq34_1_VE250.json,147500,228197,32,Prefer not to answer
40,144002,final-intermixed-textured,v2,jsons/MX_seq34_1_VE250.json,http://54.235.29.9/FacialAge/BNav_EC2/DepthDuration/MX_fS_VE_MTurk/MX_fS_HTML.html#78,78,1920,919,1920,1080,1-1-2024,13-8-30,41,VR_target_stimuli/s27_1x_1.76_248.png,250,1x,1.76,3,1724,254,meters,jsons/MX_seq34_1_VE250.json,147500,228197,32,Prefer not to answer
41,144002,final-intermixed-textured,v2,jsons/MX_seq34_1_VE250.json,http://54.235.29.9/FacialAge/BNav_EC2/DepthDuration/MX_fS_VE_MTurk/MX_fS_HTML.html#78,78,1920,919,1920,1080,1-1-2024,13-8-30,42,VR_target_stimuli/s15_1.3x_4.2_389_BC.png,250,1.3x,4.2,5,1850,238,meters,jsons/MX_seq34_1_VE250.json,147500,228197,32,Prefer not to answer
42,144002,final-intermixed-textured,v2,jsons/MX_seq34_1_VE250.json,http://54.235.29.9/FacialAge/BNav_EC2/DepthDuration/MX_fS_VE_MTurk/MX_fS_HTML.html#78,78,1920,919,1920,1080,1-1-2024,13-8-30,43,VR_target_stimuli/s4_0.75x_1.4_301.png,250,0.75x,1.4,2,1932,255,meters,jsons/MX_seq34_1_VE250.json,147500,228197,32,Prefer not to answer
43,144002,final-intermixed-textured,v2,jsons/MX_seq34_1_VE250.json,http://54.235.29.9/FacialAge/BNav_EC2/DepthDuration/MX_fS_VE_MTurk/MX_fS_HTML.html#78,78,1920,919,1920,1080,1-1-2024,13-8-30,44,VR_target_stimuli/s35_1.3x_2_338.png,250,1.3x,2.0,3,1651,253,meters,jsons/MX_seq34_1_VE250.json,147500,228197,32,Prefer not to answer
44,144002,final-intermixed-textured,v2,jsons/MX_seq34_1_VE250.json,http://54.235.29.9/FacialAge/BNav_EC2/DepthDuration/MX_fS_VE_MTurk/MX_fS_HTML.html#78,78,1920,919,1920,1080,1-1-2024,13-8-30,45,catch_stimuli/c4.png,250,,,0,2217,254,meters,jsons/MX_seq34_1_VE250.json,147500,228197,32,Prefer not to answer
45,144002,final-intermixed-textured,v2,jsons/MX_seq34_1_VE250.json,http://54.235.29.9/FacialAge/BNav_EC2/DepthDuration/MX_fS_VE_MTurk/MX_fS_HTML.html#78,78,1920,919,1920,1080,1-1-2024,13-8-30,46,VR_target_stimuli/s49_1x_4.67_341_BC.png,250,1x,4.67,3,2771,237,meters,jsons/MX_seq34_1_VE250.json,147500,228197,32,Prefer not to answer
46,144002,final-intermixed-textured,v2,jsons/MX_seq34_1_VE250.json,http://54.235.29.9/FacialAge/BNav_EC2/DepthDuration/MX_fS_VE_MTurk/MX_fS_HTML.html#78,78,1920,919,1920,1080,1-1-2024,13-8-30,47,VR_target_stimuli/s7_0.75x_1.5_253_BC.png,250,0.75x,1.5,3,1543,246,meters,jsons/MX_seq34_1_VE250.json,147500,228197,32,Prefer not to answer
47,144002,final-intermixed-textured,v2,jsons/MX_seq34_1_VE250.json,http://54.235.29.9/FacialAge/BNav_EC2/DepthDuration/MX_fS_VE_MTurk/MX_fS_HTML.html#78,78,1920,919,1920,1080,1-1-2024,13-8-30,48,VR_target_stimuli/s20_0.75x_4.99_390.png,250,0.75x,4.99,7,2658,253,meters,jsons/MX_seq34_1_VE250.json,147500,228197,32,Prefer not to answer
48,144002,final-intermixed-textured,v2,jsons/MX_seq34_1_VE250.json,http://54.235.29.9/FacialAge/BNav_EC2/DepthDuration/MX_fS_VE_MTurk/MX_fS_HTML.html#78,78,1920,919,1920,1080,1-1-2024,13-8-30,49,VR_target_stimuli/s31_1.3x_4.96_342.png,250,1.3x,4.96,3,2557,254,meters,jsons/MX_seq34_1_VE250.json,147500,228197,32,Prefer not to answer
49,144002,final-intermixed-textured,v2,jsons/MX_seq34_1_VE250.json,http://54.235.29.9/FacialAge/BNav_EC2/DepthDuration/MX_fS_VE_MTurk/MX_fS_HTML.html#78,78,1920,919,1920,1080,1-1-2024,13-8-30,50,VR_target_stimuli/s33_1x_3.1_366_BC.png,250,1x,3.1,4,1663,253,meters,jsons/MX_seq34_1_VE250.json,147500,228197,32,Prefer not to answer
50,144002,final-intermixed-textured,v2,jsons/MX_seq34_1_VE250.json,http://54.235.29.9/FacialAge/BNav_EC2/DepthDuration/MX_fS_VE_MTurk/MX_fS_HTML.html#78,78,1920,919,1920,1080,1-1-2024,13-8-30,51,VR_target_stimuli/s52_1.3x_3.2_280_BC.png,250,1.3x,3.2,4,1650,251,meters,jsons/MX_seq34_1_VE250.json,147500,228197,32,Prefer not to answer
51,144002,final-intermixed-textured,v2,jsons/MX_seq34_1_VE250.json,http://54.235.29.9/FacialAge/BNav_EC2/DepthDuration/MX_fS_VE_MTurk/MX_fS_HTML.html#78,78,1920,919,1920,1080,1-1-2024,13-8-30,52,VR_target_stimuli/s32_0.75x_1.5_213_BC.png,250,0.75x,1.5,5,1905,253,meters,jsons/MX_seq34_1_VE250.json,147500,228197,32,Prefer not to answer
52,144002,final-intermixed-textured,v2,jsons/MX_seq34_1_VE250.json,http://54.235.29.9/FacialAge/BNav_EC2/DepthDuration/MX_fS_VE_MTurk/MX_fS_HTML.html#78,78,1920,919,1920,1080,1-1-2024,13-8-30,53,catch_stimuli/c5.png,250,,,0,2331,249,meters,jsons/MX_seq34_1_VE250.json,147500,228197,32,Prefer not to answer
53,144002,final-intermixed-textured,v2,jsons/MX_seq34_1_VE250.json,http://54.235.29.9/FacialAge/BNav_EC2/DepthDuration/MX_fS_VE_MTurk/MX_fS_HTML.html#78,78,1920,919,1920,1080,1-1-2024,13-8-30,54,VR_target_stimuli/s18_1x_2.25_353.png,250,1x,2.25,3,1748,248,meters,jsons/MX_seq34_1_VE250.json,147500,228197,32,Prefer not to answer
54,144002,final-intermixed-textured,v2,jsons/MX_seq34_1_VE250.json,http://54.235.29.9/FacialAge/BNav_EC2/DepthDuration/MX_fS_VE_MTurk/MX_fS_HTML.html#78,78,1920,919,1920,1080,1-1-2024,13-8-30,55,VR_target_stimuli/s39_0.75x_1_205_BC.png,250,0.75x,1.0,3,1397,256,meters,jsons/MX_seq34_1_VE250.json,147500,228197,32,Prefer not to answer
55,144002,final-intermixed-textured,v2,jsons/MX_seq34_1_VE250.json,http://54.235.29.9/FacialAge/BNav_EC2/DepthDuration/MX_fS_VE_MTurk/MX_fS_HTML.html#78,78,1920,919,1920,1080,1-1-2024,13-8-30,56,VR_target_stimuli/s51_1.3x_3.64_479.png,250,1.3x,3.64,3,1440,256,meters,jsons/MX_seq34_1_VE250.json,147500,228197,32,Prefer not to answer
56,144002,final-intermixed-textured,v2,jsons/MX_seq34_1_VE250.json,http://54.235.29.9/FacialAge/BNav_EC2/DepthDuration/MX_fS_VE_MTurk/MX_fS_HTML.html#78,78,1920,919,1920,1080,1-1-2024,13-8-30,57,VR_target_stimuli/s43_1x_2.2_354_BC.png,250,1x,2.2,4,1290,250,meters,jsons/MX_seq34_1_VE250.json,147500,228197,32,Prefer not to answer
57,144002,final-intermixed-textured,v2,jsons/MX_seq34_1_VE250.json,http://54.235.29.9/FacialAge/BNav_EC2/DepthDuration/MX_fS_VE_MTurk/MX_fS_HTML.html#78,78,1920,919,1920,1080,1-1-2024,13-8-30,58,VR_target_stimuli/s24_1x_3.3_349.png,250,1x,3.3,6,1532,255,meters,jsons/MX_seq34_1_VE250.json,147500,228197,32,Prefer not to answer
58,144002,final-intermixed-textured,v2,jsons/MX_seq34_1_VE250.json,http://54.235.29.9/FacialAge/BNav_EC2/DepthDuration/MX_fS_VE_MTurk/MX_fS_HTML.html#78,78,1920,919,1920,1080,1-1-2024,13-8-30,59,VR_target_stimuli/s10_0.75x_2.7_321.png,250,0.75x,2.7,5,1787,257,meters,jsons/MX_seq34_1_VE250.json,147500,228197,32,Prefer not to answer
59,144002,final-intermixed-textured,v2,jsons/MX_seq34_1_VE250.json,http://54.235.29.9/FacialAge/BNav_EC2/DepthDuration/MX_fS_VE_MTurk/MX_fS_HTML.html#78,78,1920,919,1920,1080,1-1-2024,13-8-30,60,VR_target_stimuli/s36_1.3x_4.1_442_BC.png,250,1.3x,4.1,3,1656,253,meters,jsons/MX_seq34_1_VE250.json,147500,228197,32,Prefer not to answer
