,subjID,experimentName,versionName,sequenceName,url,selected_row,windowWidth,windowHeight,screenWidth,screenHeight,startDate,startTime,trial,stimulus,duration,scale,actual_depth,depth_estimate,trial_RT,log_sceneDuration,unitSelection,seq_filepath,experimentTime,totalTime,age,gender
0,145852,final-intermixed-textured,v2,jsons/MX_seq44_1_VE250_flipped.json,http://54.235.29.9/FacialAge/BNav_EC2/DepthDuration/MX_fS_VE_MTurk/MX_fS_HTML.html#191,191,1440,779,1440,900,0-31-2024,22-59-47,1,VR_target_stimuli/s37_1.3x_3.3_555_BC.png,250,1.3x,3.3,3.5,16416,250,meters,jsons/MX_seq44_1_VE250_flipped.json,320348,629649,28,Woman
1,145852,final-intermixed-textured,v2,jsons/MX_seq44_1_VE250_flipped.json,http://54.235.29.9/FacialAge/BNav_EC2/DepthDuration/MX_fS_VE_MTurk/MX_fS_HTML.html#191,191,1440,779,1440,900,0-31-2024,22-59-47,2,VR_target_stimuli/s46_0.75x_2.42_343.png,250,0.75x,2.42,4.0,8314,250,meters,jsons/MX_seq44_1_VE250_flipped.json,320348,629649,28,Woman
2,145852,final-intermixed-textured,v2,jsons/MX_seq44_1_VE250_flipped.json,http://54.235.29.9/FacialAge/BNav_EC2/DepthDuration/MX_fS_VE_MTurk/MX_fS_HTML.html#191,191,1440,779,1440,900,0-31-2024,22-59-47,3,VR_target_stimuli/s22_1x_4.29_354.png,250,1x,4.29,5.0,4980,250,meters,jsons/MX_seq44_1_VE250_flipped.json,320348,629649,28,Woman
3,145852,final-intermixed-textured,v2,jsons/MX_seq44_1_VE250_flipped.json,http://54.235.29.9/FacialAge/BNav_EC2/DepthDuration/MX_fS_VE_MTurk/MX_fS_HTML.html#191,191,1440,779,1440,900,0-31-2024,22-59-47,4,VR_target_stimuli/s42_0.75x_3.2_301_BC.png,250,0.75x,3.2,5.0,6348,250,meters,jsons/MX_seq44_1_VE250_flipped.json,320348,629649,28,Woman
4,145852,final-intermixed-textured,v2,jsons/MX_seq44_1_VE250_flipped.json,http://54.235.29.9/FacialAge/BNav_EC2/DepthDuration/MX_fS_VE_MTurk/MX_fS_HTML.html#191,191,1440,779,1440,900,0-31-2024,22-59-47,5,VR_target_stimuli/s25_1.3x_1.4_299.png,250,1.3x,1.4,2.5,5449,250,meters,jsons/MX_seq44_1_VE250_flipped.json,320348,629649,28,Woman
5,145852,final-intermixed-textured,v2,jsons/MX_seq44_1_VE250_flipped.json,http://54.235.29.9/FacialAge/BNav_EC2/DepthDuration/MX_fS_VE_MTurk/MX_fS_HTML.html#191,191,1440,779,1440,900,0-31-2024,22-59-47,6,VR_target_stimuli/s50_1x_4.53_518_BC.png,250,1x,4.53,3.0,4182,249,meters,jsons/MX_seq44_1_VE250_flipped.json,320348,629649,28,Woman
6,145852,final-intermixed-textured,v2,jsons/MX_seq44_1_VE250_flipped.json,http://54.235.29.9/FacialAge/BNav_EC2/DepthDuration/MX_fS_VE_MTurk/MX_fS_HTML.html#191,191,1440,779,1440,900,0-31-2024,22-59-47,7,catch_stimuli/c0_BC.png,250,,,0.0,4116,251,meters,jsons/MX_seq44_1_VE250_flipped.json,320348,629649,28,Woman
7,145852,final-intermixed-textured,v2,jsons/MX_seq44_1_VE250_flipped.json,http://54.235.29.9/FacialAge/BNav_EC2/DepthDuration/MX_fS_VE_MTurk/MX_fS_HTML.html#191,191,1440,779,1440,900,0-31-2024,22-59-47,8,VR_target_stimuli/s53_1x_1.6_387.png,250,1x,1.6,1.0,4768,252,meters,jsons/MX_seq44_1_VE250_flipped.json,320348,629649,28,Woman
8,145852,final-intermixed-textured,v2,jsons/MX_seq44_1_VE250_flipped.json,http://54.235.29.9/FacialAge/BNav_EC2/DepthDuration/MX_fS_VE_MTurk/MX_fS_HTML.html#191,191,1440,779,1440,900,0-31-2024,22-59-47,9,VR_target_stimuli/s38_0.75x_3.55_346.png,250,0.75x,3.55,4.5,7197,250,meters,jsons/MX_seq44_1_VE250_flipped.json,320348,629649,28,Woman
9,145852,final-intermixed-textured,v2,jsons/MX_seq44_1_VE250_flipped.json,http://54.235.29.9/FacialAge/BNav_EC2/DepthDuration/MX_fS_VE_MTurk/MX_fS_HTML.html#191,191,1440,779,1440,900,0-31-2024,22-59-47,10,VR_target_stimuli/s9_1.3x_1.2_276_BC.png,250,1.3x,1.2,1.5,6235,250,meters,jsons/MX_seq44_1_VE250_flipped.json,320348,629649,28,Woman
10,145852,final-intermixed-textured,v2,jsons/MX_seq44_1_VE250_flipped.json,http://54.235.29.9/FacialAge/BNav_EC2/DepthDuration/MX_fS_VE_MTurk/MX_fS_HTML.html#191,191,1440,779,1440,900,0-31-2024,22-59-47,11,VR_target_stimuli/s44_0.75x_4.4_314_BC.png,250,0.75x,4.4,6.0,6268,250,meters,jsons/MX_seq44_1_VE250_flipped.json,320348,629649,28,Woman
11,145852,final-intermixed-textured,v2,jsons/MX_seq44_1_VE250_flipped.json,http://54.235.29.9/FacialAge/BNav_EC2/DepthDuration/MX_fS_VE_MTurk/MX_fS_HTML.html#191,191,1440,779,1440,900,0-31-2024,22-59-47,12,VR_target_stimuli/s3_1x_5_385_BC.png,250,1x,5.0,6.5,8434,251,meters,jsons/MX_seq44_1_VE250_flipped.json,320348,629649,28,Woman
12,145852,final-intermixed-textured,v2,jsons/MX_seq44_1_VE250_flipped.json,http://54.235.29.9/FacialAge/BNav_EC2/DepthDuration/MX_fS_VE_MTurk/MX_fS_HTML.html#191,191,1440,779,1440,900,0-31-2024,22-59-47,13,VR_target_stimuli/s1_1.3x_1.7_261.png,250,1.3x,1.7,4.0,6154,250,meters,jsons/MX_seq44_1_VE250_flipped.json,320348,629649,28,Woman
13,145852,final-intermixed-textured,v2,jsons/MX_seq44_1_VE250_flipped.json,http://54.235.29.9/FacialAge/BNav_EC2/DepthDuration/MX_fS_VE_MTurk/MX_fS_HTML.html#191,191,1440,779,1440,900,0-31-2024,22-59-47,14,VR_target_stimuli/s11_1x_5_361.png,250,1x,5.0,8.0,3462,251,meters,jsons/MX_seq44_1_VE250_flipped.json,320348,629649,28,Woman
14,145852,final-intermixed-textured,v2,jsons/MX_seq44_1_VE250_flipped.json,http://54.235.29.9/FacialAge/BNav_EC2/DepthDuration/MX_fS_VE_MTurk/MX_fS_HTML.html#191,191,1440,779,1440,900,0-31-2024,22-59-47,15,VR_target_stimuli/s2_0.75x_2.7_384_BC.png,250,0.75x,2.7,3.0,3216,251,meters,jsons/MX_seq44_1_VE250_flipped.json,320348,629649,28,Woman
15,145852,final-intermixed-textured,v2,jsons/MX_seq44_1_VE250_flipped.json,http://54.235.29.9/FacialAge/BNav_EC2/DepthDuration/MX_fS_VE_MTurk/MX_fS_HTML.html#191,191,1440,779,1440,900,0-31-2024,22-59-47,16,VR_target_stimuli/s6_1.3x_2.1_298.png,250,1.3x,2.1,2.5,5718,250,meters,jsons/MX_seq44_1_VE250_flipped.json,320348,629649,28,Woman
16,145852,final-intermixed-textured,v2,jsons/MX_seq44_1_VE250_flipped.json,http://54.235.29.9/FacialAge/BNav_EC2/DepthDuration/MX_fS_VE_MTurk/MX_fS_HTML.html#191,191,1440,779,1440,900,0-31-2024,22-59-47,17,catch_stimuli/c1_BC.png,250,,,0.0,2565,250,meters,jsons/MX_seq44_1_VE250_flipped.json,320348,629649,28,Woman
17,145852,final-intermixed-textured,v2,jsons/MX_seq44_1_VE250_flipped.json,http://54.235.29.9/FacialAge/BNav_EC2/DepthDuration/MX_fS_VE_MTurk/MX_fS_HTML.html#191,191,1440,779,1440,900,0-31-2024,22-59-47,18,VR_target_stimuli/s0_1.3x_2.6_356_BC.png,250,1.3x,2.6,3.0,4416,249,meters,jsons/MX_seq44_1_VE250_flipped.json,320348,629649,28,Woman
18,145852,final-intermixed-textured,v2,jsons/MX_seq44_1_VE250_flipped.json,http://54.235.29.9/FacialAge/BNav_EC2/DepthDuration/MX_fS_VE_MTurk/MX_fS_HTML.html#191,191,1440,779,1440,900,0-31-2024,22-59-47,19,VR_target_stimuli/s34_1x_2.8_283_BC.png,250,1x,2.8,4.0,5001,251,meters,jsons/MX_seq44_1_VE250_flipped.json,320348,629649,28,Woman
19,145852,final-intermixed-textured,v2,jsons/MX_seq44_1_VE250_flipped.json,http://54.235.29.9/FacialAge/BNav_EC2/DepthDuration/MX_fS_VE_MTurk/MX_fS_HTML.html#191,191,1440,779,1440,900,0-31-2024,22-59-47,20,VR_target_stimuli/s13_0.75x_2.4_308.png,250,0.75x,2.4,3.0,7414,250,meters,jsons/MX_seq44_1_VE250_flipped.json,320348,629649,28,Woman
20,145852,final-intermixed-textured,v2,jsons/MX_seq44_1_VE250_flipped.json,http://54.235.29.9/FacialAge/BNav_EC2/DepthDuration/MX_fS_VE_MTurk/MX_fS_HTML.html#191,191,1440,779,1440,900,0-31-2024,22-59-47,21,VR_target_stimuli/s14_1x_ 3.83_357.png,250,1x,3.83,5.5,4666,251,meters,jsons/MX_seq44_1_VE250_flipped.json,320348,629649,28,Woman
21,145852,final-intermixed-textured,v2,jsons/MX_seq44_1_VE250_flipped.json,http://54.235.29.9/FacialAge/BNav_EC2/DepthDuration/MX_fS_VE_MTurk/MX_fS_HTML.html#191,191,1440,779,1440,900,0-31-2024,22-59-47,22,VR_target_stimuli/s47_1.3x_3.45_373.png,250,1.3x,3.45,3.5,11833,251,meters,jsons/MX_seq44_1_VE250_flipped.json,320348,629649,28,Woman
22,145852,final-intermixed-textured,v2,jsons/MX_seq44_1_VE250_flipped.json,http://54.235.29.9/FacialAge/BNav_EC2/DepthDuration/MX_fS_VE_MTurk/MX_fS_HTML.html#191,191,1440,779,1440,900,0-31-2024,22-59-47,23,VR_target_stimuli/s29_0.75x_1.3_246_BC.png,250,0.75x,1.3,2.0,2933,249,meters,jsons/MX_seq44_1_VE250_flipped.json,320348,629649,28,Woman
23,145852,final-intermixed-textured,v2,jsons/MX_seq44_1_VE250_flipped.json,http://54.235.29.9/FacialAge/BNav_EC2/DepthDuration/MX_fS_VE_MTurk/MX_fS_HTML.html#191,191,1440,779,1440,900,0-31-2024,22-59-47,24,VR_target_stimuli/s28_1.3x_3.2_365_BC.png,250,1.3x,3.2,3.0,5381,250,meters,jsons/MX_seq44_1_VE250_flipped.json,320348,629649,28,Woman
24,145852,final-intermixed-textured,v2,jsons/MX_seq44_1_VE250_flipped.json,http://54.235.29.9/FacialAge/BNav_EC2/DepthDuration/MX_fS_VE_MTurk/MX_fS_HTML.html#191,191,1440,779,1440,900,0-31-2024,22-59-47,25,VR_target_stimuli/s48_1x_2.55_256_BC.png,250,1x,2.55,5.0,3870,250,meters,jsons/MX_seq44_1_VE250_flipped.json,320348,629649,28,Woman
25,145852,final-intermixed-textured,v2,jsons/MX_seq44_1_VE250_flipped.json,http://54.235.29.9/FacialAge/BNav_EC2/DepthDuration/MX_fS_VE_MTurk/MX_fS_HTML.html#191,191,1440,779,1440,900,0-31-2024,22-59-47,26,catch_stimuli/c2_BC.png,250,,,0.0,2763,251,meters,jsons/MX_seq44_1_VE250_flipped.json,320348,629649,28,Woman
26,145852,final-intermixed-textured,v2,jsons/MX_seq44_1_VE250_flipped.json,http://54.235.29.9/FacialAge/BNav_EC2/DepthDuration/MX_fS_VE_MTurk/MX_fS_HTML.html#191,191,1440,779,1440,900,0-31-2024,22-59-47,27,VR_target_stimuli/s19_0.75x_1.21_257.png,250,0.75x,1.21,2.0,8515,250,meters,jsons/MX_seq44_1_VE250_flipped.json,320348,629649,28,Woman
27,145852,final-intermixed-textured,v2,jsons/MX_seq44_1_VE250_flipped.json,http://54.235.29.9/FacialAge/BNav_EC2/DepthDuration/MX_fS_VE_MTurk/MX_fS_HTML.html#191,191,1440,779,1440,900,0-31-2024,22-59-47,28,VR_target_stimuli/s21_0.75x_4.22_374.png,250,0.75x,4.22,9.0,5116,251,meters,jsons/MX_seq44_1_VE250_flipped.json,320348,629649,28,Woman
28,145852,final-intermixed-textured,v2,jsons/MX_seq44_1_VE250_flipped.json,http://54.235.29.9/FacialAge/BNav_EC2/DepthDuration/MX_fS_VE_MTurk/MX_fS_HTML.html#191,191,1440,779,1440,900,0-31-2024,22-59-47,29,VR_target_stimuli/s8_1.3x_3.1_345_BC.png,250,1.3x,3.1,5.0,4300,251,meters,jsons/MX_seq44_1_VE250_flipped.json,320348,629649,28,Woman
29,145852,final-intermixed-textured,v2,jsons/MX_seq44_1_VE250_flipped.json,http://54.235.29.9/FacialAge/BNav_EC2/DepthDuration/MX_fS_VE_MTurk/MX_fS_HTML.html#191,191,1440,779,1440,900,0-31-2024,22-59-47,30,VR_target_stimuli/s27_1x_1.76_248_BC.png,250,1x,1.76,4.0,4351,251,meters,jsons/MX_seq44_1_VE250_flipped.json,320348,629649,28,Woman
30,145852,final-intermixed-textured,v2,jsons/MX_seq44_1_VE250_flipped.json,http://54.235.29.9/FacialAge/BNav_EC2/DepthDuration/MX_fS_VE_MTurk/MX_fS_HTML.html#191,191,1440,779,1440,900,0-31-2024,22-59-47,31,VR_target_stimuli/s15_0.75x_4.2_388_BC.png,250,0.75x,4.2,6.5,4713,250,meters,jsons/MX_seq44_1_VE250_flipped.json,320348,629649,28,Woman
31,145852,final-intermixed-textured,v2,jsons/MX_seq44_1_VE250_flipped.json,http://54.235.29.9/FacialAge/BNav_EC2/DepthDuration/MX_fS_VE_MTurk/MX_fS_HTML.html#191,191,1440,779,1440,900,0-31-2024,22-59-47,32,VR_target_stimuli/s4_1x_1.4_313.png,250,1x,1.4,2.5,5750,250,meters,jsons/MX_seq44_1_VE250_flipped.json,320348,629649,28,Woman
32,145852,final-intermixed-textured,v2,jsons/MX_seq44_1_VE250_flipped.json,http://54.235.29.9/FacialAge/BNav_EC2/DepthDuration/MX_fS_VE_MTurk/MX_fS_HTML.html#191,191,1440,779,1440,900,0-31-2024,22-59-47,33,VR_target_stimuli/s35_1.3x_2_338.png,250,1.3x,2.0,2.0,3604,251,meters,jsons/MX_seq44_1_VE250_flipped.json,320348,629649,28,Woman
33,145852,final-intermixed-textured,v2,jsons/MX_seq44_1_VE250_flipped.json,http://54.235.29.9/FacialAge/BNav_EC2/DepthDuration/MX_fS_VE_MTurk/MX_fS_HTML.html#191,191,1440,779,1440,900,0-31-2024,22-59-47,34,catch_stimuli/c3_BC.png,250,,,0.0,2694,249,meters,jsons/MX_seq44_1_VE250_flipped.json,320348,629649,28,Woman
34,145852,final-intermixed-textured,v2,jsons/MX_seq44_1_VE250_flipped.json,http://54.235.29.9/FacialAge/BNav_EC2/DepthDuration/MX_fS_VE_MTurk/MX_fS_HTML.html#191,191,1440,779,1440,900,0-31-2024,22-59-47,35,VR_target_stimuli/s49_1x_4.67_341_BC.png,250,1x,4.67,7.0,3020,250,meters,jsons/MX_seq44_1_VE250_flipped.json,320348,629649,28,Woman
35,145852,final-intermixed-textured,v2,jsons/MX_seq44_1_VE250_flipped.json,http://54.235.29.9/FacialAge/BNav_EC2/DepthDuration/MX_fS_VE_MTurk/MX_fS_HTML.html#191,191,1440,779,1440,900,0-31-2024,22-59-47,36,VR_target_stimuli/s7_0.75x_1.5_253.png,250,0.75x,1.5,3.0,8080,250,meters,jsons/MX_seq44_1_VE250_flipped.json,320348,629649,28,Woman
36,145852,final-intermixed-textured,v2,jsons/MX_seq44_1_VE250_flipped.json,http://54.235.29.9/FacialAge/BNav_EC2/DepthDuration/MX_fS_VE_MTurk/MX_fS_HTML.html#191,191,1440,779,1440,900,0-31-2024,22-59-47,37,VR_target_stimuli/s20_1.3x_4.99_412.png,250,1.3x,4.99,6.0,2814,250,meters,jsons/MX_seq44_1_VE250_flipped.json,320348,629649,28,Woman
37,145852,final-intermixed-textured,v2,jsons/MX_seq44_1_VE250_flipped.json,http://54.235.29.9/FacialAge/BNav_EC2/DepthDuration/MX_fS_VE_MTurk/MX_fS_HTML.html#191,191,1440,779,1440,900,0-31-2024,22-59-47,38,VR_target_stimuli/s31_1.3x_4.96_342_BC.png,250,1.3x,4.96,6.0,2950,250,meters,jsons/MX_seq44_1_VE250_flipped.json,320348,629649,28,Woman
38,145852,final-intermixed-textured,v2,jsons/MX_seq44_1_VE250_flipped.json,http://54.235.29.9/FacialAge/BNav_EC2/DepthDuration/MX_fS_VE_MTurk/MX_fS_HTML.html#191,191,1440,779,1440,900,0-31-2024,22-59-47,39,VR_target_stimuli/s33_1x_3.1_366.png,250,1x,3.1,5.0,3500,250,meters,jsons/MX_seq44_1_VE250_flipped.json,320348,629649,28,Woman
39,145852,final-intermixed-textured,v2,jsons/MX_seq44_1_VE250_flipped.json,http://54.235.29.9/FacialAge/BNav_EC2/DepthDuration/MX_fS_VE_MTurk/MX_fS_HTML.html#191,191,1440,779,1440,900,0-31-2024,22-59-47,40,VR_target_stimuli/s52_0.75x_3.2_270_BC.png,250,0.75x,3.2,6.0,6102,250,meters,jsons/MX_seq44_1_VE250_flipped.json,320348,629649,28,Woman
40,145852,final-intermixed-textured,v2,jsons/MX_seq44_1_VE250_flipped.json,http://54.235.29.9/FacialAge/BNav_EC2/DepthDuration/MX_fS_VE_MTurk/MX_fS_HTML.html#191,191,1440,779,1440,900,0-31-2024,22-59-47,41,VR_target_stimuli/s32_1x_1.5_218_BC.png,250,1x,1.5,3.5,3880,250,meters,jsons/MX_seq44_1_VE250_flipped.json,320348,629649,28,Woman
41,145852,final-intermixed-textured,v2,jsons/MX_seq44_1_VE250_flipped.json,http://54.235.29.9/FacialAge/BNav_EC2/DepthDuration/MX_fS_VE_MTurk/MX_fS_HTML.html#191,191,1440,779,1440,900,0-31-2024,22-59-47,42,VR_target_stimuli/s18_1.3x_2.25_368_BC.png,250,1.3x,2.25,2.5,3532,251,meters,jsons/MX_seq44_1_VE250_flipped.json,320348,629649,28,Woman
42,145852,final-intermixed-textured,v2,jsons/MX_seq44_1_VE250_flipped.json,http://54.235.29.9/FacialAge/BNav_EC2/DepthDuration/MX_fS_VE_MTurk/MX_fS_HTML.html#191,191,1440,779,1440,900,0-31-2024,22-59-47,43,VR_target_stimuli/s39_0.75x_1_205.png,250,0.75x,1.0,1.5,3400,251,meters,jsons/MX_seq44_1_VE250_flipped.json,320348,629649,28,Woman
43,145852,final-intermixed-textured,v2,jsons/MX_seq44_1_VE250_flipped.json,http://54.235.29.9/FacialAge/BNav_EC2/DepthDuration/MX_fS_VE_MTurk/MX_fS_HTML.html#191,191,1440,779,1440,900,0-31-2024,22-59-47,44,VR_target_stimuli/s51_1.3x_3.64_479.png,250,1.3x,3.64,2.0,4165,250,meters,jsons/MX_seq44_1_VE250_flipped.json,320348,629649,28,Woman
44,145852,final-intermixed-textured,v2,jsons/MX_seq44_1_VE250_flipped.json,http://54.235.29.9/FacialAge/BNav_EC2/DepthDuration/MX_fS_VE_MTurk/MX_fS_HTML.html#191,191,1440,779,1440,900,0-31-2024,22-59-47,45,catch_stimuli/c4_BC.png,250,,,0.0,2740,249,meters,jsons/MX_seq44_1_VE250_flipped.json,320348,629649,28,Woman
45,145852,final-intermixed-textured,v2,jsons/MX_seq44_1_VE250_flipped.json,http://54.235.29.9/FacialAge/BNav_EC2/DepthDuration/MX_fS_VE_MTurk/MX_fS_HTML.html#191,191,1440,779,1440,900,0-31-2024,22-59-47,46,VR_target_stimuli/s43_1x_2.2_354.png,250,1x,2.2,3.0,3625,248,meters,jsons/MX_seq44_1_VE250_flipped.json,320348,629649,28,Woman
46,145852,final-intermixed-textured,v2,jsons/MX_seq44_1_VE250_flipped.json,http://54.235.29.9/FacialAge/BNav_EC2/DepthDuration/MX_fS_VE_MTurk/MX_fS_HTML.html#191,191,1440,779,1440,900,0-31-2024,22-59-47,47,VR_target_stimuli/s24_0.75x_3.3_344_BC.png,250,0.75x,3.3,5.5,4263,249,meters,jsons/MX_seq44_1_VE250_flipped.json,320348,629649,28,Woman
47,145852,final-intermixed-textured,v2,jsons/MX_seq44_1_VE250_flipped.json,http://54.235.29.9/FacialAge/BNav_EC2/DepthDuration/MX_fS_VE_MTurk/MX_fS_HTML.html#191,191,1440,779,1440,900,0-31-2024,22-59-47,48,VR_target_stimuli/s10_0.75x_2.7_321.png,250,0.75x,2.7,4.0,3520,249,meters,jsons/MX_seq44_1_VE250_flipped.json,320348,629649,28,Woman
48,145852,final-intermixed-textured,v2,jsons/MX_seq44_1_VE250_flipped.json,http://54.235.29.9/FacialAge/BNav_EC2/DepthDuration/MX_fS_VE_MTurk/MX_fS_HTML.html#191,191,1440,779,1440,900,0-31-2024,22-59-47,49,VR_target_stimuli/s36_1.3x_4.1_442_BC.png,250,1.3x,4.1,5.0,4162,250,meters,jsons/MX_seq44_1_VE250_flipped.json,320348,629649,28,Woman
49,145852,final-intermixed-textured,v2,jsons/MX_seq44_1_VE250_flipped.json,http://54.235.29.9/FacialAge/BNav_EC2/DepthDuration/MX_fS_VE_MTurk/MX_fS_HTML.html#191,191,1440,779,1440,900,0-31-2024,22-59-47,50,VR_target_stimuli/s40_1x_1.2_319.png,250,1x,1.2,2.0,4034,249,meters,jsons/MX_seq44_1_VE250_flipped.json,320348,629649,28,Woman
50,145852,final-intermixed-textured,v2,jsons/MX_seq44_1_VE250_flipped.json,http://54.235.29.9/FacialAge/BNav_EC2/DepthDuration/MX_fS_VE_MTurk/MX_fS_HTML.html#191,191,1440,779,1440,900,0-31-2024,22-59-47,51,VR_target_stimuli/s41_1.3x_2.1_294.png,250,1.3x,2.1,3.0,2883,250,meters,jsons/MX_seq44_1_VE250_flipped.json,320348,629649,28,Woman
51,145852,final-intermixed-textured,v2,jsons/MX_seq44_1_VE250_flipped.json,http://54.235.29.9/FacialAge/BNav_EC2/DepthDuration/MX_fS_VE_MTurk/MX_fS_HTML.html#191,191,1440,779,1440,900,0-31-2024,22-59-47,52,VR_target_stimuli/s45_0.75x_3.5_362_BC.png,250,0.75x,3.5,4.0,2812,250,meters,jsons/MX_seq44_1_VE250_flipped.json,320348,629649,28,Woman
52,145852,final-intermixed-textured,v2,jsons/MX_seq44_1_VE250_flipped.json,http://54.235.29.9/FacialAge/BNav_EC2/DepthDuration/MX_fS_VE_MTurk/MX_fS_HTML.html#191,191,1440,779,1440,900,0-31-2024,22-59-47,53,catch_stimuli/c5_BC.png,250,,,0.0,2848,250,meters,jsons/MX_seq44_1_VE250_flipped.json,320348,629649,28,Woman
53,145852,final-intermixed-textured,v2,jsons/MX_seq44_1_VE250_flipped.json,http://54.235.29.9/FacialAge/BNav_EC2/DepthDuration/MX_fS_VE_MTurk/MX_fS_HTML.html#191,191,1440,779,1440,900,0-31-2024,22-59-47,54,VR_target_stimuli/s23_1x_3.65_353_BC.png,250,1x,3.65,4.5,3482,249,meters,jsons/MX_seq44_1_VE250_flipped.json,320348,629649,28,Woman
54,145852,final-intermixed-textured,v2,jsons/MX_seq44_1_VE250_flipped.json,http://54.235.29.9/FacialAge/BNav_EC2/DepthDuration/MX_fS_VE_MTurk/MX_fS_HTML.html#191,191,1440,779,1440,900,0-31-2024,22-59-47,55,VR_target_stimuli/s26_0.75x_4_430.png,250,0.75x,4.0,6.5,5182,250,meters,jsons/MX_seq44_1_VE250_flipped.json,320348,629649,28,Woman
55,145852,final-intermixed-textured,v2,jsons/MX_seq44_1_VE250_flipped.json,http://54.235.29.9/FacialAge/BNav_EC2/DepthDuration/MX_fS_VE_MTurk/MX_fS_HTML.html#191,191,1440,779,1440,900,0-31-2024,22-59-47,56,VR_target_stimuli/s12_1.3x_3.1_375.png,250,1.3x,3.1,5.0,3465,249,meters,jsons/MX_seq44_1_VE250_flipped.json,320348,629649,28,Woman
56,145852,final-intermixed-textured,v2,jsons/MX_seq44_1_VE250_flipped.json,http://54.235.29.9/FacialAge/BNav_EC2/DepthDuration/MX_fS_VE_MTurk/MX_fS_HTML.html#191,191,1440,779,1440,900,0-31-2024,22-59-47,57,VR_target_stimuli/s30_1x_2.3_334.png,250,1x,2.3,4.0,4699,250,meters,jsons/MX_seq44_1_VE250_flipped.json,320348,629649,28,Woman
57,145852,final-intermixed-textured,v2,jsons/MX_seq44_1_VE250_flipped.json,http://54.235.29.9/FacialAge/BNav_EC2/DepthDuration/MX_fS_VE_MTurk/MX_fS_HTML.html#191,191,1440,779,1440,900,0-31-2024,22-59-47,58,VR_target_stimuli/s16_1x_1_219_BC.png,250,1x,1.0,2.0,3501,250,meters,jsons/MX_seq44_1_VE250_flipped.json,320348,629649,28,Woman
58,145852,final-intermixed-textured,v2,jsons/MX_seq44_1_VE250_flipped.json,http://54.235.29.9/FacialAge/BNav_EC2/DepthDuration/MX_fS_VE_MTurk/MX_fS_HTML.html#191,191,1440,779,1440,900,0-31-2024,22-59-47,59,VR_target_stimuli/s17_0.75x_1.8_285_BC.png,250,0.75x,1.8,2.5,3564,249,meters,jsons/MX_seq44_1_VE250_flipped.json,320348,629649,28,Woman
59,145852,final-intermixed-textured,v2,jsons/MX_seq44_1_VE250_flipped.json,http://54.235.29.9/FacialAge/BNav_EC2/DepthDuration/MX_fS_VE_MTurk/MX_fS_HTML.html#191,191,1440,779,1440,900,0-31-2024,22-59-47,60,VR_target_stimuli/s5_1.3x_4_393_BC.png,250,1.3x,4.0,5.0,2916,251,meters,jsons/MX_seq44_1_VE250_flipped.json,320348,629649,28,Woman
