,subjID,experimentName,versionName,sequenceName,url,selected_row,windowWidth,windowHeight,screenWidth,screenHeight,startDate,startTime,trial,stimulus,duration,scale,actual_depth,depth_estimate,trial_RT,log_sceneDuration,unitSelection,seq_filepath,experimentTime,totalTime,age,gender
0,154419,final-intermixed-textured,v2,jsons/MX_seq16_1_VE250_flipped.json,http://54.235.29.9/FacialAge/BNav_EC2/DepthDuration/MX_fS_VE_MTurk/MX_fS_HTML.html#308,308,1920,1080,1920,1080,0-31-2024,19-9-18,1,VR_target_stimuli/s27_1.3x_1.76_250_BC.png,250,1.3x,1.76,1.5,5803,259,meters,jsons/MX_seq16_1_VE250_flipped.json,278689,479028,25,Man
1,154419,final-intermixed-textured,v2,jsons/MX_seq16_1_VE250_flipped.json,http://54.235.29.9/FacialAge/BNav_EC2/DepthDuration/MX_fS_VE_MTurk/MX_fS_HTML.html#308,308,1920,1080,1920,1080,0-31-2024,19-9-18,2,VR_target_stimuli/s15_0.75x_4.2_388.png,250,0.75x,4.2,2.3,4568,252,meters,jsons/MX_seq16_1_VE250_flipped.json,278689,479028,25,Man
2,154419,final-intermixed-textured,v2,jsons/MX_seq16_1_VE250_flipped.json,http://54.235.29.9/FacialAge/BNav_EC2/DepthDuration/MX_fS_VE_MTurk/MX_fS_HTML.html#308,308,1920,1080,1920,1080,0-31-2024,19-9-18,3,VR_target_stimuli/s4_1x_1.4_313_BC.png,250,1x,1.4,1.0,5475,254,meters,jsons/MX_seq16_1_VE250_flipped.json,278689,479028,25,Man
3,154419,final-intermixed-textured,v2,jsons/MX_seq16_1_VE250_flipped.json,http://54.235.29.9/FacialAge/BNav_EC2/DepthDuration/MX_fS_VE_MTurk/MX_fS_HTML.html#308,308,1920,1080,1920,1080,0-31-2024,19-9-18,4,VR_target_stimuli/s35_0.75x_2_323_BC.png,250,0.75x,2.0,1.5,3252,250,meters,jsons/MX_seq16_1_VE250_flipped.json,278689,479028,25,Man
4,154419,final-intermixed-textured,v2,jsons/MX_seq16_1_VE250_flipped.json,http://54.235.29.9/FacialAge/BNav_EC2/DepthDuration/MX_fS_VE_MTurk/MX_fS_HTML.html#308,308,1920,1080,1920,1080,0-31-2024,19-9-18,5,VR_target_stimuli/s49_1.3x_4.67_354.png,250,1.3x,4.67,3.0,4278,253,meters,jsons/MX_seq16_1_VE250_flipped.json,278689,479028,25,Man
5,154419,final-intermixed-textured,v2,jsons/MX_seq16_1_VE250_flipped.json,http://54.235.29.9/FacialAge/BNav_EC2/DepthDuration/MX_fS_VE_MTurk/MX_fS_HTML.html#308,308,1920,1080,1920,1080,0-31-2024,19-9-18,6,VR_target_stimuli/s7_1x_1.5_255.png,250,1x,1.5,2.0,2507,256,meters,jsons/MX_seq16_1_VE250_flipped.json,278689,479028,25,Man
6,154419,final-intermixed-textured,v2,jsons/MX_seq16_1_VE250_flipped.json,http://54.235.29.9/FacialAge/BNav_EC2/DepthDuration/MX_fS_VE_MTurk/MX_fS_HTML.html#308,308,1920,1080,1920,1080,0-31-2024,19-9-18,7,catch_stimuli/c0_BC.png,250,,,0.0,3384,264,meters,jsons/MX_seq16_1_VE250_flipped.json,278689,479028,25,Man
7,154419,final-intermixed-textured,v2,jsons/MX_seq16_1_VE250_flipped.json,http://54.235.29.9/FacialAge/BNav_EC2/DepthDuration/MX_fS_VE_MTurk/MX_fS_HTML.html#308,308,1920,1080,1920,1080,0-31-2024,19-9-18,8,VR_target_stimuli/s20_1x_4.99_398.png,250,1x,4.99,3.5,11627,251,meters,jsons/MX_seq16_1_VE250_flipped.json,278689,479028,25,Man
8,154419,final-intermixed-textured,v2,jsons/MX_seq16_1_VE250_flipped.json,http://54.235.29.9/FacialAge/BNav_EC2/DepthDuration/MX_fS_VE_MTurk/MX_fS_HTML.html#308,308,1920,1080,1920,1080,0-31-2024,19-9-18,9,VR_target_stimuli/s31_0.75x_4.96_329_BC.png,250,0.75x,4.96,1.8,5785,251,meters,jsons/MX_seq16_1_VE250_flipped.json,278689,479028,25,Man
9,154419,final-intermixed-textured,v2,jsons/MX_seq16_1_VE250_flipped.json,http://54.235.29.9/FacialAge/BNav_EC2/DepthDuration/MX_fS_VE_MTurk/MX_fS_HTML.html#308,308,1920,1080,1920,1080,0-31-2024,19-9-18,10,VR_target_stimuli/s33_1.3x_3.1_378_BC.png,250,1.3x,3.1,1.5,3675,256,meters,jsons/MX_seq16_1_VE250_flipped.json,278689,479028,25,Man
10,154419,final-intermixed-textured,v2,jsons/MX_seq16_1_VE250_flipped.json,http://54.235.29.9/FacialAge/BNav_EC2/DepthDuration/MX_fS_VE_MTurk/MX_fS_HTML.html#308,308,1920,1080,1920,1080,0-31-2024,19-9-18,11,VR_target_stimuli/s52_0.75x_3.2_270.png,250,0.75x,3.2,2.5,7014,253,meters,jsons/MX_seq16_1_VE250_flipped.json,278689,479028,25,Man
11,154419,final-intermixed-textured,v2,jsons/MX_seq16_1_VE250_flipped.json,http://54.235.29.9/FacialAge/BNav_EC2/DepthDuration/MX_fS_VE_MTurk/MX_fS_HTML.html#308,308,1920,1080,1920,1080,0-31-2024,19-9-18,12,VR_target_stimuli/s32_1x_1.5_218_BC.png,250,1x,1.5,1.0,5747,251,meters,jsons/MX_seq16_1_VE250_flipped.json,278689,479028,25,Man
12,154419,final-intermixed-textured,v2,jsons/MX_seq16_1_VE250_flipped.json,http://54.235.29.9/FacialAge/BNav_EC2/DepthDuration/MX_fS_VE_MTurk/MX_fS_HTML.html#308,308,1920,1080,1920,1080,0-31-2024,19-9-18,13,VR_target_stimuli/s18_1.3x_2.25_368.png,250,1.3x,2.25,1.0,1801,238,meters,jsons/MX_seq16_1_VE250_flipped.json,278689,479028,25,Man
13,154419,final-intermixed-textured,v2,jsons/MX_seq16_1_VE250_flipped.json,http://54.235.29.9/FacialAge/BNav_EC2/DepthDuration/MX_fS_VE_MTurk/MX_fS_HTML.html#308,308,1920,1080,1920,1080,0-31-2024,19-9-18,14,VR_target_stimuli/s39_1x_1_207_BC.png,250,1x,1.0,0.5,3563,246,meters,jsons/MX_seq16_1_VE250_flipped.json,278689,479028,25,Man
14,154419,final-intermixed-textured,v2,jsons/MX_seq16_1_VE250_flipped.json,http://54.235.29.9/FacialAge/BNav_EC2/DepthDuration/MX_fS_VE_MTurk/MX_fS_HTML.html#308,308,1920,1080,1920,1080,0-31-2024,19-9-18,15,VR_target_stimuli/s51_0.75x_3.64_460_BC.png,250,0.75x,3.64,1.0,2472,252,meters,jsons/MX_seq16_1_VE250_flipped.json,278689,479028,25,Man
15,154419,final-intermixed-textured,v2,jsons/MX_seq16_1_VE250_flipped.json,http://54.235.29.9/FacialAge/BNav_EC2/DepthDuration/MX_fS_VE_MTurk/MX_fS_HTML.html#308,308,1920,1080,1920,1080,0-31-2024,19-9-18,16,VR_target_stimuli/s43_1.3x_2.2_363.png,250,1.3x,2.2,1.0,1788,264,meters,jsons/MX_seq16_1_VE250_flipped.json,278689,479028,25,Man
16,154419,final-intermixed-textured,v2,jsons/MX_seq16_1_VE250_flipped.json,http://54.235.29.9/FacialAge/BNav_EC2/DepthDuration/MX_fS_VE_MTurk/MX_fS_HTML.html#308,308,1920,1080,1920,1080,0-31-2024,19-9-18,17,catch_stimuli/c1_BC.png,250,,,0.0,2979,261,meters,jsons/MX_seq16_1_VE250_flipped.json,278689,479028,25,Man
17,154419,final-intermixed-textured,v2,jsons/MX_seq16_1_VE250_flipped.json,http://54.235.29.9/FacialAge/BNav_EC2/DepthDuration/MX_fS_VE_MTurk/MX_fS_HTML.html#308,308,1920,1080,1920,1080,0-31-2024,19-9-18,18,VR_target_stimuli/s24_1.3x_3.3_352_BC.png,250,1.3x,3.3,1.5,5569,250,meters,jsons/MX_seq16_1_VE250_flipped.json,278689,479028,25,Man
18,154419,final-intermixed-textured,v2,jsons/MX_seq16_1_VE250_flipped.json,http://54.235.29.9/FacialAge/BNav_EC2/DepthDuration/MX_fS_VE_MTurk/MX_fS_HTML.html#308,308,1920,1080,1920,1080,0-31-2024,19-9-18,19,VR_target_stimuli/s10_1x_2.7_324.png,250,1x,2.7,2.0,1897,236,meters,jsons/MX_seq16_1_VE250_flipped.json,278689,479028,25,Man
19,154419,final-intermixed-textured,v2,jsons/MX_seq16_1_VE250_flipped.json,http://54.235.29.9/FacialAge/BNav_EC2/DepthDuration/MX_fS_VE_MTurk/MX_fS_HTML.html#308,308,1920,1080,1920,1080,0-31-2024,19-9-18,20,VR_target_stimuli/s36_0.75x_4.1_407.png,250,0.75x,4.1,2.5,4331,263,meters,jsons/MX_seq16_1_VE250_flipped.json,278689,479028,25,Man
20,154419,final-intermixed-textured,v2,jsons/MX_seq16_1_VE250_flipped.json,http://54.235.29.9/FacialAge/BNav_EC2/DepthDuration/MX_fS_VE_MTurk/MX_fS_HTML.html#308,308,1920,1080,1920,1080,0-31-2024,19-9-18,21,VR_target_stimuli/s40_1x_1.2_319_BC.png,250,1x,1.2,0.5,3228,252,meters,jsons/MX_seq16_1_VE250_flipped.json,278689,479028,25,Man
21,154419,final-intermixed-textured,v2,jsons/MX_seq16_1_VE250_flipped.json,http://54.235.29.9/FacialAge/BNav_EC2/DepthDuration/MX_fS_VE_MTurk/MX_fS_HTML.html#308,308,1920,1080,1920,1080,0-31-2024,19-9-18,22,VR_target_stimuli/s41_1.3x_2.1_294_BC.png,250,1.3x,2.1,0.7,6375,239,meters,jsons/MX_seq16_1_VE250_flipped.json,278689,479028,25,Man
22,154419,final-intermixed-textured,v2,jsons/MX_seq16_1_VE250_flipped.json,http://54.235.29.9/FacialAge/BNav_EC2/DepthDuration/MX_fS_VE_MTurk/MX_fS_HTML.html#308,308,1920,1080,1920,1080,0-31-2024,19-9-18,23,VR_target_stimuli/s45_0.75x_3.5_362_BC.png,250,0.75x,3.5,1.3,3807,253,meters,jsons/MX_seq16_1_VE250_flipped.json,278689,479028,25,Man
23,154419,final-intermixed-textured,v2,jsons/MX_seq16_1_VE250_flipped.json,http://54.235.29.9/FacialAge/BNav_EC2/DepthDuration/MX_fS_VE_MTurk/MX_fS_HTML.html#308,308,1920,1080,1920,1080,0-31-2024,19-9-18,24,VR_target_stimuli/s23_1.3x_3.65_354.png,250,1.3x,3.65,1.0,1961,250,meters,jsons/MX_seq16_1_VE250_flipped.json,278689,479028,25,Man
24,154419,final-intermixed-textured,v2,jsons/MX_seq16_1_VE250_flipped.json,http://54.235.29.9/FacialAge/BNav_EC2/DepthDuration/MX_fS_VE_MTurk/MX_fS_HTML.html#308,308,1920,1080,1920,1080,0-31-2024,19-9-18,25,VR_target_stimuli/s26_1x_4_433.png,250,1x,4.0,1.5,3570,250,meters,jsons/MX_seq16_1_VE250_flipped.json,278689,479028,25,Man
25,154419,final-intermixed-textured,v2,jsons/MX_seq16_1_VE250_flipped.json,http://54.235.29.9/FacialAge/BNav_EC2/DepthDuration/MX_fS_VE_MTurk/MX_fS_HTML.html#308,308,1920,1080,1920,1080,0-31-2024,19-9-18,26,catch_stimuli/c2_BC.png,250,,,0.0,3029,238,meters,jsons/MX_seq16_1_VE250_flipped.json,278689,479028,25,Man
26,154419,final-intermixed-textured,v2,jsons/MX_seq16_1_VE250_flipped.json,http://54.235.29.9/FacialAge/BNav_EC2/DepthDuration/MX_fS_VE_MTurk/MX_fS_HTML.html#308,308,1920,1080,1920,1080,0-31-2024,19-9-18,27,VR_target_stimuli/s12_0.75x_3.1_364.png,250,0.75x,3.1,1.0,1631,252,meters,jsons/MX_seq16_1_VE250_flipped.json,278689,479028,25,Man
27,154419,final-intermixed-textured,v2,jsons/MX_seq16_1_VE250_flipped.json,http://54.235.29.9/FacialAge/BNav_EC2/DepthDuration/MX_fS_VE_MTurk/MX_fS_HTML.html#308,308,1920,1080,1920,1080,0-31-2024,19-9-18,28,VR_target_stimuli/s30_0.75x_2.3_332_BC.png,250,0.75x,2.3,1.0,1528,250,meters,jsons/MX_seq16_1_VE250_flipped.json,278689,479028,25,Man
28,154419,final-intermixed-textured,v2,jsons/MX_seq16_1_VE250_flipped.json,http://54.235.29.9/FacialAge/BNav_EC2/DepthDuration/MX_fS_VE_MTurk/MX_fS_HTML.html#308,308,1920,1080,1920,1080,0-31-2024,19-9-18,29,VR_target_stimuli/s16_1.3x_1_223.png,250,1.3x,1.0,0.5,5620,257,meters,jsons/MX_seq16_1_VE250_flipped.json,278689,479028,25,Man
29,154419,final-intermixed-textured,v2,jsons/MX_seq16_1_VE250_flipped.json,http://54.235.29.9/FacialAge/BNav_EC2/DepthDuration/MX_fS_VE_MTurk/MX_fS_HTML.html#308,308,1920,1080,1920,1080,0-31-2024,19-9-18,30,VR_target_stimuli/s17_1x_1.8_291_BC.png,250,1x,1.8,0.7,4031,256,meters,jsons/MX_seq16_1_VE250_flipped.json,278689,479028,25,Man
30,154419,final-intermixed-textured,v2,jsons/MX_seq16_1_VE250_flipped.json,http://54.235.29.9/FacialAge/BNav_EC2/DepthDuration/MX_fS_VE_MTurk/MX_fS_HTML.html#308,308,1920,1080,1920,1080,0-31-2024,19-9-18,31,VR_target_stimuli/s5_0.75x_4_375.png,250,0.75x,4.0,2.0,6738,254,meters,jsons/MX_seq16_1_VE250_flipped.json,278689,479028,25,Man
31,154419,final-intermixed-textured,v2,jsons/MX_seq16_1_VE250_flipped.json,http://54.235.29.9/FacialAge/BNav_EC2/DepthDuration/MX_fS_VE_MTurk/MX_fS_HTML.html#308,308,1920,1080,1920,1080,0-31-2024,19-9-18,32,VR_target_stimuli/s37_1x_3.3_563.png,250,1x,3.3,0.8,4216,237,meters,jsons/MX_seq16_1_VE250_flipped.json,278689,479028,25,Man
32,154419,final-intermixed-textured,v2,jsons/MX_seq16_1_VE250_flipped.json,http://54.235.29.9/FacialAge/BNav_EC2/DepthDuration/MX_fS_VE_MTurk/MX_fS_HTML.html#308,308,1920,1080,1920,1080,0-31-2024,19-9-18,33,VR_target_stimuli/s46_1.3x_2.42_354_BC.png,250,1.3x,2.42,1.0,1621,253,meters,jsons/MX_seq16_1_VE250_flipped.json,278689,479028,25,Man
33,154419,final-intermixed-textured,v2,jsons/MX_seq16_1_VE250_flipped.json,http://54.235.29.9/FacialAge/BNav_EC2/DepthDuration/MX_fS_VE_MTurk/MX_fS_HTML.html#308,308,1920,1080,1920,1080,0-31-2024,19-9-18,34,catch_stimuli/c3_BC.png,250,,,0.0,2658,255,meters,jsons/MX_seq16_1_VE250_flipped.json,278689,479028,25,Man
34,154419,final-intermixed-textured,v2,jsons/MX_seq16_1_VE250_flipped.json,http://54.235.29.9/FacialAge/BNav_EC2/DepthDuration/MX_fS_VE_MTurk/MX_fS_HTML.html#308,308,1920,1080,1920,1080,0-31-2024,19-9-18,35,VR_target_stimuli/s22_1x_4.29_354_BC.png,250,1x,4.29,2.0,2302,245,meters,jsons/MX_seq16_1_VE250_flipped.json,278689,479028,25,Man
35,154419,final-intermixed-textured,v2,jsons/MX_seq16_1_VE250_flipped.json,http://54.235.29.9/FacialAge/BNav_EC2/DepthDuration/MX_fS_VE_MTurk/MX_fS_HTML.html#308,308,1920,1080,1920,1080,0-31-2024,19-9-18,36,VR_target_stimuli/s42_0.75x_3.2_301.png,250,0.75x,3.2,2.3,4056,243,meters,jsons/MX_seq16_1_VE250_flipped.json,278689,479028,25,Man
36,154419,final-intermixed-textured,v2,jsons/MX_seq16_1_VE250_flipped.json,http://54.235.29.9/FacialAge/BNav_EC2/DepthDuration/MX_fS_VE_MTurk/MX_fS_HTML.html#308,308,1920,1080,1920,1080,0-31-2024,19-9-18,37,VR_target_stimuli/s25_1.3x_1.4_299_BC.png,250,1.3x,1.4,0.4,6605,256,meters,jsons/MX_seq16_1_VE250_flipped.json,278689,479028,25,Man
37,154419,final-intermixed-textured,v2,jsons/MX_seq16_1_VE250_flipped.json,http://54.235.29.9/FacialAge/BNav_EC2/DepthDuration/MX_fS_VE_MTurk/MX_fS_HTML.html#308,308,1920,1080,1920,1080,0-31-2024,19-9-18,38,VR_target_stimuli/s50_1.3x_4.53_518.png,250,1.3x,4.53,1.8,5571,250,meters,jsons/MX_seq16_1_VE250_flipped.json,278689,479028,25,Man
38,154419,final-intermixed-textured,v2,jsons/MX_seq16_1_VE250_flipped.json,http://54.235.29.9/FacialAge/BNav_EC2/DepthDuration/MX_fS_VE_MTurk/MX_fS_HTML.html#308,308,1920,1080,1920,1080,0-31-2024,19-9-18,39,VR_target_stimuli/s53_1x_1.6_387.png,250,1x,1.6,0.4,4622,238,meters,jsons/MX_seq16_1_VE250_flipped.json,278689,479028,25,Man
39,154419,final-intermixed-textured,v2,jsons/MX_seq16_1_VE250_flipped.json,http://54.235.29.9/FacialAge/BNav_EC2/DepthDuration/MX_fS_VE_MTurk/MX_fS_HTML.html#308,308,1920,1080,1920,1080,0-31-2024,19-9-18,40,VR_target_stimuli/s38_0.75x_3.55_346_BC.png,250,0.75x,3.55,2.3,10256,252,meters,jsons/MX_seq16_1_VE250_flipped.json,278689,479028,25,Man
40,154419,final-intermixed-textured,v2,jsons/MX_seq16_1_VE250_flipped.json,http://54.235.29.9/FacialAge/BNav_EC2/DepthDuration/MX_fS_VE_MTurk/MX_fS_HTML.html#308,308,1920,1080,1920,1080,0-31-2024,19-9-18,41,VR_target_stimuli/s9_1x_1.2_263_BC.png,250,1x,1.2,0.5,3122,246,meters,jsons/MX_seq16_1_VE250_flipped.json,278689,479028,25,Man
41,154419,final-intermixed-textured,v2,jsons/MX_seq16_1_VE250_flipped.json,http://54.235.29.9/FacialAge/BNav_EC2/DepthDuration/MX_fS_VE_MTurk/MX_fS_HTML.html#308,308,1920,1080,1920,1080,0-31-2024,19-9-18,42,VR_target_stimuli/s44_1.3x_4.4_325.png,250,1.3x,4.4,2.0,2903,238,meters,jsons/MX_seq16_1_VE250_flipped.json,278689,479028,25,Man
42,154419,final-intermixed-textured,v2,jsons/MX_seq16_1_VE250_flipped.json,http://54.235.29.9/FacialAge/BNav_EC2/DepthDuration/MX_fS_VE_MTurk/MX_fS_HTML.html#308,308,1920,1080,1920,1080,0-31-2024,19-9-18,43,VR_target_stimuli/s3_0.75x_5_381.png,250,0.75x,5.0,3.0,1935,253,meters,jsons/MX_seq16_1_VE250_flipped.json,278689,479028,25,Man
43,154419,final-intermixed-textured,v2,jsons/MX_seq16_1_VE250_flipped.json,http://54.235.29.9/FacialAge/BNav_EC2/DepthDuration/MX_fS_VE_MTurk/MX_fS_HTML.html#308,308,1920,1080,1920,1080,0-31-2024,19-9-18,44,VR_target_stimuli/s1_1.3x_1.7_261_BC.png,250,1.3x,1.7,1.5,3028,256,meters,jsons/MX_seq16_1_VE250_flipped.json,278689,479028,25,Man
44,154419,final-intermixed-textured,v2,jsons/MX_seq16_1_VE250_flipped.json,http://54.235.29.9/FacialAge/BNav_EC2/DepthDuration/MX_fS_VE_MTurk/MX_fS_HTML.html#308,308,1920,1080,1920,1080,0-31-2024,19-9-18,45,catch_stimuli/c4_BC.png,250,,,0.0,2956,245,meters,jsons/MX_seq16_1_VE250_flipped.json,278689,479028,25,Man
45,154419,final-intermixed-textured,v2,jsons/MX_seq16_1_VE250_flipped.json,http://54.235.29.9/FacialAge/BNav_EC2/DepthDuration/MX_fS_VE_MTurk/MX_fS_HTML.html#308,308,1920,1080,1920,1080,0-31-2024,19-9-18,46,VR_target_stimuli/s11_1x_5_361.png,250,1x,5.0,2.0,2321,250,meters,jsons/MX_seq16_1_VE250_flipped.json,278689,479028,25,Man
46,154419,final-intermixed-textured,v2,jsons/MX_seq16_1_VE250_flipped.json,http://54.235.29.9/FacialAge/BNav_EC2/DepthDuration/MX_fS_VE_MTurk/MX_fS_HTML.html#308,308,1920,1080,1920,1080,0-31-2024,19-9-18,47,VR_target_stimuli/s2_0.75x_2.7_384_BC.png,250,0.75x,2.7,1.5,3299,241,meters,jsons/MX_seq16_1_VE250_flipped.json,278689,479028,25,Man
47,154419,final-intermixed-textured,v2,jsons/MX_seq16_1_VE250_flipped.json,http://54.235.29.9/FacialAge/BNav_EC2/DepthDuration/MX_fS_VE_MTurk/MX_fS_HTML.html#308,308,1920,1080,1920,1080,0-31-2024,19-9-18,48,VR_target_stimuli/s6_0.75x_2.1_290_BC.png,250,0.75x,2.1,1.8,3842,237,meters,jsons/MX_seq16_1_VE250_flipped.json,278689,479028,25,Man
48,154419,final-intermixed-textured,v2,jsons/MX_seq16_1_VE250_flipped.json,http://54.235.29.9/FacialAge/BNav_EC2/DepthDuration/MX_fS_VE_MTurk/MX_fS_HTML.html#308,308,1920,1080,1920,1080,0-31-2024,19-9-18,49,VR_target_stimuli/s0_1.3x_2.6_356.png,250,1.3x,2.6,1.5,4120,254,meters,jsons/MX_seq16_1_VE250_flipped.json,278689,479028,25,Man
49,154419,final-intermixed-textured,v2,jsons/MX_seq16_1_VE250_flipped.json,http://54.235.29.9/FacialAge/BNav_EC2/DepthDuration/MX_fS_VE_MTurk/MX_fS_HTML.html#308,308,1920,1080,1920,1080,0-31-2024,19-9-18,50,VR_target_stimuli/s34_1x_2.8_283_BC.png,250,1x,2.8,2.0,2313,248,meters,jsons/MX_seq16_1_VE250_flipped.json,278689,479028,25,Man
50,154419,final-intermixed-textured,v2,jsons/MX_seq16_1_VE250_flipped.json,http://54.235.29.9/FacialAge/BNav_EC2/DepthDuration/MX_fS_VE_MTurk/MX_fS_HTML.html#308,308,1920,1080,1920,1080,0-31-2024,19-9-18,51,VR_target_stimuli/s13_1.3x_2.4_313_BC.png,250,1.3x,2.4,1.3,10128,263,meters,jsons/MX_seq16_1_VE250_flipped.json,278689,479028,25,Man
51,154419,final-intermixed-textured,v2,jsons/MX_seq16_1_VE250_flipped.json,http://54.235.29.9/FacialAge/BNav_EC2/DepthDuration/MX_fS_VE_MTurk/MX_fS_HTML.html#308,308,1920,1080,1920,1080,0-31-2024,19-9-18,52,VR_target_stimuli/s14_0.75x_3.83_355.png,250,0.75x,3.83,2.0,2607,251,meters,jsons/MX_seq16_1_VE250_flipped.json,278689,479028,25,Man
52,154419,final-intermixed-textured,v2,jsons/MX_seq16_1_VE250_flipped.json,http://54.235.29.9/FacialAge/BNav_EC2/DepthDuration/MX_fS_VE_MTurk/MX_fS_HTML.html#308,308,1920,1080,1920,1080,0-31-2024,19-9-18,53,catch_stimuli/c5_BC.png,250,,,0.0,2801,257,meters,jsons/MX_seq16_1_VE250_flipped.json,278689,479028,25,Man
53,154419,final-intermixed-textured,v2,jsons/MX_seq16_1_VE250_flipped.json,http://54.235.29.9/FacialAge/BNav_EC2/DepthDuration/MX_fS_VE_MTurk/MX_fS_HTML.html#308,308,1920,1080,1920,1080,0-31-2024,19-9-18,54,VR_target_stimuli/s47_1x_3.45_370.png,250,1x,3.45,0.0,9323,250,meters,jsons/MX_seq16_1_VE250_flipped.json,278689,479028,25,Man
54,154419,final-intermixed-textured,v2,jsons/MX_seq16_1_VE250_flipped.json,http://54.235.29.9/FacialAge/BNav_EC2/DepthDuration/MX_fS_VE_MTurk/MX_fS_HTML.html#308,308,1920,1080,1920,1080,0-31-2024,19-9-18,55,VR_target_stimuli/s29_0.75x_1.3_246_BC.png,250,0.75x,1.3,0.5,5633,252,meters,jsons/MX_seq16_1_VE250_flipped.json,278689,479028,25,Man
55,154419,final-intermixed-textured,v2,jsons/MX_seq16_1_VE250_flipped.json,http://54.235.29.9/FacialAge/BNav_EC2/DepthDuration/MX_fS_VE_MTurk/MX_fS_HTML.html#308,308,1920,1080,1920,1080,0-31-2024,19-9-18,56,VR_target_stimuli/s28_1.3x_3.2_365.png,250,1.3x,3.2,1.5,5704,250,meters,jsons/MX_seq16_1_VE250_flipped.json,278689,479028,25,Man
56,154419,final-intermixed-textured,v2,jsons/MX_seq16_1_VE250_flipped.json,http://54.235.29.9/FacialAge/BNav_EC2/DepthDuration/MX_fS_VE_MTurk/MX_fS_HTML.html#308,308,1920,1080,1920,1080,0-31-2024,19-9-18,57,VR_target_stimuli/s48_1x_2.55_256.png,250,1x,2.55,1.5,3557,240,meters,jsons/MX_seq16_1_VE250_flipped.json,278689,479028,25,Man
57,154419,final-intermixed-textured,v2,jsons/MX_seq16_1_VE250_flipped.json,http://54.235.29.9/FacialAge/BNav_EC2/DepthDuration/MX_fS_VE_MTurk/MX_fS_HTML.html#308,308,1920,1080,1920,1080,0-31-2024,19-9-18,58,VR_target_stimuli/s19_1x_1.21_263_BC.png,250,1x,1.21,0.7,3274,238,meters,jsons/MX_seq16_1_VE250_flipped.json,278689,479028,25,Man
58,154419,final-intermixed-textured,v2,jsons/MX_seq16_1_VE250_flipped.json,http://54.235.29.9/FacialAge/BNav_EC2/DepthDuration/MX_fS_VE_MTurk/MX_fS_HTML.html#308,308,1920,1080,1920,1080,0-31-2024,19-9-18,59,VR_target_stimuli/s21_0.75x_4.22_374.png,250,0.75x,4.22,3.0,2899,253,meters,jsons/MX_seq16_1_VE250_flipped.json,278689,479028,25,Man
59,154419,final-intermixed-textured,v2,jsons/MX_seq16_1_VE250_flipped.json,http://54.235.29.9/FacialAge/BNav_EC2/DepthDuration/MX_fS_VE_MTurk/MX_fS_HTML.html#308,308,1920,1080,1920,1080,0-31-2024,19-9-18,60,VR_target_stimuli/s8_1.3x_3.1_345_BC.png,250,1.3x,3.1,2.0,1560,253,meters,jsons/MX_seq16_1_VE250_flipped.json,278689,479028,25,Man
