,subjID,experimentName,versionName,sequenceName,url,selected_row,windowWidth,windowHeight,screenWidth,screenHeight,startDate,startTime,trial,stimulus,duration,scale,actual_depth,depth_estimate,trial_RT,log_sceneDuration,unitSelection,seq_filepath,experimentTime,totalTime,age,gender
0,166406,final-intermixed-textured,v2,jsons/MX_seq22_1_VE250_flipped.json,http://54.235.29.9/FacialAge/BNav_EC2/DepthDuration/MX_fS_VE_MTurk/MX_fS_HTML.html#30,30,1474,734,1536,864,0-31-2024,12-42-56,1,VR_target_stimuli/s20_1.3x_4.99_412_BC.png,250,1.3x,4.99,0,4726,249,meters,jsons/MX_seq22_1_VE250_flipped.json,286415,613519,29,Woman
1,166406,final-intermixed-textured,v2,jsons/MX_seq22_1_VE250_flipped.json,http://54.235.29.9/FacialAge/BNav_EC2/DepthDuration/MX_fS_VE_MTurk/MX_fS_HTML.html#30,30,1474,734,1536,864,0-31-2024,12-42-56,2,VR_target_stimuli/s31_0.75x_4.96_329.png,250,0.75x,4.96,0,5787,253,meters,jsons/MX_seq22_1_VE250_flipped.json,286415,613519,29,Woman
2,166406,final-intermixed-textured,v2,jsons/MX_seq22_1_VE250_flipped.json,http://54.235.29.9/FacialAge/BNav_EC2/DepthDuration/MX_fS_VE_MTurk/MX_fS_HTML.html#30,30,1474,734,1536,864,0-31-2024,12-42-56,3,VR_target_stimuli/s33_1x_3.1_366_BC.png,250,1x,3.1,1,4218,242,meters,jsons/MX_seq22_1_VE250_flipped.json,286415,613519,29,Woman
3,166406,final-intermixed-textured,v2,jsons/MX_seq22_1_VE250_flipped.json,http://54.235.29.9/FacialAge/BNav_EC2/DepthDuration/MX_fS_VE_MTurk/MX_fS_HTML.html#30,30,1474,734,1536,864,0-31-2024,12-42-56,4,VR_target_stimuli/s52_0.75x_3.2_270_BC.png,250,0.75x,3.2,0,5863,250,meters,jsons/MX_seq22_1_VE250_flipped.json,286415,613519,29,Woman
4,166406,final-intermixed-textured,v2,jsons/MX_seq22_1_VE250_flipped.json,http://54.235.29.9/FacialAge/BNav_EC2/DepthDuration/MX_fS_VE_MTurk/MX_fS_HTML.html#30,30,1474,734,1536,864,0-31-2024,12-42-56,5,VR_target_stimuli/s32_1.3x_1.5_224.png,250,1.3x,1.5,0,3563,238,meters,jsons/MX_seq22_1_VE250_flipped.json,286415,613519,29,Woman
5,166406,final-intermixed-textured,v2,jsons/MX_seq22_1_VE250_flipped.json,http://54.235.29.9/FacialAge/BNav_EC2/DepthDuration/MX_fS_VE_MTurk/MX_fS_HTML.html#30,30,1474,734,1536,864,0-31-2024,12-42-56,6,VR_target_stimuli/s18_1x_2.25_353.png,250,1x,2.25,0,17479,233,meters,jsons/MX_seq22_1_VE250_flipped.json,286415,613519,29,Woman
6,166406,final-intermixed-textured,v2,jsons/MX_seq22_1_VE250_flipped.json,http://54.235.29.9/FacialAge/BNav_EC2/DepthDuration/MX_fS_VE_MTurk/MX_fS_HTML.html#30,30,1474,734,1536,864,0-31-2024,12-42-56,7,catch_stimuli/c0_BC.png,250,,,2,4827,259,meters,jsons/MX_seq22_1_VE250_flipped.json,286415,613519,29,Woman
7,166406,final-intermixed-textured,v2,jsons/MX_seq22_1_VE250_flipped.json,http://54.235.29.9/FacialAge/BNav_EC2/DepthDuration/MX_fS_VE_MTurk/MX_fS_HTML.html#30,30,1474,734,1536,864,0-31-2024,12-42-56,8,VR_target_stimuli/s39_1x_1_207.png,250,1x,1.0,0,2467,241,meters,jsons/MX_seq22_1_VE250_flipped.json,286415,613519,29,Woman
8,166406,final-intermixed-textured,v2,jsons/MX_seq22_1_VE250_flipped.json,http://54.235.29.9/FacialAge/BNav_EC2/DepthDuration/MX_fS_VE_MTurk/MX_fS_HTML.html#30,30,1474,734,1536,864,0-31-2024,12-42-56,9,VR_target_stimuli/s51_0.75x_3.64_460_BC.png,250,0.75x,3.64,1,3893,267,meters,jsons/MX_seq22_1_VE250_flipped.json,286415,613519,29,Woman
9,166406,final-intermixed-textured,v2,jsons/MX_seq22_1_VE250_flipped.json,http://54.235.29.9/FacialAge/BNav_EC2/DepthDuration/MX_fS_VE_MTurk/MX_fS_HTML.html#30,30,1474,734,1536,864,0-31-2024,12-42-56,10,VR_target_stimuli/s43_1.3x_2.2_363_BC.png,250,1.3x,2.2,2,5005,255,meters,jsons/MX_seq22_1_VE250_flipped.json,286415,613519,29,Woman
10,166406,final-intermixed-textured,v2,jsons/MX_seq22_1_VE250_flipped.json,http://54.235.29.9/FacialAge/BNav_EC2/DepthDuration/MX_fS_VE_MTurk/MX_fS_HTML.html#30,30,1474,734,1536,864,0-31-2024,12-42-56,11,VR_target_stimuli/s24_0.75x_3.3_344.png,250,0.75x,3.3,0,2938,252,meters,jsons/MX_seq22_1_VE250_flipped.json,286415,613519,29,Woman
11,166406,final-intermixed-textured,v2,jsons/MX_seq22_1_VE250_flipped.json,http://54.235.29.9/FacialAge/BNav_EC2/DepthDuration/MX_fS_VE_MTurk/MX_fS_HTML.html#30,30,1474,734,1536,864,0-31-2024,12-42-56,12,VR_target_stimuli/s10_1x_2.7_324_BC.png,250,1x,2.7,0,6203,249,meters,jsons/MX_seq22_1_VE250_flipped.json,286415,613519,29,Woman
12,166406,final-intermixed-textured,v2,jsons/MX_seq22_1_VE250_flipped.json,http://54.235.29.9/FacialAge/BNav_EC2/DepthDuration/MX_fS_VE_MTurk/MX_fS_HTML.html#30,30,1474,734,1536,864,0-31-2024,12-42-56,13,VR_target_stimuli/s36_1.3x_4.1_442.png,250,1.3x,4.1,0,3568,241,meters,jsons/MX_seq22_1_VE250_flipped.json,286415,613519,29,Woman
13,166406,final-intermixed-textured,v2,jsons/MX_seq22_1_VE250_flipped.json,http://54.235.29.9/FacialAge/BNav_EC2/DepthDuration/MX_fS_VE_MTurk/MX_fS_HTML.html#30,30,1474,734,1536,864,0-31-2024,12-42-56,14,VR_target_stimuli/s40_1x_1.2_319.png,250,1x,1.2,1,5893,248,meters,jsons/MX_seq22_1_VE250_flipped.json,286415,613519,29,Woman
14,166406,final-intermixed-textured,v2,jsons/MX_seq22_1_VE250_flipped.json,http://54.235.29.9/FacialAge/BNav_EC2/DepthDuration/MX_fS_VE_MTurk/MX_fS_HTML.html#30,30,1474,734,1536,864,0-31-2024,12-42-56,15,VR_target_stimuli/s41_0.75x_2.1_281_BC.png,250,0.75x,2.1,0,2388,240,meters,jsons/MX_seq22_1_VE250_flipped.json,286415,613519,29,Woman
15,166406,final-intermixed-textured,v2,jsons/MX_seq22_1_VE250_flipped.json,http://54.235.29.9/FacialAge/BNav_EC2/DepthDuration/MX_fS_VE_MTurk/MX_fS_HTML.html#30,30,1474,734,1536,864,0-31-2024,12-42-56,16,VR_target_stimuli/s45_1.3x_3.5_377_BC.png,250,1.3x,3.5,3,7266,246,meters,jsons/MX_seq22_1_VE250_flipped.json,286415,613519,29,Woman
16,166406,final-intermixed-textured,v2,jsons/MX_seq22_1_VE250_flipped.json,http://54.235.29.9/FacialAge/BNav_EC2/DepthDuration/MX_fS_VE_MTurk/MX_fS_HTML.html#30,30,1474,734,1536,864,0-31-2024,12-42-56,17,catch_stimuli/c1_BC.png,250,,,6,5693,242,meters,jsons/MX_seq22_1_VE250_flipped.json,286415,613519,29,Woman
17,166406,final-intermixed-textured,v2,jsons/MX_seq22_1_VE250_flipped.json,http://54.235.29.9/FacialAge/BNav_EC2/DepthDuration/MX_fS_VE_MTurk/MX_fS_HTML.html#30,30,1474,734,1536,864,0-31-2024,12-42-56,18,VR_target_stimuli/s23_1.3x_3.65_354.png,250,1.3x,3.65,0,2311,239,meters,jsons/MX_seq22_1_VE250_flipped.json,286415,613519,29,Woman
18,166406,final-intermixed-textured,v2,jsons/MX_seq22_1_VE250_flipped.json,http://54.235.29.9/FacialAge/BNav_EC2/DepthDuration/MX_fS_VE_MTurk/MX_fS_HTML.html#30,30,1474,734,1536,864,0-31-2024,12-42-56,19,VR_target_stimuli/s26_1x_4_433_BC.png,250,1x,4.0,4,7333,241,meters,jsons/MX_seq22_1_VE250_flipped.json,286415,613519,29,Woman
19,166406,final-intermixed-textured,v2,jsons/MX_seq22_1_VE250_flipped.json,http://54.235.29.9/FacialAge/BNav_EC2/DepthDuration/MX_fS_VE_MTurk/MX_fS_HTML.html#30,30,1474,734,1536,864,0-31-2024,12-42-56,20,VR_target_stimuli/s12_0.75x_3.1_364.png,250,0.75x,3.1,0,2428,254,meters,jsons/MX_seq22_1_VE250_flipped.json,286415,613519,29,Woman
20,166406,final-intermixed-textured,v2,jsons/MX_seq22_1_VE250_flipped.json,http://54.235.29.9/FacialAge/BNav_EC2/DepthDuration/MX_fS_VE_MTurk/MX_fS_HTML.html#30,30,1474,734,1536,864,0-31-2024,12-42-56,21,VR_target_stimuli/s30_1x_2.3_334_BC.png,250,1x,2.3,2,7539,239,meters,jsons/MX_seq22_1_VE250_flipped.json,286415,613519,29,Woman
21,166406,final-intermixed-textured,v2,jsons/MX_seq22_1_VE250_flipped.json,http://54.235.29.9/FacialAge/BNav_EC2/DepthDuration/MX_fS_VE_MTurk/MX_fS_HTML.html#30,30,1474,734,1536,864,0-31-2024,12-42-56,22,VR_target_stimuli/s16_1.3x_1_223.png,250,1.3x,1.0,0,3883,235,meters,jsons/MX_seq22_1_VE250_flipped.json,286415,613519,29,Woman
22,166406,final-intermixed-textured,v2,jsons/MX_seq22_1_VE250_flipped.json,http://54.235.29.9/FacialAge/BNav_EC2/DepthDuration/MX_fS_VE_MTurk/MX_fS_HTML.html#30,30,1474,734,1536,864,0-31-2024,12-42-56,23,VR_target_stimuli/s17_0.75x_1.8_285.png,250,0.75x,1.8,2,3613,259,meters,jsons/MX_seq22_1_VE250_flipped.json,286415,613519,29,Woman
23,166406,final-intermixed-textured,v2,jsons/MX_seq22_1_VE250_flipped.json,http://54.235.29.9/FacialAge/BNav_EC2/DepthDuration/MX_fS_VE_MTurk/MX_fS_HTML.html#30,30,1474,734,1536,864,0-31-2024,12-42-56,24,VR_target_stimuli/s5_1.3x_4_393_BC.png,250,1.3x,4.0,3,4652,250,meters,jsons/MX_seq22_1_VE250_flipped.json,286415,613519,29,Woman
24,166406,final-intermixed-textured,v2,jsons/MX_seq22_1_VE250_flipped.json,http://54.235.29.9/FacialAge/BNav_EC2/DepthDuration/MX_fS_VE_MTurk/MX_fS_HTML.html#30,30,1474,734,1536,864,0-31-2024,12-42-56,25,VR_target_stimuli/s37_1x_3.3_563.png,250,1x,3.3,3,7219,262,meters,jsons/MX_seq22_1_VE250_flipped.json,286415,613519,29,Woman
25,166406,final-intermixed-textured,v2,jsons/MX_seq22_1_VE250_flipped.json,http://54.235.29.9/FacialAge/BNav_EC2/DepthDuration/MX_fS_VE_MTurk/MX_fS_HTML.html#30,30,1474,734,1536,864,0-31-2024,12-42-56,26,catch_stimuli/c2_BC.png,250,,,6,6540,259,meters,jsons/MX_seq22_1_VE250_flipped.json,286415,613519,29,Woman
26,166406,final-intermixed-textured,v2,jsons/MX_seq22_1_VE250_flipped.json,http://54.235.29.9/FacialAge/BNav_EC2/DepthDuration/MX_fS_VE_MTurk/MX_fS_HTML.html#30,30,1474,734,1536,864,0-31-2024,12-42-56,27,VR_target_stimuli/s46_0.75x_2.42_343_BC.png,250,0.75x,2.42,0,2766,252,meters,jsons/MX_seq22_1_VE250_flipped.json,286415,613519,29,Woman
27,166406,final-intermixed-textured,v2,jsons/MX_seq22_1_VE250_flipped.json,http://54.235.29.9/FacialAge/BNav_EC2/DepthDuration/MX_fS_VE_MTurk/MX_fS_HTML.html#30,30,1474,734,1536,864,0-31-2024,12-42-56,28,VR_target_stimuli/s22_0.75x_4.29_348.png,250,0.75x,4.29,1,2538,250,meters,jsons/MX_seq22_1_VE250_flipped.json,286415,613519,29,Woman
28,166406,final-intermixed-textured,v2,jsons/MX_seq22_1_VE250_flipped.json,http://54.235.29.9/FacialAge/BNav_EC2/DepthDuration/MX_fS_VE_MTurk/MX_fS_HTML.html#30,30,1474,734,1536,864,0-31-2024,12-42-56,29,VR_target_stimuli/s42_1.3x_3.2_305_BC.png,250,1.3x,3.2,2,2445,256,meters,jsons/MX_seq22_1_VE250_flipped.json,286415,613519,29,Woman
29,166406,final-intermixed-textured,v2,jsons/MX_seq22_1_VE250_flipped.json,http://54.235.29.9/FacialAge/BNav_EC2/DepthDuration/MX_fS_VE_MTurk/MX_fS_HTML.html#30,30,1474,734,1536,864,0-31-2024,12-42-56,30,VR_target_stimuli/s25_1x_1.4_290.png,250,1x,1.4,0,2343,245,meters,jsons/MX_seq22_1_VE250_flipped.json,286415,613519,29,Woman
30,166406,final-intermixed-textured,v2,jsons/MX_seq22_1_VE250_flipped.json,http://54.235.29.9/FacialAge/BNav_EC2/DepthDuration/MX_fS_VE_MTurk/MX_fS_HTML.html#30,30,1474,734,1536,864,0-31-2024,12-42-56,31,VR_target_stimuli/s50_0.75x_4.53_517_BC.png,250,0.75x,4.53,0,2483,233,meters,jsons/MX_seq22_1_VE250_flipped.json,286415,613519,29,Woman
31,166406,final-intermixed-textured,v2,jsons/MX_seq22_1_VE250_flipped.json,http://54.235.29.9/FacialAge/BNav_EC2/DepthDuration/MX_fS_VE_MTurk/MX_fS_HTML.html#30,30,1474,734,1536,864,0-31-2024,12-42-56,32,VR_target_stimuli/s53_1x_1.6_387_BC.png,250,1x,1.6,1,4120,248,meters,jsons/MX_seq22_1_VE250_flipped.json,286415,613519,29,Woman
32,166406,final-intermixed-textured,v2,jsons/MX_seq22_1_VE250_flipped.json,http://54.235.29.9/FacialAge/BNav_EC2/DepthDuration/MX_fS_VE_MTurk/MX_fS_HTML.html#30,30,1474,734,1536,864,0-31-2024,12-42-56,33,VR_target_stimuli/s38_1.3x_3.55_358.png,250,1.3x,3.55,0,2351,239,meters,jsons/MX_seq22_1_VE250_flipped.json,286415,613519,29,Woman
33,166406,final-intermixed-textured,v2,jsons/MX_seq22_1_VE250_flipped.json,http://54.235.29.9/FacialAge/BNav_EC2/DepthDuration/MX_fS_VE_MTurk/MX_fS_HTML.html#30,30,1474,734,1536,864,0-31-2024,12-42-56,34,catch_stimuli/c3_BC.png,250,,,2,5420,239,meters,jsons/MX_seq22_1_VE250_flipped.json,286415,613519,29,Woman
34,166406,final-intermixed-textured,v2,jsons/MX_seq22_1_VE250_flipped.json,http://54.235.29.9/FacialAge/BNav_EC2/DepthDuration/MX_fS_VE_MTurk/MX_fS_HTML.html#30,30,1474,734,1536,864,0-31-2024,12-42-56,35,VR_target_stimuli/s9_1x_1.2_263_BC.png,250,1x,1.2,0,2179,241,meters,jsons/MX_seq22_1_VE250_flipped.json,286415,613519,29,Woman
35,166406,final-intermixed-textured,v2,jsons/MX_seq22_1_VE250_flipped.json,http://54.235.29.9/FacialAge/BNav_EC2/DepthDuration/MX_fS_VE_MTurk/MX_fS_HTML.html#30,30,1474,734,1536,864,0-31-2024,12-42-56,36,VR_target_stimuli/s44_0.75x_4.4_314_BC.png,250,0.75x,4.4,0,2312,255,meters,jsons/MX_seq22_1_VE250_flipped.json,286415,613519,29,Woman
36,166406,final-intermixed-textured,v2,jsons/MX_seq22_1_VE250_flipped.json,http://54.235.29.9/FacialAge/BNav_EC2/DepthDuration/MX_fS_VE_MTurk/MX_fS_HTML.html#30,30,1474,734,1536,864,0-31-2024,12-42-56,37,VR_target_stimuli/s3_1.3x_5_390.png,250,1.3x,5.0,1,2927,254,meters,jsons/MX_seq22_1_VE250_flipped.json,286415,613519,29,Woman
37,166406,final-intermixed-textured,v2,jsons/MX_seq22_1_VE250_flipped.json,http://54.235.29.9/FacialAge/BNav_EC2/DepthDuration/MX_fS_VE_MTurk/MX_fS_HTML.html#30,30,1474,734,1536,864,0-31-2024,12-42-56,38,VR_target_stimuli/s1_1.3x_1.7_261_BC.png,250,1.3x,1.7,0,2912,247,meters,jsons/MX_seq22_1_VE250_flipped.json,286415,613519,29,Woman
38,166406,final-intermixed-textured,v2,jsons/MX_seq22_1_VE250_flipped.json,http://54.235.29.9/FacialAge/BNav_EC2/DepthDuration/MX_fS_VE_MTurk/MX_fS_HTML.html#30,30,1474,734,1536,864,0-31-2024,12-42-56,39,VR_target_stimuli/s11_1x_5_361.png,250,1x,5.0,1,2883,266,meters,jsons/MX_seq22_1_VE250_flipped.json,286415,613519,29,Woman
39,166406,final-intermixed-textured,v2,jsons/MX_seq22_1_VE250_flipped.json,http://54.235.29.9/FacialAge/BNav_EC2/DepthDuration/MX_fS_VE_MTurk/MX_fS_HTML.html#30,30,1474,734,1536,864,0-31-2024,12-42-56,40,VR_target_stimuli/s2_0.75x_2.7_384.png,250,0.75x,2.7,0,2042,244,meters,jsons/MX_seq22_1_VE250_flipped.json,286415,613519,29,Woman
40,166406,final-intermixed-textured,v2,jsons/MX_seq22_1_VE250_flipped.json,http://54.235.29.9/FacialAge/BNav_EC2/DepthDuration/MX_fS_VE_MTurk/MX_fS_HTML.html#30,30,1474,734,1536,864,0-31-2024,12-42-56,41,VR_target_stimuli/s6_1x_2.1_293.png,250,1x,2.1,1,2064,257,meters,jsons/MX_seq22_1_VE250_flipped.json,286415,613519,29,Woman
41,166406,final-intermixed-textured,v2,jsons/MX_seq22_1_VE250_flipped.json,http://54.235.29.9/FacialAge/BNav_EC2/DepthDuration/MX_fS_VE_MTurk/MX_fS_HTML.html#30,30,1474,734,1536,864,0-31-2024,12-42-56,42,VR_target_stimuli/s0_1.3x_2.6_356.png,250,1.3x,2.6,3,4737,249,meters,jsons/MX_seq22_1_VE250_flipped.json,286415,613519,29,Woman
42,166406,final-intermixed-textured,v2,jsons/MX_seq22_1_VE250_flipped.json,http://54.235.29.9/FacialAge/BNav_EC2/DepthDuration/MX_fS_VE_MTurk/MX_fS_HTML.html#30,30,1474,734,1536,864,0-31-2024,12-42-56,43,VR_target_stimuli/s34_0.75x_2.8_269.png,250,0.75x,2.8,0,2245,239,meters,jsons/MX_seq22_1_VE250_flipped.json,286415,613519,29,Woman
43,166406,final-intermixed-textured,v2,jsons/MX_seq22_1_VE250_flipped.json,http://54.235.29.9/FacialAge/BNav_EC2/DepthDuration/MX_fS_VE_MTurk/MX_fS_HTML.html#30,30,1474,734,1536,864,0-31-2024,12-42-56,44,VR_target_stimuli/s13_1.3x_2.4_313_BC.png,250,1.3x,2.4,0,7220,254,meters,jsons/MX_seq22_1_VE250_flipped.json,286415,613519,29,Woman
44,166406,final-intermixed-textured,v2,jsons/MX_seq22_1_VE250_flipped.json,http://54.235.29.9/FacialAge/BNav_EC2/DepthDuration/MX_fS_VE_MTurk/MX_fS_HTML.html#30,30,1474,734,1536,864,0-31-2024,12-42-56,45,catch_stimuli/c4_BC.png,250,,,3,6149,277,meters,jsons/MX_seq22_1_VE250_flipped.json,286415,613519,29,Woman
45,166406,final-intermixed-textured,v2,jsons/MX_seq22_1_VE250_flipped.json,http://54.235.29.9/FacialAge/BNav_EC2/DepthDuration/MX_fS_VE_MTurk/MX_fS_HTML.html#30,30,1474,734,1536,864,0-31-2024,12-42-56,46,VR_target_stimuli/s14_1x_ 3.83_357_BC.png,250,1x,3.83,0,2636,244,meters,jsons/MX_seq22_1_VE250_flipped.json,286415,613519,29,Woman
46,166406,final-intermixed-textured,v2,jsons/MX_seq22_1_VE250_flipped.json,http://54.235.29.9/FacialAge/BNav_EC2/DepthDuration/MX_fS_VE_MTurk/MX_fS_HTML.html#30,30,1474,734,1536,864,0-31-2024,12-42-56,47,VR_target_stimuli/s47_0.75x_3.45_366_BC.png,250,0.75x,3.45,0,4487,250,meters,jsons/MX_seq22_1_VE250_flipped.json,286415,613519,29,Woman
47,166406,final-intermixed-textured,v2,jsons/MX_seq22_1_VE250_flipped.json,http://54.235.29.9/FacialAge/BNav_EC2/DepthDuration/MX_fS_VE_MTurk/MX_fS_HTML.html#30,30,1474,734,1536,864,0-31-2024,12-42-56,48,VR_target_stimuli/s29_0.75x_1.3_246.png,250,0.75x,1.3,0,4839,242,meters,jsons/MX_seq22_1_VE250_flipped.json,286415,613519,29,Woman
48,166406,final-intermixed-textured,v2,jsons/MX_seq22_1_VE250_flipped.json,http://54.235.29.9/FacialAge/BNav_EC2/DepthDuration/MX_fS_VE_MTurk/MX_fS_HTML.html#30,30,1474,734,1536,864,0-31-2024,12-42-56,49,VR_target_stimuli/s28_1.3x_3.2_365_BC.png,250,1.3x,3.2,0,2261,239,meters,jsons/MX_seq22_1_VE250_flipped.json,286415,613519,29,Woman
49,166406,final-intermixed-textured,v2,jsons/MX_seq22_1_VE250_flipped.json,http://54.235.29.9/FacialAge/BNav_EC2/DepthDuration/MX_fS_VE_MTurk/MX_fS_HTML.html#30,30,1474,734,1536,864,0-31-2024,12-42-56,50,VR_target_stimuli/s48_1x_2.55_256_BC.png,250,1x,2.55,0,8591,255,meters,jsons/MX_seq22_1_VE250_flipped.json,286415,613519,29,Woman
50,166406,final-intermixed-textured,v2,jsons/MX_seq22_1_VE250_flipped.json,http://54.235.29.9/FacialAge/BNav_EC2/DepthDuration/MX_fS_VE_MTurk/MX_fS_HTML.html#30,30,1474,734,1536,864,0-31-2024,12-42-56,51,VR_target_stimuli/s19_1.3x_1.21_270.png,250,1.3x,1.21,0,2894,251,meters,jsons/MX_seq22_1_VE250_flipped.json,286415,613519,29,Woman
51,166406,final-intermixed-textured,v2,jsons/MX_seq22_1_VE250_flipped.json,http://54.235.29.9/FacialAge/BNav_EC2/DepthDuration/MX_fS_VE_MTurk/MX_fS_HTML.html#30,30,1474,734,1536,864,0-31-2024,12-42-56,52,VR_target_stimuli/s21_0.75x_4.22_374_BC.png,250,0.75x,4.22,0,3260,239,meters,jsons/MX_seq22_1_VE250_flipped.json,286415,613519,29,Woman
52,166406,final-intermixed-textured,v2,jsons/MX_seq22_1_VE250_flipped.json,http://54.235.29.9/FacialAge/BNav_EC2/DepthDuration/MX_fS_VE_MTurk/MX_fS_HTML.html#30,30,1474,734,1536,864,0-31-2024,12-42-56,53,catch_stimuli/c5_BC.png,250,,,1,10962,262,meters,jsons/MX_seq22_1_VE250_flipped.json,286415,613519,29,Woman
53,166406,final-intermixed-textured,v2,jsons/MX_seq22_1_VE250_flipped.json,http://54.235.29.9/FacialAge/BNav_EC2/DepthDuration/MX_fS_VE_MTurk/MX_fS_HTML.html#30,30,1474,734,1536,864,0-31-2024,12-42-56,54,VR_target_stimuli/s8_1x_3.1_332.png,250,1x,3.1,0,2278,254,meters,jsons/MX_seq22_1_VE250_flipped.json,286415,613519,29,Woman
54,166406,final-intermixed-textured,v2,jsons/MX_seq22_1_VE250_flipped.json,http://54.235.29.9/FacialAge/BNav_EC2/DepthDuration/MX_fS_VE_MTurk/MX_fS_HTML.html#30,30,1474,734,1536,864,0-31-2024,12-42-56,55,VR_target_stimuli/s27_0.75x_1.76_243_BC.png,250,0.75x,1.76,0,2299,252,meters,jsons/MX_seq22_1_VE250_flipped.json,286415,613519,29,Woman
55,166406,final-intermixed-textured,v2,jsons/MX_seq22_1_VE250_flipped.json,http://54.235.29.9/FacialAge/BNav_EC2/DepthDuration/MX_fS_VE_MTurk/MX_fS_HTML.html#30,30,1474,734,1536,864,0-31-2024,12-42-56,56,VR_target_stimuli/s15_1.3x_4.2_389_BC.png,250,1.3x,4.2,0,2747,246,meters,jsons/MX_seq22_1_VE250_flipped.json,286415,613519,29,Woman
56,166406,final-intermixed-textured,v2,jsons/MX_seq22_1_VE250_flipped.json,http://54.235.29.9/FacialAge/BNav_EC2/DepthDuration/MX_fS_VE_MTurk/MX_fS_HTML.html#30,30,1474,734,1536,864,0-31-2024,12-42-56,57,VR_target_stimuli/s4_1x_1.4_313_BC.png,250,1x,1.4,0,2217,260,meters,jsons/MX_seq22_1_VE250_flipped.json,286415,613519,29,Woman
57,166406,final-intermixed-textured,v2,jsons/MX_seq22_1_VE250_flipped.json,http://54.235.29.9/FacialAge/BNav_EC2/DepthDuration/MX_fS_VE_MTurk/MX_fS_HTML.html#30,30,1474,734,1536,864,0-31-2024,12-42-56,58,VR_target_stimuli/s35_1x_2_331.png,250,1x,2.0,0,1882,246,meters,jsons/MX_seq22_1_VE250_flipped.json,286415,613519,29,Woman
58,166406,final-intermixed-textured,v2,jsons/MX_seq22_1_VE250_flipped.json,http://54.235.29.9/FacialAge/BNav_EC2/DepthDuration/MX_fS_VE_MTurk/MX_fS_HTML.html#30,30,1474,734,1536,864,0-31-2024,12-42-56,59,VR_target_stimuli/s49_0.75x_4.67_328.png,250,0.75x,4.67,0,1879,259,meters,jsons/MX_seq22_1_VE250_flipped.json,286415,613519,29,Woman
59,166406,final-intermixed-textured,v2,jsons/MX_seq22_1_VE250_flipped.json,http://54.235.29.9/FacialAge/BNav_EC2/DepthDuration/MX_fS_VE_MTurk/MX_fS_HTML.html#30,30,1474,734,1536,864,0-31-2024,12-42-56,60,VR_target_stimuli/s7_1.3x_1.5_256.png,250,1.3x,1.5,0,3165,244,meters,jsons/MX_seq22_1_VE250_flipped.json,286415,613519,29,Woman
