,subjID,experimentName,versionName,sequenceName,url,selected_row,windowWidth,windowHeight,screenWidth,screenHeight,startDate,startTime,trial,stimulus,duration,scale,actual_depth,depth_estimate,trial_RT,log_sceneDuration,unitSelection,seq_filepath,experimentTime,totalTime,age,gender
0,185041,final-intermixed-textured,v2,jsons/MX_seq28_1_VE250_flipped.json,http://54.235.29.9/FacialAge/BNav_EC2/DepthDuration/MX_fS_VE_MTurk/MX_fS_HTML.html#6,6,1366,607,1366,768,0-31-2024,12-37-2,1,VR_target_stimuli/s39_1.3x_1_208_BC.png,250,1.3x,1.0,0,5165,238,meters,jsons/MX_seq28_1_VE250_flipped.json,273532,478845,42,Woman
1,185041,final-intermixed-textured,v2,jsons/MX_seq28_1_VE250_flipped.json,http://54.235.29.9/FacialAge/BNav_EC2/DepthDuration/MX_fS_VE_MTurk/MX_fS_HTML.html#6,6,1366,607,1366,768,0-31-2024,12-37-2,2,VR_target_stimuli/s51_0.75x_3.64_460_BC.png,250,0.75x,3.64,0,5259,246,meters,jsons/MX_seq28_1_VE250_flipped.json,273532,478845,42,Woman
2,185041,final-intermixed-textured,v2,jsons/MX_seq28_1_VE250_flipped.json,http://54.235.29.9/FacialAge/BNav_EC2/DepthDuration/MX_fS_VE_MTurk/MX_fS_HTML.html#6,6,1366,607,1366,768,0-31-2024,12-37-2,3,VR_target_stimuli/s43_1x_2.2_354.png,250,1x,2.2,0,4359,244,meters,jsons/MX_seq28_1_VE250_flipped.json,273532,478845,42,Woman
3,185041,final-intermixed-textured,v2,jsons/MX_seq28_1_VE250_flipped.json,http://54.235.29.9/FacialAge/BNav_EC2/DepthDuration/MX_fS_VE_MTurk/MX_fS_HTML.html#6,6,1366,607,1366,768,0-31-2024,12-37-2,4,VR_target_stimuli/s24_0.75x_3.3_344.png,250,0.75x,3.3,0,4486,246,meters,jsons/MX_seq28_1_VE250_flipped.json,273532,478845,42,Woman
4,185041,final-intermixed-textured,v2,jsons/MX_seq28_1_VE250_flipped.json,http://54.235.29.9/FacialAge/BNav_EC2/DepthDuration/MX_fS_VE_MTurk/MX_fS_HTML.html#6,6,1366,607,1366,768,0-31-2024,12-37-2,5,VR_target_stimuli/s10_1.3x_2.7_325.png,250,1.3x,2.7,0,4577,246,meters,jsons/MX_seq28_1_VE250_flipped.json,273532,478845,42,Woman
5,185041,final-intermixed-textured,v2,jsons/MX_seq28_1_VE250_flipped.json,http://54.235.29.9/FacialAge/BNav_EC2/DepthDuration/MX_fS_VE_MTurk/MX_fS_HTML.html#6,6,1366,607,1366,768,0-31-2024,12-37-2,6,VR_target_stimuli/s36_1x_4.1_423_BC.png,250,1x,4.1,0,4133,238,meters,jsons/MX_seq28_1_VE250_flipped.json,273532,478845,42,Woman
6,185041,final-intermixed-textured,v2,jsons/MX_seq28_1_VE250_flipped.json,http://54.235.29.9/FacialAge/BNav_EC2/DepthDuration/MX_fS_VE_MTurk/MX_fS_HTML.html#6,6,1366,607,1366,768,0-31-2024,12-37-2,7,catch_stimuli/c0_BC.png,250,,,3,6579,246,meters,jsons/MX_seq28_1_VE250_flipped.json,273532,478845,42,Woman
7,185041,final-intermixed-textured,v2,jsons/MX_seq28_1_VE250_flipped.json,http://54.235.29.9/FacialAge/BNav_EC2/DepthDuration/MX_fS_VE_MTurk/MX_fS_HTML.html#6,6,1366,607,1366,768,0-31-2024,12-37-2,8,VR_target_stimuli/s40_1x_1.2_319_BC.png,250,1x,1.2,0,3958,257,meters,jsons/MX_seq28_1_VE250_flipped.json,273532,478845,42,Woman
8,185041,final-intermixed-textured,v2,jsons/MX_seq28_1_VE250_flipped.json,http://54.235.29.9/FacialAge/BNav_EC2/DepthDuration/MX_fS_VE_MTurk/MX_fS_HTML.html#6,6,1366,607,1366,768,0-31-2024,12-37-2,9,VR_target_stimuli/s41_0.75x_2.1_281_BC.png,250,0.75x,2.1,0,3962,238,meters,jsons/MX_seq28_1_VE250_flipped.json,273532,478845,42,Woman
9,185041,final-intermixed-textured,v2,jsons/MX_seq28_1_VE250_flipped.json,http://54.235.29.9/FacialAge/BNav_EC2/DepthDuration/MX_fS_VE_MTurk/MX_fS_HTML.html#6,6,1366,607,1366,768,0-31-2024,12-37-2,10,VR_target_stimuli/s45_1.3x_3.5_377_BC.png,250,1.3x,3.5,0,3804,243,meters,jsons/MX_seq28_1_VE250_flipped.json,273532,478845,42,Woman
10,185041,final-intermixed-textured,v2,jsons/MX_seq28_1_VE250_flipped.json,http://54.235.29.9/FacialAge/BNav_EC2/DepthDuration/MX_fS_VE_MTurk/MX_fS_HTML.html#6,6,1366,607,1366,768,0-31-2024,12-37-2,11,VR_target_stimuli/s23_0.75x_3.65_351.png,250,0.75x,3.65,2,5137,236,meters,jsons/MX_seq28_1_VE250_flipped.json,273532,478845,42,Woman
11,185041,final-intermixed-textured,v2,jsons/MX_seq28_1_VE250_flipped.json,http://54.235.29.9/FacialAge/BNav_EC2/DepthDuration/MX_fS_VE_MTurk/MX_fS_HTML.html#6,6,1366,607,1366,768,0-31-2024,12-37-2,12,VR_target_stimuli/s26_1x_4_433.png,250,1x,4.0,3,4035,240,meters,jsons/MX_seq28_1_VE250_flipped.json,273532,478845,42,Woman
12,185041,final-intermixed-textured,v2,jsons/MX_seq28_1_VE250_flipped.json,http://54.235.29.9/FacialAge/BNav_EC2/DepthDuration/MX_fS_VE_MTurk/MX_fS_HTML.html#6,6,1366,607,1366,768,0-31-2024,12-37-2,13,VR_target_stimuli/s12_1.3x_3.1_375.png,250,1.3x,3.1,3,7551,255,meters,jsons/MX_seq28_1_VE250_flipped.json,273532,478845,42,Woman
13,185041,final-intermixed-textured,v2,jsons/MX_seq28_1_VE250_flipped.json,http://54.235.29.9/FacialAge/BNav_EC2/DepthDuration/MX_fS_VE_MTurk/MX_fS_HTML.html#6,6,1366,607,1366,768,0-31-2024,12-37-2,14,VR_target_stimuli/s30_1x_2.3_334.png,250,1x,2.3,0,4233,251,meters,jsons/MX_seq28_1_VE250_flipped.json,273532,478845,42,Woman
14,185041,final-intermixed-textured,v2,jsons/MX_seq28_1_VE250_flipped.json,http://54.235.29.9/FacialAge/BNav_EC2/DepthDuration/MX_fS_VE_MTurk/MX_fS_HTML.html#6,6,1366,607,1366,768,0-31-2024,12-37-2,15,VR_target_stimuli/s16_0.75x_1_217.png,250,0.75x,1.0,0,4044,244,meters,jsons/MX_seq28_1_VE250_flipped.json,273532,478845,42,Woman
15,185041,final-intermixed-textured,v2,jsons/MX_seq28_1_VE250_flipped.json,http://54.235.29.9/FacialAge/BNav_EC2/DepthDuration/MX_fS_VE_MTurk/MX_fS_HTML.html#6,6,1366,607,1366,768,0-31-2024,12-37-2,16,VR_target_stimuli/s17_1.3x_1.8_300.png,250,1.3x,1.8,0,4470,238,meters,jsons/MX_seq28_1_VE250_flipped.json,273532,478845,42,Woman
16,185041,final-intermixed-textured,v2,jsons/MX_seq28_1_VE250_flipped.json,http://54.235.29.9/FacialAge/BNav_EC2/DepthDuration/MX_fS_VE_MTurk/MX_fS_HTML.html#6,6,1366,607,1366,768,0-31-2024,12-37-2,17,catch_stimuli/c1_BC.png,250,,,3,4527,255,meters,jsons/MX_seq28_1_VE250_flipped.json,273532,478845,42,Woman
17,185041,final-intermixed-textured,v2,jsons/MX_seq28_1_VE250_flipped.json,http://54.235.29.9/FacialAge/BNav_EC2/DepthDuration/MX_fS_VE_MTurk/MX_fS_HTML.html#6,6,1366,607,1366,768,0-31-2024,12-37-2,18,VR_target_stimuli/s5_1.3x_4_393_BC.png,250,1.3x,4.0,0,3681,250,meters,jsons/MX_seq28_1_VE250_flipped.json,273532,478845,42,Woman
18,185041,final-intermixed-textured,v2,jsons/MX_seq28_1_VE250_flipped.json,http://54.235.29.9/FacialAge/BNav_EC2/DepthDuration/MX_fS_VE_MTurk/MX_fS_HTML.html#6,6,1366,607,1366,768,0-31-2024,12-37-2,19,VR_target_stimuli/s37_1x_3.3_563_BC.png,250,1x,3.3,0,3618,239,meters,jsons/MX_seq28_1_VE250_flipped.json,273532,478845,42,Woman
19,185041,final-intermixed-textured,v2,jsons/MX_seq28_1_VE250_flipped.json,http://54.235.29.9/FacialAge/BNav_EC2/DepthDuration/MX_fS_VE_MTurk/MX_fS_HTML.html#6,6,1366,607,1366,768,0-31-2024,12-37-2,20,VR_target_stimuli/s46_0.75x_2.42_343_BC.png,250,0.75x,2.42,0,3440,254,meters,jsons/MX_seq28_1_VE250_flipped.json,273532,478845,42,Woman
20,185041,final-intermixed-textured,v2,jsons/MX_seq28_1_VE250_flipped.json,http://54.235.29.9/FacialAge/BNav_EC2/DepthDuration/MX_fS_VE_MTurk/MX_fS_HTML.html#6,6,1366,607,1366,768,0-31-2024,12-37-2,21,VR_target_stimuli/s22_1x_4.29_354_BC.png,250,1x,4.29,0,3580,240,meters,jsons/MX_seq28_1_VE250_flipped.json,273532,478845,42,Woman
21,185041,final-intermixed-textured,v2,jsons/MX_seq28_1_VE250_flipped.json,http://54.235.29.9/FacialAge/BNav_EC2/DepthDuration/MX_fS_VE_MTurk/MX_fS_HTML.html#6,6,1366,607,1366,768,0-31-2024,12-37-2,22,VR_target_stimuli/s42_1.3x_3.2_305.png,250,1.3x,3.2,5,4444,248,meters,jsons/MX_seq28_1_VE250_flipped.json,273532,478845,42,Woman
22,185041,final-intermixed-textured,v2,jsons/MX_seq28_1_VE250_flipped.json,http://54.235.29.9/FacialAge/BNav_EC2/DepthDuration/MX_fS_VE_MTurk/MX_fS_HTML.html#6,6,1366,607,1366,768,0-31-2024,12-37-2,23,VR_target_stimuli/s25_0.75x_1.4_281.png,250,0.75x,1.4,4,3664,253,meters,jsons/MX_seq28_1_VE250_flipped.json,273532,478845,42,Woman
23,185041,final-intermixed-textured,v2,jsons/MX_seq28_1_VE250_flipped.json,http://54.235.29.9/FacialAge/BNav_EC2/DepthDuration/MX_fS_VE_MTurk/MX_fS_HTML.html#6,6,1366,607,1366,768,0-31-2024,12-37-2,24,VR_target_stimuli/s50_1.3x_4.53_518_BC.png,250,1.3x,4.53,4,3636,245,meters,jsons/MX_seq28_1_VE250_flipped.json,273532,478845,42,Woman
24,185041,final-intermixed-textured,v2,jsons/MX_seq28_1_VE250_flipped.json,http://54.235.29.9/FacialAge/BNav_EC2/DepthDuration/MX_fS_VE_MTurk/MX_fS_HTML.html#6,6,1366,607,1366,768,0-31-2024,12-37-2,25,VR_target_stimuli/s53_1x_1.6_387.png,250,1x,1.6,0,3685,249,meters,jsons/MX_seq28_1_VE250_flipped.json,273532,478845,42,Woman
25,185041,final-intermixed-textured,v2,jsons/MX_seq28_1_VE250_flipped.json,http://54.235.29.9/FacialAge/BNav_EC2/DepthDuration/MX_fS_VE_MTurk/MX_fS_HTML.html#6,6,1366,607,1366,768,0-31-2024,12-37-2,26,catch_stimuli/c2_BC.png,250,,,4,3513,253,meters,jsons/MX_seq28_1_VE250_flipped.json,273532,478845,42,Woman
26,185041,final-intermixed-textured,v2,jsons/MX_seq28_1_VE250_flipped.json,http://54.235.29.9/FacialAge/BNav_EC2/DepthDuration/MX_fS_VE_MTurk/MX_fS_HTML.html#6,6,1366,607,1366,768,0-31-2024,12-37-2,27,VR_target_stimuli/s38_0.75x_3.55_346_BC.png,250,0.75x,3.55,4,4046,256,meters,jsons/MX_seq28_1_VE250_flipped.json,273532,478845,42,Woman
27,185041,final-intermixed-textured,v2,jsons/MX_seq28_1_VE250_flipped.json,http://54.235.29.9/FacialAge/BNav_EC2/DepthDuration/MX_fS_VE_MTurk/MX_fS_HTML.html#6,6,1366,607,1366,768,0-31-2024,12-37-2,28,VR_target_stimuli/s9_0.75x_1.2_260_BC.png,250,0.75x,1.2,0,3364,250,meters,jsons/MX_seq28_1_VE250_flipped.json,273532,478845,42,Woman
28,185041,final-intermixed-textured,v2,jsons/MX_seq28_1_VE250_flipped.json,http://54.235.29.9/FacialAge/BNav_EC2/DepthDuration/MX_fS_VE_MTurk/MX_fS_HTML.html#6,6,1366,607,1366,768,0-31-2024,12-37-2,29,VR_target_stimuli/s44_1.3x_4.4_325_BC.png,250,1.3x,4.4,3,4846,255,meters,jsons/MX_seq28_1_VE250_flipped.json,273532,478845,42,Woman
29,185041,final-intermixed-textured,v2,jsons/MX_seq28_1_VE250_flipped.json,http://54.235.29.9/FacialAge/BNav_EC2/DepthDuration/MX_fS_VE_MTurk/MX_fS_HTML.html#6,6,1366,607,1366,768,0-31-2024,12-37-2,30,VR_target_stimuli/s3_1x_5_385.png,250,1x,5.0,4,4169,249,meters,jsons/MX_seq28_1_VE250_flipped.json,273532,478845,42,Woman
30,185041,final-intermixed-textured,v2,jsons/MX_seq28_1_VE250_flipped.json,http://54.235.29.9/FacialAge/BNav_EC2/DepthDuration/MX_fS_VE_MTurk/MX_fS_HTML.html#6,6,1366,607,1366,768,0-31-2024,12-37-2,31,VR_target_stimuli/s1_0.75x_1.7_265.png,250,0.75x,1.7,0,3716,254,meters,jsons/MX_seq28_1_VE250_flipped.json,273532,478845,42,Woman
31,185041,final-intermixed-textured,v2,jsons/MX_seq28_1_VE250_flipped.json,http://54.235.29.9/FacialAge/BNav_EC2/DepthDuration/MX_fS_VE_MTurk/MX_fS_HTML.html#6,6,1366,607,1366,768,0-31-2024,12-37-2,32,VR_target_stimuli/s11_1x_5_361_BC.png,250,1x,5.0,0,3437,242,meters,jsons/MX_seq28_1_VE250_flipped.json,273532,478845,42,Woman
32,185041,final-intermixed-textured,v2,jsons/MX_seq28_1_VE250_flipped.json,http://54.235.29.9/FacialAge/BNav_EC2/DepthDuration/MX_fS_VE_MTurk/MX_fS_HTML.html#6,6,1366,607,1366,768,0-31-2024,12-37-2,33,VR_target_stimuli/s2_1.3x_2.7_397.png,250,1.3x,2.7,0,3454,262,meters,jsons/MX_seq28_1_VE250_flipped.json,273532,478845,42,Woman
33,185041,final-intermixed-textured,v2,jsons/MX_seq28_1_VE250_flipped.json,http://54.235.29.9/FacialAge/BNav_EC2/DepthDuration/MX_fS_VE_MTurk/MX_fS_HTML.html#6,6,1366,607,1366,768,0-31-2024,12-37-2,34,catch_stimuli/c3_BC.png,250,,,2,3642,247,meters,jsons/MX_seq28_1_VE250_flipped.json,273532,478845,42,Woman
34,185041,final-intermixed-textured,v2,jsons/MX_seq28_1_VE250_flipped.json,http://54.235.29.9/FacialAge/BNav_EC2/DepthDuration/MX_fS_VE_MTurk/MX_fS_HTML.html#6,6,1366,607,1366,768,0-31-2024,12-37-2,35,VR_target_stimuli/s6_1x_2.1_293_BC.png,250,1x,2.1,0,3660,261,meters,jsons/MX_seq28_1_VE250_flipped.json,273532,478845,42,Woman
35,185041,final-intermixed-textured,v2,jsons/MX_seq28_1_VE250_flipped.json,http://54.235.29.9/FacialAge/BNav_EC2/DepthDuration/MX_fS_VE_MTurk/MX_fS_HTML.html#6,6,1366,607,1366,768,0-31-2024,12-37-2,36,VR_target_stimuli/s0_0.75x_2.6_345_BC.png,250,0.75x,2.6,0,3427,246,meters,jsons/MX_seq28_1_VE250_flipped.json,273532,478845,42,Woman
36,185041,final-intermixed-textured,v2,jsons/MX_seq28_1_VE250_flipped.json,http://54.235.29.9/FacialAge/BNav_EC2/DepthDuration/MX_fS_VE_MTurk/MX_fS_HTML.html#6,6,1366,607,1366,768,0-31-2024,12-37-2,37,VR_target_stimuli/s34_1.3x_2.8_294.png,250,1.3x,2.8,0,3246,246,meters,jsons/MX_seq28_1_VE250_flipped.json,273532,478845,42,Woman
37,185041,final-intermixed-textured,v2,jsons/MX_seq28_1_VE250_flipped.json,http://54.235.29.9/FacialAge/BNav_EC2/DepthDuration/MX_fS_VE_MTurk/MX_fS_HTML.html#6,6,1366,607,1366,768,0-31-2024,12-37-2,38,VR_target_stimuli/s13_1.3x_2.4_313_BC.png,250,1.3x,2.4,0,3581,246,meters,jsons/MX_seq28_1_VE250_flipped.json,273532,478845,42,Woman
38,185041,final-intermixed-textured,v2,jsons/MX_seq28_1_VE250_flipped.json,http://54.235.29.9/FacialAge/BNav_EC2/DepthDuration/MX_fS_VE_MTurk/MX_fS_HTML.html#6,6,1366,607,1366,768,0-31-2024,12-37-2,39,VR_target_stimuli/s14_1x_ 3.83_357.png,250,1x,3.83,0,4017,240,meters,jsons/MX_seq28_1_VE250_flipped.json,273532,478845,42,Woman
39,185041,final-intermixed-textured,v2,jsons/MX_seq28_1_VE250_flipped.json,http://54.235.29.9/FacialAge/BNav_EC2/DepthDuration/MX_fS_VE_MTurk/MX_fS_HTML.html#6,6,1366,607,1366,768,0-31-2024,12-37-2,40,VR_target_stimuli/s47_0.75x_3.45_366.png,250,0.75x,3.45,0,5255,241,meters,jsons/MX_seq28_1_VE250_flipped.json,273532,478845,42,Woman
40,185041,final-intermixed-textured,v2,jsons/MX_seq28_1_VE250_flipped.json,http://54.235.29.9/FacialAge/BNav_EC2/DepthDuration/MX_fS_VE_MTurk/MX_fS_HTML.html#6,6,1366,607,1366,768,0-31-2024,12-37-2,41,VR_target_stimuli/s29_1x_1.3_250.png,250,1x,1.3,0,4671,245,meters,jsons/MX_seq28_1_VE250_flipped.json,273532,478845,42,Woman
41,185041,final-intermixed-textured,v2,jsons/MX_seq28_1_VE250_flipped.json,http://54.235.29.9/FacialAge/BNav_EC2/DepthDuration/MX_fS_VE_MTurk/MX_fS_HTML.html#6,6,1366,607,1366,768,0-31-2024,12-37-2,42,VR_target_stimuli/s28_1.3x_3.2_365_BC.png,250,1.3x,3.2,0,3636,243,meters,jsons/MX_seq28_1_VE250_flipped.json,273532,478845,42,Woman
42,185041,final-intermixed-textured,v2,jsons/MX_seq28_1_VE250_flipped.json,http://54.235.29.9/FacialAge/BNav_EC2/DepthDuration/MX_fS_VE_MTurk/MX_fS_HTML.html#6,6,1366,607,1366,768,0-31-2024,12-37-2,43,VR_target_stimuli/s48_0.75x_2.55_243.png,250,0.75x,2.55,0,4422,255,meters,jsons/MX_seq28_1_VE250_flipped.json,273532,478845,42,Woman
43,185041,final-intermixed-textured,v2,jsons/MX_seq28_1_VE250_flipped.json,http://54.235.29.9/FacialAge/BNav_EC2/DepthDuration/MX_fS_VE_MTurk/MX_fS_HTML.html#6,6,1366,607,1366,768,0-31-2024,12-37-2,44,VR_target_stimuli/s19_1.3x_1.21_270.png,250,1.3x,1.21,0,3291,241,meters,jsons/MX_seq28_1_VE250_flipped.json,273532,478845,42,Woman
44,185041,final-intermixed-textured,v2,jsons/MX_seq28_1_VE250_flipped.json,http://54.235.29.9/FacialAge/BNav_EC2/DepthDuration/MX_fS_VE_MTurk/MX_fS_HTML.html#6,6,1366,607,1366,768,0-31-2024,12-37-2,45,catch_stimuli/c4_BC.png,250,,,3,3704,255,meters,jsons/MX_seq28_1_VE250_flipped.json,273532,478845,42,Woman
45,185041,final-intermixed-textured,v2,jsons/MX_seq28_1_VE250_flipped.json,http://54.235.29.9/FacialAge/BNav_EC2/DepthDuration/MX_fS_VE_MTurk/MX_fS_HTML.html#6,6,1366,607,1366,768,0-31-2024,12-37-2,46,VR_target_stimuli/s21_1x_4.22_379_BC.png,250,1x,4.22,0,5083,245,meters,jsons/MX_seq28_1_VE250_flipped.json,273532,478845,42,Woman
46,185041,final-intermixed-textured,v2,jsons/MX_seq28_1_VE250_flipped.json,http://54.235.29.9/FacialAge/BNav_EC2/DepthDuration/MX_fS_VE_MTurk/MX_fS_HTML.html#6,6,1366,607,1366,768,0-31-2024,12-37-2,47,VR_target_stimuli/s8_0.75x_3.1_325_BC.png,250,0.75x,3.1,0,3308,248,meters,jsons/MX_seq28_1_VE250_flipped.json,273532,478845,42,Woman
47,185041,final-intermixed-textured,v2,jsons/MX_seq28_1_VE250_flipped.json,http://54.235.29.9/FacialAge/BNav_EC2/DepthDuration/MX_fS_VE_MTurk/MX_fS_HTML.html#6,6,1366,607,1366,768,0-31-2024,12-37-2,48,VR_target_stimuli/s27_0.75x_1.76_243.png,250,0.75x,1.76,0,3990,260,meters,jsons/MX_seq28_1_VE250_flipped.json,273532,478845,42,Woman
48,185041,final-intermixed-textured,v2,jsons/MX_seq28_1_VE250_flipped.json,http://54.235.29.9/FacialAge/BNav_EC2/DepthDuration/MX_fS_VE_MTurk/MX_fS_HTML.html#6,6,1366,607,1366,768,0-31-2024,12-37-2,49,VR_target_stimuli/s15_1.3x_4.2_389_BC.png,250,1.3x,4.2,0,3647,262,meters,jsons/MX_seq28_1_VE250_flipped.json,273532,478845,42,Woman
49,185041,final-intermixed-textured,v2,jsons/MX_seq28_1_VE250_flipped.json,http://54.235.29.9/FacialAge/BNav_EC2/DepthDuration/MX_fS_VE_MTurk/MX_fS_HTML.html#6,6,1366,607,1366,768,0-31-2024,12-37-2,50,VR_target_stimuli/s4_1x_1.4_313_BC.png,250,1x,1.4,0,3571,240,meters,jsons/MX_seq28_1_VE250_flipped.json,273532,478845,42,Woman
50,185041,final-intermixed-textured,v2,jsons/MX_seq28_1_VE250_flipped.json,http://54.235.29.9/FacialAge/BNav_EC2/DepthDuration/MX_fS_VE_MTurk/MX_fS_HTML.html#6,6,1366,607,1366,768,0-31-2024,12-37-2,51,VR_target_stimuli/s35_1.3x_2_338.png,250,1.3x,2.0,0,3697,246,meters,jsons/MX_seq28_1_VE250_flipped.json,273532,478845,42,Woman
51,185041,final-intermixed-textured,v2,jsons/MX_seq28_1_VE250_flipped.json,http://54.235.29.9/FacialAge/BNav_EC2/DepthDuration/MX_fS_VE_MTurk/MX_fS_HTML.html#6,6,1366,607,1366,768,0-31-2024,12-37-2,52,VR_target_stimuli/s49_0.75x_4.67_328_BC.png,250,0.75x,4.67,0,3611,243,meters,jsons/MX_seq28_1_VE250_flipped.json,273532,478845,42,Woman
52,185041,final-intermixed-textured,v2,jsons/MX_seq28_1_VE250_flipped.json,http://54.235.29.9/FacialAge/BNav_EC2/DepthDuration/MX_fS_VE_MTurk/MX_fS_HTML.html#6,6,1366,607,1366,768,0-31-2024,12-37-2,53,catch_stimuli/c5_BC.png,250,,,2,3665,248,meters,jsons/MX_seq28_1_VE250_flipped.json,273532,478845,42,Woman
53,185041,final-intermixed-textured,v2,jsons/MX_seq28_1_VE250_flipped.json,http://54.235.29.9/FacialAge/BNav_EC2/DepthDuration/MX_fS_VE_MTurk/MX_fS_HTML.html#6,6,1366,607,1366,768,0-31-2024,12-37-2,54,VR_target_stimuli/s7_1x_1.5_255.png,250,1x,1.5,0,3457,247,meters,jsons/MX_seq28_1_VE250_flipped.json,273532,478845,42,Woman
54,185041,final-intermixed-textured,v2,jsons/MX_seq28_1_VE250_flipped.json,http://54.235.29.9/FacialAge/BNav_EC2/DepthDuration/MX_fS_VE_MTurk/MX_fS_HTML.html#6,6,1366,607,1366,768,0-31-2024,12-37-2,55,VR_target_stimuli/s20_0.75x_4.99_390.png,250,0.75x,4.99,0,3801,244,meters,jsons/MX_seq28_1_VE250_flipped.json,273532,478845,42,Woman
55,185041,final-intermixed-textured,v2,jsons/MX_seq28_1_VE250_flipped.json,http://54.235.29.9/FacialAge/BNav_EC2/DepthDuration/MX_fS_VE_MTurk/MX_fS_HTML.html#6,6,1366,607,1366,768,0-31-2024,12-37-2,56,VR_target_stimuli/s31_1.3x_4.96_342_BC.png,250,1.3x,4.96,0,3626,246,meters,jsons/MX_seq28_1_VE250_flipped.json,273532,478845,42,Woman
56,185041,final-intermixed-textured,v2,jsons/MX_seq28_1_VE250_flipped.json,http://54.235.29.9/FacialAge/BNav_EC2/DepthDuration/MX_fS_VE_MTurk/MX_fS_HTML.html#6,6,1366,607,1366,768,0-31-2024,12-37-2,57,VR_target_stimuli/s33_1x_3.1_366_BC.png,250,1x,3.1,0,3254,258,meters,jsons/MX_seq28_1_VE250_flipped.json,273532,478845,42,Woman
57,185041,final-intermixed-textured,v2,jsons/MX_seq28_1_VE250_flipped.json,http://54.235.29.9/FacialAge/BNav_EC2/DepthDuration/MX_fS_VE_MTurk/MX_fS_HTML.html#6,6,1366,607,1366,768,0-31-2024,12-37-2,58,VR_target_stimuli/s52_1x_3.2_275.png,250,1x,3.2,0,3505,244,meters,jsons/MX_seq28_1_VE250_flipped.json,273532,478845,42,Woman
58,185041,final-intermixed-textured,v2,jsons/MX_seq28_1_VE250_flipped.json,http://54.235.29.9/FacialAge/BNav_EC2/DepthDuration/MX_fS_VE_MTurk/MX_fS_HTML.html#6,6,1366,607,1366,768,0-31-2024,12-37-2,59,VR_target_stimuli/s32_0.75x_1.5_213_BC.png,250,0.75x,1.5,0,3621,243,meters,jsons/MX_seq28_1_VE250_flipped.json,273532,478845,42,Woman
59,185041,final-intermixed-textured,v2,jsons/MX_seq28_1_VE250_flipped.json,http://54.235.29.9/FacialAge/BNav_EC2/DepthDuration/MX_fS_VE_MTurk/MX_fS_HTML.html#6,6,1366,607,1366,768,0-31-2024,12-37-2,60,VR_target_stimuli/s18_1.3x_2.25_368.png,250,1.3x,2.25,0,3974,261,meters,jsons/MX_seq28_1_VE250_flipped.json,273532,478845,42,Woman
