,subjID,experimentName,versionName,sequenceName,url,selected_row,windowWidth,windowHeight,screenWidth,screenHeight,startDate,startTime,trial,stimulus,duration,scale,actual_depth,depth_estimate,trial_RT,log_sceneDuration,unitSelection,seq_filepath,experimentTime,totalTime,age,gender
0,197573,final-intermixed-textured,v2,jsons/MX_seq51_0_VE250.json,http://54.235.29.9/FacialAge/BNav_EC2/DepthDuration/MX_fS_VE_MTurk/MX_fS_HTML.html#196,196,1536,695,1536,864,0-31-2024,18-36-19,1,VR_target_stimuli/s38_0.75x_3.55_346.png,250,0.75x,3.55,2,5700,255,meters,jsons/MX_seq51_0_VE250.json,323947,563103,28,Man
1,197573,final-intermixed-textured,v2,jsons/MX_seq51_0_VE250.json,http://54.235.29.9/FacialAge/BNav_EC2/DepthDuration/MX_fS_VE_MTurk/MX_fS_HTML.html#196,196,1536,695,1536,864,0-31-2024,18-36-19,2,VR_target_stimuli/s9_1x_1.2_263_BC.png,250,1x,1.2,2,4301,254,meters,jsons/MX_seq51_0_VE250.json,323947,563103,28,Man
2,197573,final-intermixed-textured,v2,jsons/MX_seq51_0_VE250.json,http://54.235.29.9/FacialAge/BNav_EC2/DepthDuration/MX_fS_VE_MTurk/MX_fS_HTML.html#196,196,1536,695,1536,864,0-31-2024,18-36-19,3,VR_target_stimuli/s44_1.3x_4.4_325.png,250,1.3x,4.4,3,4352,253,meters,jsons/MX_seq51_0_VE250.json,323947,563103,28,Man
3,197573,final-intermixed-textured,v2,jsons/MX_seq51_0_VE250.json,http://54.235.29.9/FacialAge/BNav_EC2/DepthDuration/MX_fS_VE_MTurk/MX_fS_HTML.html#196,196,1536,695,1536,864,0-31-2024,18-36-19,4,VR_target_stimuli/s3_1x_5_385.png,250,1x,5.0,5,5166,250,meters,jsons/MX_seq51_0_VE250.json,323947,563103,28,Man
4,197573,final-intermixed-textured,v2,jsons/MX_seq51_0_VE250.json,http://54.235.29.9/FacialAge/BNav_EC2/DepthDuration/MX_fS_VE_MTurk/MX_fS_HTML.html#196,196,1536,695,1536,864,0-31-2024,18-36-19,5,VR_target_stimuli/s1_0.75x_1.7_265_BC.png,250,0.75x,1.7,2,4867,254,meters,jsons/MX_seq51_0_VE250.json,323947,563103,28,Man
5,197573,final-intermixed-textured,v2,jsons/MX_seq51_0_VE250.json,http://54.235.29.9/FacialAge/BNav_EC2/DepthDuration/MX_fS_VE_MTurk/MX_fS_HTML.html#196,196,1536,695,1536,864,0-31-2024,18-36-19,6,VR_target_stimuli/s11_1.3x_5_363_BC.png,250,1.3x,5.0,5,3970,254,meters,jsons/MX_seq51_0_VE250.json,323947,563103,28,Man
6,197573,final-intermixed-textured,v2,jsons/MX_seq51_0_VE250.json,http://54.235.29.9/FacialAge/BNav_EC2/DepthDuration/MX_fS_VE_MTurk/MX_fS_HTML.html#196,196,1536,695,1536,864,0-31-2024,18-36-19,7,catch_stimuli/c0.png,250,,,0,3586,255,meters,jsons/MX_seq51_0_VE250.json,323947,563103,28,Man
7,197573,final-intermixed-textured,v2,jsons/MX_seq51_0_VE250.json,http://54.235.29.9/FacialAge/BNav_EC2/DepthDuration/MX_fS_VE_MTurk/MX_fS_HTML.html#196,196,1536,695,1536,864,0-31-2024,18-36-19,8,VR_target_stimuli/s2_1.3x_2.7_397_BC.png,250,1.3x,2.7,2,4452,255,meters,jsons/MX_seq51_0_VE250.json,323947,563103,28,Man
8,197573,final-intermixed-textured,v2,jsons/MX_seq51_0_VE250.json,http://54.235.29.9/FacialAge/BNav_EC2/DepthDuration/MX_fS_VE_MTurk/MX_fS_HTML.html#196,196,1536,695,1536,864,0-31-2024,18-36-19,9,VR_target_stimuli/s6_1x_2.1_293_BC.png,250,1x,2.1,3,7117,255,meters,jsons/MX_seq51_0_VE250.json,323947,563103,28,Man
9,197573,final-intermixed-textured,v2,jsons/MX_seq51_0_VE250.json,http://54.235.29.9/FacialAge/BNav_EC2/DepthDuration/MX_fS_VE_MTurk/MX_fS_HTML.html#196,196,1536,695,1536,864,0-31-2024,18-36-19,10,VR_target_stimuli/s0_0.75x_2.6_345.png,250,0.75x,2.6,2,3737,255,meters,jsons/MX_seq51_0_VE250.json,323947,563103,28,Man
10,197573,final-intermixed-textured,v2,jsons/MX_seq51_0_VE250.json,http://54.235.29.9/FacialAge/BNav_EC2/DepthDuration/MX_fS_VE_MTurk/MX_fS_HTML.html#196,196,1536,695,1536,864,0-31-2024,18-36-19,11,VR_target_stimuli/s34_1x_2.8_283.png,250,1x,2.8,3,4050,252,meters,jsons/MX_seq51_0_VE250.json,323947,563103,28,Man
11,197573,final-intermixed-textured,v2,jsons/MX_seq51_0_VE250.json,http://54.235.29.9/FacialAge/BNav_EC2/DepthDuration/MX_fS_VE_MTurk/MX_fS_HTML.html#196,196,1536,695,1536,864,0-31-2024,18-36-19,12,VR_target_stimuli/s13_1.3x_2.4_313.png,250,1.3x,2.4,3,4218,238,meters,jsons/MX_seq51_0_VE250.json,323947,563103,28,Man
12,197573,final-intermixed-textured,v2,jsons/MX_seq51_0_VE250.json,http://54.235.29.9/FacialAge/BNav_EC2/DepthDuration/MX_fS_VE_MTurk/MX_fS_HTML.html#196,196,1536,695,1536,864,0-31-2024,18-36-19,13,VR_target_stimuli/s14_0.75x_3.83_355_BC.png,250,0.75x,3.83,5,4119,254,meters,jsons/MX_seq51_0_VE250.json,323947,563103,28,Man
13,197573,final-intermixed-textured,v2,jsons/MX_seq51_0_VE250.json,http://54.235.29.9/FacialAge/BNav_EC2/DepthDuration/MX_fS_VE_MTurk/MX_fS_HTML.html#196,196,1536,695,1536,864,0-31-2024,18-36-19,14,VR_target_stimuli/s47_1.3x_3.45_373_BC.png,250,1.3x,3.45,3,3934,252,meters,jsons/MX_seq51_0_VE250.json,323947,563103,28,Man
14,197573,final-intermixed-textured,v2,jsons/MX_seq51_0_VE250.json,http://54.235.29.9/FacialAge/BNav_EC2/DepthDuration/MX_fS_VE_MTurk/MX_fS_HTML.html#196,196,1536,695,1536,864,0-31-2024,18-36-19,15,VR_target_stimuli/s29_1x_1.3_250.png,250,1x,1.3,2,4101,255,meters,jsons/MX_seq51_0_VE250.json,323947,563103,28,Man
15,197573,final-intermixed-textured,v2,jsons/MX_seq51_0_VE250.json,http://54.235.29.9/FacialAge/BNav_EC2/DepthDuration/MX_fS_VE_MTurk/MX_fS_HTML.html#196,196,1536,695,1536,864,0-31-2024,18-36-19,16,VR_target_stimuli/s28_0.75x_3.2_357_BC.png,250,0.75x,3.2,3,4503,255,meters,jsons/MX_seq51_0_VE250.json,323947,563103,28,Man
16,197573,final-intermixed-textured,v2,jsons/MX_seq51_0_VE250.json,http://54.235.29.9/FacialAge/BNav_EC2/DepthDuration/MX_fS_VE_MTurk/MX_fS_HTML.html#196,196,1536,695,1536,864,0-31-2024,18-36-19,17,catch_stimuli/c1.png,250,,,0,4118,255,meters,jsons/MX_seq51_0_VE250.json,323947,563103,28,Man
17,197573,final-intermixed-textured,v2,jsons/MX_seq51_0_VE250.json,http://54.235.29.9/FacialAge/BNav_EC2/DepthDuration/MX_fS_VE_MTurk/MX_fS_HTML.html#196,196,1536,695,1536,864,0-31-2024,18-36-19,18,VR_target_stimuli/s48_0.75x_2.55_243.png,250,0.75x,2.55,1,3835,240,meters,jsons/MX_seq51_0_VE250.json,323947,563103,28,Man
18,197573,final-intermixed-textured,v2,jsons/MX_seq51_0_VE250.json,http://54.235.29.9/FacialAge/BNav_EC2/DepthDuration/MX_fS_VE_MTurk/MX_fS_HTML.html#196,196,1536,695,1536,864,0-31-2024,18-36-19,19,VR_target_stimuli/s19_1.3x_1.21_270.png,250,1.3x,1.21,1,3819,254,meters,jsons/MX_seq51_0_VE250.json,323947,563103,28,Man
19,197573,final-intermixed-textured,v2,jsons/MX_seq51_0_VE250.json,http://54.235.29.9/FacialAge/BNav_EC2/DepthDuration/MX_fS_VE_MTurk/MX_fS_HTML.html#196,196,1536,695,1536,864,0-31-2024,18-36-19,20,VR_target_stimuli/s21_1x_4.22_379_BC.png,250,1x,4.22,3,4434,256,meters,jsons/MX_seq51_0_VE250.json,323947,563103,28,Man
20,197573,final-intermixed-textured,v2,jsons/MX_seq51_0_VE250.json,http://54.235.29.9/FacialAge/BNav_EC2/DepthDuration/MX_fS_VE_MTurk/MX_fS_HTML.html#196,196,1536,695,1536,864,0-31-2024,18-36-19,21,VR_target_stimuli/s8_1.3x_3.1_345_BC.png,250,1.3x,3.1,3,4036,255,meters,jsons/MX_seq51_0_VE250.json,323947,563103,28,Man
21,197573,final-intermixed-textured,v2,jsons/MX_seq51_0_VE250.json,http://54.235.29.9/FacialAge/BNav_EC2/DepthDuration/MX_fS_VE_MTurk/MX_fS_HTML.html#196,196,1536,695,1536,864,0-31-2024,18-36-19,22,VR_target_stimuli/s27_0.75x_1.76_243_BC.png,250,0.75x,1.76,2,4101,255,meters,jsons/MX_seq51_0_VE250.json,323947,563103,28,Man
22,197573,final-intermixed-textured,v2,jsons/MX_seq51_0_VE250.json,http://54.235.29.9/FacialAge/BNav_EC2/DepthDuration/MX_fS_VE_MTurk/MX_fS_HTML.html#196,196,1536,695,1536,864,0-31-2024,18-36-19,23,VR_target_stimuli/s15_1x_4.2_390_BC.png,250,1x,4.2,4,3819,254,meters,jsons/MX_seq51_0_VE250.json,323947,563103,28,Man
23,197573,final-intermixed-textured,v2,jsons/MX_seq51_0_VE250.json,http://54.235.29.9/FacialAge/BNav_EC2/DepthDuration/MX_fS_VE_MTurk/MX_fS_HTML.html#196,196,1536,695,1536,864,0-31-2024,18-36-19,24,VR_target_stimuli/s4_0.75x_1.4_301.png,250,0.75x,1.4,2,3686,239,meters,jsons/MX_seq51_0_VE250.json,323947,563103,28,Man
24,197573,final-intermixed-textured,v2,jsons/MX_seq51_0_VE250.json,http://54.235.29.9/FacialAge/BNav_EC2/DepthDuration/MX_fS_VE_MTurk/MX_fS_HTML.html#196,196,1536,695,1536,864,0-31-2024,18-36-19,25,VR_target_stimuli/s35_1.3x_2_338.png,250,1.3x,2.0,1,4551,254,meters,jsons/MX_seq51_0_VE250.json,323947,563103,28,Man
25,197573,final-intermixed-textured,v2,jsons/MX_seq51_0_VE250.json,http://54.235.29.9/FacialAge/BNav_EC2/DepthDuration/MX_fS_VE_MTurk/MX_fS_HTML.html#196,196,1536,695,1536,864,0-31-2024,18-36-19,26,catch_stimuli/c2.png,250,,,0,4594,255,meters,jsons/MX_seq51_0_VE250.json,323947,563103,28,Man
26,197573,final-intermixed-textured,v2,jsons/MX_seq51_0_VE250.json,http://54.235.29.9/FacialAge/BNav_EC2/DepthDuration/MX_fS_VE_MTurk/MX_fS_HTML.html#196,196,1536,695,1536,864,0-31-2024,18-36-19,27,VR_target_stimuli/s49_1x_4.67_341.png,250,1x,4.67,3,3882,250,meters,jsons/MX_seq51_0_VE250.json,323947,563103,28,Man
27,197573,final-intermixed-textured,v2,jsons/MX_seq51_0_VE250.json,http://54.235.29.9/FacialAge/BNav_EC2/DepthDuration/MX_fS_VE_MTurk/MX_fS_HTML.html#196,196,1536,695,1536,864,0-31-2024,18-36-19,28,VR_target_stimuli/s7_1x_1.5_255.png,250,1x,1.5,2,4035,239,meters,jsons/MX_seq51_0_VE250.json,323947,563103,28,Man
28,197573,final-intermixed-textured,v2,jsons/MX_seq51_0_VE250.json,http://54.235.29.9/FacialAge/BNav_EC2/DepthDuration/MX_fS_VE_MTurk/MX_fS_HTML.html#196,196,1536,695,1536,864,0-31-2024,18-36-19,29,VR_target_stimuli/s20_0.75x_4.99_390_BC.png,250,0.75x,4.99,5,38687,253,meters,jsons/MX_seq51_0_VE250.json,323947,563103,28,Man
29,197573,final-intermixed-textured,v2,jsons/MX_seq51_0_VE250.json,http://54.235.29.9/FacialAge/BNav_EC2/DepthDuration/MX_fS_VE_MTurk/MX_fS_HTML.html#196,196,1536,695,1536,864,0-31-2024,18-36-19,30,VR_target_stimuli/s31_1.3x_4.96_342.png,250,1.3x,4.96,2,6085,254,meters,jsons/MX_seq51_0_VE250.json,323947,563103,28,Man
30,197573,final-intermixed-textured,v2,jsons/MX_seq51_0_VE250.json,http://54.235.29.9/FacialAge/BNav_EC2/DepthDuration/MX_fS_VE_MTurk/MX_fS_HTML.html#196,196,1536,695,1536,864,0-31-2024,18-36-19,31,VR_target_stimuli/s33_1x_3.1_366_BC.png,250,1x,3.1,5,6611,254,meters,jsons/MX_seq51_0_VE250.json,323947,563103,28,Man
31,197573,final-intermixed-textured,v2,jsons/MX_seq51_0_VE250.json,http://54.235.29.9/FacialAge/BNav_EC2/DepthDuration/MX_fS_VE_MTurk/MX_fS_HTML.html#196,196,1536,695,1536,864,0-31-2024,18-36-19,32,VR_target_stimuli/s52_1.3x_3.2_280_BC.png,250,1.3x,3.2,3,4015,249,meters,jsons/MX_seq51_0_VE250.json,323947,563103,28,Man
32,197573,final-intermixed-textured,v2,jsons/MX_seq51_0_VE250.json,http://54.235.29.9/FacialAge/BNav_EC2/DepthDuration/MX_fS_VE_MTurk/MX_fS_HTML.html#196,196,1536,695,1536,864,0-31-2024,18-36-19,33,VR_target_stimuli/s32_0.75x_1.5_213.png,250,0.75x,1.5,3,4036,240,meters,jsons/MX_seq51_0_VE250.json,323947,563103,28,Man
33,197573,final-intermixed-textured,v2,jsons/MX_seq51_0_VE250.json,http://54.235.29.9/FacialAge/BNav_EC2/DepthDuration/MX_fS_VE_MTurk/MX_fS_HTML.html#196,196,1536,695,1536,864,0-31-2024,18-36-19,34,catch_stimuli/c3.png,250,,,0,3534,254,meters,jsons/MX_seq51_0_VE250.json,323947,563103,28,Man
34,197573,final-intermixed-textured,v2,jsons/MX_seq51_0_VE250.json,http://54.235.29.9/FacialAge/BNav_EC2/DepthDuration/MX_fS_VE_MTurk/MX_fS_HTML.html#196,196,1536,695,1536,864,0-31-2024,18-36-19,35,VR_target_stimuli/s18_1.3x_2.25_368.png,250,1.3x,2.25,2,3520,253,meters,jsons/MX_seq51_0_VE250.json,323947,563103,28,Man
35,197573,final-intermixed-textured,v2,jsons/MX_seq51_0_VE250.json,http://54.235.29.9/FacialAge/BNav_EC2/DepthDuration/MX_fS_VE_MTurk/MX_fS_HTML.html#196,196,1536,695,1536,864,0-31-2024,18-36-19,36,VR_target_stimuli/s39_1x_1_207.png,250,1x,1.0,1,5427,253,meters,jsons/MX_seq51_0_VE250.json,323947,563103,28,Man
36,197573,final-intermixed-textured,v2,jsons/MX_seq51_0_VE250.json,http://54.235.29.9/FacialAge/BNav_EC2/DepthDuration/MX_fS_VE_MTurk/MX_fS_HTML.html#196,196,1536,695,1536,864,0-31-2024,18-36-19,37,VR_target_stimuli/s51_0.75x_3.64_460_BC.png,250,0.75x,3.64,2,6197,253,meters,jsons/MX_seq51_0_VE250.json,323947,563103,28,Man
37,197573,final-intermixed-textured,v2,jsons/MX_seq51_0_VE250.json,http://54.235.29.9/FacialAge/BNav_EC2/DepthDuration/MX_fS_VE_MTurk/MX_fS_HTML.html#196,196,1536,695,1536,864,0-31-2024,18-36-19,38,VR_target_stimuli/s43_0.75x_2.2_348.png,250,0.75x,2.2,3,3935,252,meters,jsons/MX_seq51_0_VE250.json,323947,563103,28,Man
38,197573,final-intermixed-textured,v2,jsons/MX_seq51_0_VE250.json,http://54.235.29.9/FacialAge/BNav_EC2/DepthDuration/MX_fS_VE_MTurk/MX_fS_HTML.html#196,196,1536,695,1536,864,0-31-2024,18-36-19,39,VR_target_stimuli/s24_1.3x_3.3_352_BC.png,250,1.3x,3.3,3,3586,253,meters,jsons/MX_seq51_0_VE250.json,323947,563103,28,Man
39,197573,final-intermixed-textured,v2,jsons/MX_seq51_0_VE250.json,http://54.235.29.9/FacialAge/BNav_EC2/DepthDuration/MX_fS_VE_MTurk/MX_fS_HTML.html#196,196,1536,695,1536,864,0-31-2024,18-36-19,40,VR_target_stimuli/s10_1x_2.7_324_BC.png,250,1x,2.7,4,3619,256,meters,jsons/MX_seq51_0_VE250.json,323947,563103,28,Man
40,197573,final-intermixed-textured,v2,jsons/MX_seq51_0_VE250.json,http://54.235.29.9/FacialAge/BNav_EC2/DepthDuration/MX_fS_VE_MTurk/MX_fS_HTML.html#196,196,1536,695,1536,864,0-31-2024,18-36-19,41,VR_target_stimuli/s36_1.3x_4.1_442_BC.png,250,1.3x,4.1,5,3453,255,meters,jsons/MX_seq51_0_VE250.json,323947,563103,28,Man
41,197573,final-intermixed-textured,v2,jsons/MX_seq51_0_VE250.json,http://54.235.29.9/FacialAge/BNav_EC2/DepthDuration/MX_fS_VE_MTurk/MX_fS_HTML.html#196,196,1536,695,1536,864,0-31-2024,18-36-19,42,VR_target_stimuli/s40_0.75x_1.2_308_BC.png,250,0.75x,1.2,3,3536,254,meters,jsons/MX_seq51_0_VE250.json,323947,563103,28,Man
42,197573,final-intermixed-textured,v2,jsons/MX_seq51_0_VE250.json,http://54.235.29.9/FacialAge/BNav_EC2/DepthDuration/MX_fS_VE_MTurk/MX_fS_HTML.html#196,196,1536,695,1536,864,0-31-2024,18-36-19,43,VR_target_stimuli/s41_1x_2.1_286.png,250,1x,2.1,3,3868,254,meters,jsons/MX_seq51_0_VE250.json,323947,563103,28,Man
43,197573,final-intermixed-textured,v2,jsons/MX_seq51_0_VE250.json,http://54.235.29.9/FacialAge/BNav_EC2/DepthDuration/MX_fS_VE_MTurk/MX_fS_HTML.html#196,196,1536,695,1536,864,0-31-2024,18-36-19,44,VR_target_stimuli/s45_0.75x_3.5_362.png,250,0.75x,3.5,3,3820,255,meters,jsons/MX_seq51_0_VE250.json,323947,563103,28,Man
44,197573,final-intermixed-textured,v2,jsons/MX_seq51_0_VE250.json,http://54.235.29.9/FacialAge/BNav_EC2/DepthDuration/MX_fS_VE_MTurk/MX_fS_HTML.html#196,196,1536,695,1536,864,0-31-2024,18-36-19,45,catch_stimuli/c4.png,250,,,0,3668,254,meters,jsons/MX_seq51_0_VE250.json,323947,563103,28,Man
45,197573,final-intermixed-textured,v2,jsons/MX_seq51_0_VE250.json,http://54.235.29.9/FacialAge/BNav_EC2/DepthDuration/MX_fS_VE_MTurk/MX_fS_HTML.html#196,196,1536,695,1536,864,0-31-2024,18-36-19,46,VR_target_stimuli/s23_1.3x_3.65_354.png,250,1.3x,3.65,4,4135,254,meters,jsons/MX_seq51_0_VE250.json,323947,563103,28,Man
46,197573,final-intermixed-textured,v2,jsons/MX_seq51_0_VE250.json,http://54.235.29.9/FacialAge/BNav_EC2/DepthDuration/MX_fS_VE_MTurk/MX_fS_HTML.html#196,196,1536,695,1536,864,0-31-2024,18-36-19,47,VR_target_stimuli/s26_1x_4_433_BC.png,250,1x,4.0,4,4402,254,meters,jsons/MX_seq51_0_VE250.json,323947,563103,28,Man
47,197573,final-intermixed-textured,v2,jsons/MX_seq51_0_VE250.json,http://54.235.29.9/FacialAge/BNav_EC2/DepthDuration/MX_fS_VE_MTurk/MX_fS_HTML.html#196,196,1536,695,1536,864,0-31-2024,18-36-19,48,VR_target_stimuli/s12_1x_3.1_372.png,250,1x,3.1,4,3769,255,meters,jsons/MX_seq51_0_VE250.json,323947,563103,28,Man
48,197573,final-intermixed-textured,v2,jsons/MX_seq51_0_VE250.json,http://54.235.29.9/FacialAge/BNav_EC2/DepthDuration/MX_fS_VE_MTurk/MX_fS_HTML.html#196,196,1536,695,1536,864,0-31-2024,18-36-19,49,VR_target_stimuli/s30_0.75x_2.3_332_BC.png,250,0.75x,2.3,3,3686,254,meters,jsons/MX_seq51_0_VE250.json,323947,563103,28,Man
49,197573,final-intermixed-textured,v2,jsons/MX_seq51_0_VE250.json,http://54.235.29.9/FacialAge/BNav_EC2/DepthDuration/MX_fS_VE_MTurk/MX_fS_HTML.html#196,196,1536,695,1536,864,0-31-2024,18-36-19,50,VR_target_stimuli/s16_1.3x_1_223.png,250,1.3x,1.0,2,3854,255,meters,jsons/MX_seq51_0_VE250.json,323947,563103,28,Man
50,197573,final-intermixed-textured,v2,jsons/MX_seq51_0_VE250.json,http://54.235.29.9/FacialAge/BNav_EC2/DepthDuration/MX_fS_VE_MTurk/MX_fS_HTML.html#196,196,1536,695,1536,864,0-31-2024,18-36-19,51,VR_target_stimuli/s17_0.75x_1.8_285.png,250,0.75x,1.8,3,3734,254,meters,jsons/MX_seq51_0_VE250.json,323947,563103,28,Man
51,197573,final-intermixed-textured,v2,jsons/MX_seq51_0_VE250.json,http://54.235.29.9/FacialAge/BNav_EC2/DepthDuration/MX_fS_VE_MTurk/MX_fS_HTML.html#196,196,1536,695,1536,864,0-31-2024,18-36-19,52,VR_target_stimuli/s5_1x_4_378_BC.png,250,1x,4.0,5,3354,254,meters,jsons/MX_seq51_0_VE250.json,323947,563103,28,Man
52,197573,final-intermixed-textured,v2,jsons/MX_seq51_0_VE250.json,http://54.235.29.9/FacialAge/BNav_EC2/DepthDuration/MX_fS_VE_MTurk/MX_fS_HTML.html#196,196,1536,695,1536,864,0-31-2024,18-36-19,53,catch_stimuli/c5.png,250,,,0,4651,254,meters,jsons/MX_seq51_0_VE250.json,323947,563103,28,Man
53,197573,final-intermixed-textured,v2,jsons/MX_seq51_0_VE250.json,http://54.235.29.9/FacialAge/BNav_EC2/DepthDuration/MX_fS_VE_MTurk/MX_fS_HTML.html#196,196,1536,695,1536,864,0-31-2024,18-36-19,54,VR_target_stimuli/s37_1.3x_3.3_555_BC.png,250,1.3x,3.3,4,4667,253,meters,jsons/MX_seq51_0_VE250.json,323947,563103,28,Man
54,197573,final-intermixed-textured,v2,jsons/MX_seq51_0_VE250.json,http://54.235.29.9/FacialAge/BNav_EC2/DepthDuration/MX_fS_VE_MTurk/MX_fS_HTML.html#196,196,1536,695,1536,864,0-31-2024,18-36-19,55,VR_target_stimuli/s46_1x_2.42_348.png,250,1x,2.42,4,5788,255,meters,jsons/MX_seq51_0_VE250.json,323947,563103,28,Man
55,197573,final-intermixed-textured,v2,jsons/MX_seq51_0_VE250.json,http://54.235.29.9/FacialAge/BNav_EC2/DepthDuration/MX_fS_VE_MTurk/MX_fS_HTML.html#196,196,1536,695,1536,864,0-31-2024,18-36-19,56,VR_target_stimuli/s22_0.75x_4.29_348.png,250,0.75x,4.29,5,3752,256,meters,jsons/MX_seq51_0_VE250.json,323947,563103,28,Man
56,197573,final-intermixed-textured,v2,jsons/MX_seq51_0_VE250.json,http://54.235.29.9/FacialAge/BNav_EC2/DepthDuration/MX_fS_VE_MTurk/MX_fS_HTML.html#196,196,1536,695,1536,864,0-31-2024,18-36-19,57,VR_target_stimuli/s42_1.3x_3.2_305.png,250,1.3x,3.2,4,5983,252,meters,jsons/MX_seq51_0_VE250.json,323947,563103,28,Man
57,197573,final-intermixed-textured,v2,jsons/MX_seq51_0_VE250.json,http://54.235.29.9/FacialAge/BNav_EC2/DepthDuration/MX_fS_VE_MTurk/MX_fS_HTML.html#196,196,1536,695,1536,864,0-31-2024,18-36-19,58,VR_target_stimuli/s25_1.3x_1.4_299_BC.png,250,1.3x,1.4,3,3903,255,meters,jsons/MX_seq51_0_VE250.json,323947,563103,28,Man
58,197573,final-intermixed-textured,v2,jsons/MX_seq51_0_VE250.json,http://54.235.29.9/FacialAge/BNav_EC2/DepthDuration/MX_fS_VE_MTurk/MX_fS_HTML.html#196,196,1536,695,1536,864,0-31-2024,18-36-19,59,VR_target_stimuli/s50_1x_4.53_518_BC.png,250,1x,4.53,4,4578,254,meters,jsons/MX_seq51_0_VE250.json,323947,563103,28,Man
59,197573,final-intermixed-textured,v2,jsons/MX_seq51_0_VE250.json,http://54.235.29.9/FacialAge/BNav_EC2/DepthDuration/MX_fS_VE_MTurk/MX_fS_HTML.html#196,196,1536,695,1536,864,0-31-2024,18-36-19,60,VR_target_stimuli/s53_0.75x_1.6_403_BC.png,250,0.75x,1.6,3,4397,253,meters,jsons/MX_seq51_0_VE250.json,323947,563103,28,Man
