,subjID,experimentName,versionName,sequenceName,url,selected_row,windowWidth,windowHeight,screenWidth,screenHeight,startDate,startTime,trial,stimulus,duration,scale,actual_depth,depth_estimate,trial_RT,log_sceneDuration,unitSelection,seq_filepath,experimentTime,totalTime,age,gender
0,215907,final-intermixed-textured,v2,jsons/MX_seq52_2_VE250_flipped.json,http://54.235.29.9/FacialAge/BNav_EC2/DepthDuration/MX_fS_VE_MTurk/MX_fS_HTML.html#246,246,1536,864,1536,864,0-31-2024,19-11-35,1,VR_target_stimuli/s9_1x_1.2_263_BC.png,250,1x,1.2,2.0,5351,253,meters,jsons/MX_seq52_2_VE250_flipped.json,243733,435993,24,Man
1,215907,final-intermixed-textured,v2,jsons/MX_seq52_2_VE250_flipped.json,http://54.235.29.9/FacialAge/BNav_EC2/DepthDuration/MX_fS_VE_MTurk/MX_fS_HTML.html#246,246,1536,864,1536,864,0-31-2024,19-11-35,2,VR_target_stimuli/s44_1.3x_4.4_325_BC.png,250,1.3x,4.4,5.0,4969,252,meters,jsons/MX_seq52_2_VE250_flipped.json,243733,435993,24,Man
2,215907,final-intermixed-textured,v2,jsons/MX_seq52_2_VE250_flipped.json,http://54.235.29.9/FacialAge/BNav_EC2/DepthDuration/MX_fS_VE_MTurk/MX_fS_HTML.html#246,246,1536,864,1536,864,0-31-2024,19-11-35,3,VR_target_stimuli/s3_0.75x_5_381.png,250,0.75x,5.0,6.0,3937,251,meters,jsons/MX_seq52_2_VE250_flipped.json,243733,435993,24,Man
3,215907,final-intermixed-textured,v2,jsons/MX_seq52_2_VE250_flipped.json,http://54.235.29.9/FacialAge/BNav_EC2/DepthDuration/MX_fS_VE_MTurk/MX_fS_HTML.html#246,246,1536,864,1536,864,0-31-2024,19-11-35,4,VR_target_stimuli/s1_1.3x_1.7_261.png,250,1.3x,1.7,3.0,7073,254,meters,jsons/MX_seq52_2_VE250_flipped.json,243733,435993,24,Man
4,215907,final-intermixed-textured,v2,jsons/MX_seq52_2_VE250_flipped.json,http://54.235.29.9/FacialAge/BNav_EC2/DepthDuration/MX_fS_VE_MTurk/MX_fS_HTML.html#246,246,1536,864,1536,864,0-31-2024,19-11-35,5,VR_target_stimuli/s11_1x_5_361.png,250,1x,5.0,5.0,3876,253,meters,jsons/MX_seq52_2_VE250_flipped.json,243733,435993,24,Man
5,215907,final-intermixed-textured,v2,jsons/MX_seq52_2_VE250_flipped.json,http://54.235.29.9/FacialAge/BNav_EC2/DepthDuration/MX_fS_VE_MTurk/MX_fS_HTML.html#246,246,1536,864,1536,864,0-31-2024,19-11-35,6,VR_target_stimuli/s2_0.75x_2.7_384_BC.png,250,0.75x,2.7,3.0,3212,253,meters,jsons/MX_seq52_2_VE250_flipped.json,243733,435993,24,Man
6,215907,final-intermixed-textured,v2,jsons/MX_seq52_2_VE250_flipped.json,http://54.235.29.9/FacialAge/BNav_EC2/DepthDuration/MX_fS_VE_MTurk/MX_fS_HTML.html#246,246,1536,864,1536,864,0-31-2024,19-11-35,7,catch_stimuli/c0_BC.png,250,,,0.0,3175,249,meters,jsons/MX_seq52_2_VE250_flipped.json,243733,435993,24,Man
7,215907,final-intermixed-textured,v2,jsons/MX_seq52_2_VE250_flipped.json,http://54.235.29.9/FacialAge/BNav_EC2/DepthDuration/MX_fS_VE_MTurk/MX_fS_HTML.html#246,246,1536,864,1536,864,0-31-2024,19-11-35,8,VR_target_stimuli/s6_0.75x_2.1_290.png,250,0.75x,2.1,3.0,4066,252,meters,jsons/MX_seq52_2_VE250_flipped.json,243733,435993,24,Man
8,215907,final-intermixed-textured,v2,jsons/MX_seq52_2_VE250_flipped.json,http://54.235.29.9/FacialAge/BNav_EC2/DepthDuration/MX_fS_VE_MTurk/MX_fS_HTML.html#246,246,1536,864,1536,864,0-31-2024,19-11-35,9,VR_target_stimuli/s0_1.3x_2.6_356_BC.png,250,1.3x,2.6,3.0,3225,254,meters,jsons/MX_seq52_2_VE250_flipped.json,243733,435993,24,Man
9,215907,final-intermixed-textured,v2,jsons/MX_seq52_2_VE250_flipped.json,http://54.235.29.9/FacialAge/BNav_EC2/DepthDuration/MX_fS_VE_MTurk/MX_fS_HTML.html#246,246,1536,864,1536,864,0-31-2024,19-11-35,10,VR_target_stimuli/s34_1x_2.8_283_BC.png,250,1x,2.8,4.0,3337,254,meters,jsons/MX_seq52_2_VE250_flipped.json,243733,435993,24,Man
10,215907,final-intermixed-textured,v2,jsons/MX_seq52_2_VE250_flipped.json,http://54.235.29.9/FacialAge/BNav_EC2/DepthDuration/MX_fS_VE_MTurk/MX_fS_HTML.html#246,246,1536,864,1536,864,0-31-2024,19-11-35,11,VR_target_stimuli/s13_1.3x_2.4_313.png,250,1.3x,2.4,3.5,4753,254,meters,jsons/MX_seq52_2_VE250_flipped.json,243733,435993,24,Man
11,215907,final-intermixed-textured,v2,jsons/MX_seq52_2_VE250_flipped.json,http://54.235.29.9/FacialAge/BNav_EC2/DepthDuration/MX_fS_VE_MTurk/MX_fS_HTML.html#246,246,1536,864,1536,864,0-31-2024,19-11-35,12,VR_target_stimuli/s14_0.75x_3.83_355_BC.png,250,0.75x,3.83,4.0,3496,252,meters,jsons/MX_seq52_2_VE250_flipped.json,243733,435993,24,Man
12,215907,final-intermixed-textured,v2,jsons/MX_seq52_2_VE250_flipped.json,http://54.235.29.9/FacialAge/BNav_EC2/DepthDuration/MX_fS_VE_MTurk/MX_fS_HTML.html#246,246,1536,864,1536,864,0-31-2024,19-11-35,13,VR_target_stimuli/s47_1x_3.45_370.png,250,1x,3.45,3.0,4569,248,meters,jsons/MX_seq52_2_VE250_flipped.json,243733,435993,24,Man
13,215907,final-intermixed-textured,v2,jsons/MX_seq52_2_VE250_flipped.json,http://54.235.29.9/FacialAge/BNav_EC2/DepthDuration/MX_fS_VE_MTurk/MX_fS_HTML.html#246,246,1536,864,1536,864,0-31-2024,19-11-35,14,VR_target_stimuli/s29_0.75x_1.3_246.png,250,0.75x,1.3,2.0,3071,251,meters,jsons/MX_seq52_2_VE250_flipped.json,243733,435993,24,Man
14,215907,final-intermixed-textured,v2,jsons/MX_seq52_2_VE250_flipped.json,http://54.235.29.9/FacialAge/BNav_EC2/DepthDuration/MX_fS_VE_MTurk/MX_fS_HTML.html#246,246,1536,864,1536,864,0-31-2024,19-11-35,15,VR_target_stimuli/s28_1.3x_3.2_365_BC.png,250,1.3x,3.2,3.0,5499,250,meters,jsons/MX_seq52_2_VE250_flipped.json,243733,435993,24,Man
15,215907,final-intermixed-textured,v2,jsons/MX_seq52_2_VE250_flipped.json,http://54.235.29.9/FacialAge/BNav_EC2/DepthDuration/MX_fS_VE_MTurk/MX_fS_HTML.html#246,246,1536,864,1536,864,0-31-2024,19-11-35,16,VR_target_stimuli/s48_1x_2.55_256_BC.png,250,1x,2.55,3.0,3075,253,meters,jsons/MX_seq52_2_VE250_flipped.json,243733,435993,24,Man
16,215907,final-intermixed-textured,v2,jsons/MX_seq52_2_VE250_flipped.json,http://54.235.29.9/FacialAge/BNav_EC2/DepthDuration/MX_fS_VE_MTurk/MX_fS_HTML.html#246,246,1536,864,1536,864,0-31-2024,19-11-35,17,catch_stimuli/c1_BC.png,250,,,0.0,2988,239,meters,jsons/MX_seq52_2_VE250_flipped.json,243733,435993,24,Man
17,215907,final-intermixed-textured,v2,jsons/MX_seq52_2_VE250_flipped.json,http://54.235.29.9/FacialAge/BNav_EC2/DepthDuration/MX_fS_VE_MTurk/MX_fS_HTML.html#246,246,1536,864,1536,864,0-31-2024,19-11-35,18,VR_target_stimuli/s19_1x_1.21_263.png,250,1x,1.21,1.5,6597,235,meters,jsons/MX_seq52_2_VE250_flipped.json,243733,435993,24,Man
18,215907,final-intermixed-textured,v2,jsons/MX_seq52_2_VE250_flipped.json,http://54.235.29.9/FacialAge/BNav_EC2/DepthDuration/MX_fS_VE_MTurk/MX_fS_HTML.html#246,246,1536,864,1536,864,0-31-2024,19-11-35,19,VR_target_stimuli/s21_0.75x_4.22_374_BC.png,250,0.75x,4.22,3.0,4093,254,meters,jsons/MX_seq52_2_VE250_flipped.json,243733,435993,24,Man
19,215907,final-intermixed-textured,v2,jsons/MX_seq52_2_VE250_flipped.json,http://54.235.29.9/FacialAge/BNav_EC2/DepthDuration/MX_fS_VE_MTurk/MX_fS_HTML.html#246,246,1536,864,1536,864,0-31-2024,19-11-35,20,VR_target_stimuli/s8_1.3x_3.1_345.png,250,1.3x,3.1,3.0,3732,238,meters,jsons/MX_seq52_2_VE250_flipped.json,243733,435993,24,Man
20,215907,final-intermixed-textured,v2,jsons/MX_seq52_2_VE250_flipped.json,http://54.235.29.9/FacialAge/BNav_EC2/DepthDuration/MX_fS_VE_MTurk/MX_fS_HTML.html#246,246,1536,864,1536,864,0-31-2024,19-11-35,21,VR_target_stimuli/s27_0.75x_1.76_243.png,250,0.75x,1.76,2.0,2768,253,meters,jsons/MX_seq52_2_VE250_flipped.json,243733,435993,24,Man
21,215907,final-intermixed-textured,v2,jsons/MX_seq52_2_VE250_flipped.json,http://54.235.29.9/FacialAge/BNav_EC2/DepthDuration/MX_fS_VE_MTurk/MX_fS_HTML.html#246,246,1536,864,1536,864,0-31-2024,19-11-35,22,VR_target_stimuli/s15_1x_4.2_390.png,250,1x,4.2,4.0,2753,251,meters,jsons/MX_seq52_2_VE250_flipped.json,243733,435993,24,Man
22,215907,final-intermixed-textured,v2,jsons/MX_seq52_2_VE250_flipped.json,http://54.235.29.9/FacialAge/BNav_EC2/DepthDuration/MX_fS_VE_MTurk/MX_fS_HTML.html#246,246,1536,864,1536,864,0-31-2024,19-11-35,23,VR_target_stimuli/s4_1.3x_1.4_328_BC.png,250,1.3x,1.4,2.0,2759,252,meters,jsons/MX_seq52_2_VE250_flipped.json,243733,435993,24,Man
23,215907,final-intermixed-textured,v2,jsons/MX_seq52_2_VE250_flipped.json,http://54.235.29.9/FacialAge/BNav_EC2/DepthDuration/MX_fS_VE_MTurk/MX_fS_HTML.html#246,246,1536,864,1536,864,0-31-2024,19-11-35,24,VR_target_stimuli/s35_1x_2_331_BC.png,250,1x,2.0,3.0,2699,250,meters,jsons/MX_seq52_2_VE250_flipped.json,243733,435993,24,Man
24,215907,final-intermixed-textured,v2,jsons/MX_seq52_2_VE250_flipped.json,http://54.235.29.9/FacialAge/BNav_EC2/DepthDuration/MX_fS_VE_MTurk/MX_fS_HTML.html#246,246,1536,864,1536,864,0-31-2024,19-11-35,25,VR_target_stimuli/s49_0.75x_4.67_328_BC.png,250,0.75x,4.67,5.0,4660,236,meters,jsons/MX_seq52_2_VE250_flipped.json,243733,435993,24,Man
25,215907,final-intermixed-textured,v2,jsons/MX_seq52_2_VE250_flipped.json,http://54.235.29.9/FacialAge/BNav_EC2/DepthDuration/MX_fS_VE_MTurk/MX_fS_HTML.html#246,246,1536,864,1536,864,0-31-2024,19-11-35,26,catch_stimuli/c2_BC.png,250,,,0.0,2666,253,meters,jsons/MX_seq52_2_VE250_flipped.json,243733,435993,24,Man
26,215907,final-intermixed-textured,v2,jsons/MX_seq52_2_VE250_flipped.json,http://54.235.29.9/FacialAge/BNav_EC2/DepthDuration/MX_fS_VE_MTurk/MX_fS_HTML.html#246,246,1536,864,1536,864,0-31-2024,19-11-35,27,VR_target_stimuli/s7_1.3x_1.5_256.png,250,1.3x,1.5,2.0,2894,252,meters,jsons/MX_seq52_2_VE250_flipped.json,243733,435993,24,Man
27,215907,final-intermixed-textured,v2,jsons/MX_seq52_2_VE250_flipped.json,http://54.235.29.9/FacialAge/BNav_EC2/DepthDuration/MX_fS_VE_MTurk/MX_fS_HTML.html#246,246,1536,864,1536,864,0-31-2024,19-11-35,28,VR_target_stimuli/s20_1.3x_4.99_412_BC.png,250,1.3x,4.99,3.5,5385,254,meters,jsons/MX_seq52_2_VE250_flipped.json,243733,435993,24,Man
28,215907,final-intermixed-textured,v2,jsons/MX_seq52_2_VE250_flipped.json,http://54.235.29.9/FacialAge/BNav_EC2/DepthDuration/MX_fS_VE_MTurk/MX_fS_HTML.html#246,246,1536,864,1536,864,0-31-2024,19-11-35,29,VR_target_stimuli/s31_1x_4.96_333_BC.png,250,1x,4.96,3.0,2861,250,meters,jsons/MX_seq52_2_VE250_flipped.json,243733,435993,24,Man
29,215907,final-intermixed-textured,v2,jsons/MX_seq52_2_VE250_flipped.json,http://54.235.29.9/FacialAge/BNav_EC2/DepthDuration/MX_fS_VE_MTurk/MX_fS_HTML.html#246,246,1536,864,1536,864,0-31-2024,19-11-35,30,VR_target_stimuli/s33_0.75x_3.1_361.png,250,0.75x,3.1,4.0,2868,252,meters,jsons/MX_seq52_2_VE250_flipped.json,243733,435993,24,Man
30,215907,final-intermixed-textured,v2,jsons/MX_seq52_2_VE250_flipped.json,http://54.235.29.9/FacialAge/BNav_EC2/DepthDuration/MX_fS_VE_MTurk/MX_fS_HTML.html#246,246,1536,864,1536,864,0-31-2024,19-11-35,31,VR_target_stimuli/s52_1.3x_3.2_280.png,250,1.3x,3.2,4.0,2916,254,meters,jsons/MX_seq52_2_VE250_flipped.json,243733,435993,24,Man
31,215907,final-intermixed-textured,v2,jsons/MX_seq52_2_VE250_flipped.json,http://54.235.29.9/FacialAge/BNav_EC2/DepthDuration/MX_fS_VE_MTurk/MX_fS_HTML.html#246,246,1536,864,1536,864,0-31-2024,19-11-35,32,VR_target_stimuli/s32_0.75x_1.5_213_BC.png,250,0.75x,1.5,3.0,2934,238,meters,jsons/MX_seq52_2_VE250_flipped.json,243733,435993,24,Man
32,215907,final-intermixed-textured,v2,jsons/MX_seq52_2_VE250_flipped.json,http://54.235.29.9/FacialAge/BNav_EC2/DepthDuration/MX_fS_VE_MTurk/MX_fS_HTML.html#246,246,1536,864,1536,864,0-31-2024,19-11-35,33,VR_target_stimuli/s18_1x_2.25_353.png,250,1x,2.25,3.0,3359,240,meters,jsons/MX_seq52_2_VE250_flipped.json,243733,435993,24,Man
33,215907,final-intermixed-textured,v2,jsons/MX_seq52_2_VE250_flipped.json,http://54.235.29.9/FacialAge/BNav_EC2/DepthDuration/MX_fS_VE_MTurk/MX_fS_HTML.html#246,246,1536,864,1536,864,0-31-2024,19-11-35,34,catch_stimuli/c3_BC.png,250,,,0.0,2924,253,meters,jsons/MX_seq52_2_VE250_flipped.json,243733,435993,24,Man
34,215907,final-intermixed-textured,v2,jsons/MX_seq52_2_VE250_flipped.json,http://54.235.29.9/FacialAge/BNav_EC2/DepthDuration/MX_fS_VE_MTurk/MX_fS_HTML.html#246,246,1536,864,1536,864,0-31-2024,19-11-35,35,VR_target_stimuli/s39_0.75x_1_205.png,250,0.75x,1.0,1.5,6296,253,meters,jsons/MX_seq52_2_VE250_flipped.json,243733,435993,24,Man
35,215907,final-intermixed-textured,v2,jsons/MX_seq52_2_VE250_flipped.json,http://54.235.29.9/FacialAge/BNav_EC2/DepthDuration/MX_fS_VE_MTurk/MX_fS_HTML.html#246,246,1536,864,1536,864,0-31-2024,19-11-35,36,VR_target_stimuli/s51_1.3x_3.64_479_BC.png,250,1.3x,3.64,2.0,2650,252,meters,jsons/MX_seq52_2_VE250_flipped.json,243733,435993,24,Man
36,215907,final-intermixed-textured,v2,jsons/MX_seq52_2_VE250_flipped.json,http://54.235.29.9/FacialAge/BNav_EC2/DepthDuration/MX_fS_VE_MTurk/MX_fS_HTML.html#246,246,1536,864,1536,864,0-31-2024,19-11-35,37,VR_target_stimuli/s43_1x_2.2_354.png,250,1x,2.2,3.0,3122,253,meters,jsons/MX_seq52_2_VE250_flipped.json,243733,435993,24,Man
37,215907,final-intermixed-textured,v2,jsons/MX_seq52_2_VE250_flipped.json,http://54.235.29.9/FacialAge/BNav_EC2/DepthDuration/MX_fS_VE_MTurk/MX_fS_HTML.html#246,246,1536,864,1536,864,0-31-2024,19-11-35,38,VR_target_stimuli/s24_1x_3.3_349_BC.png,250,1x,3.3,4.0,3790,251,meters,jsons/MX_seq52_2_VE250_flipped.json,243733,435993,24,Man
38,215907,final-intermixed-textured,v2,jsons/MX_seq52_2_VE250_flipped.json,http://54.235.29.9/FacialAge/BNav_EC2/DepthDuration/MX_fS_VE_MTurk/MX_fS_HTML.html#246,246,1536,864,1536,864,0-31-2024,19-11-35,39,VR_target_stimuli/s10_0.75x_2.7_321_BC.png,250,0.75x,2.7,3.0,2680,252,meters,jsons/MX_seq52_2_VE250_flipped.json,243733,435993,24,Man
39,215907,final-intermixed-textured,v2,jsons/MX_seq52_2_VE250_flipped.json,http://54.235.29.9/FacialAge/BNav_EC2/DepthDuration/MX_fS_VE_MTurk/MX_fS_HTML.html#246,246,1536,864,1536,864,0-31-2024,19-11-35,40,VR_target_stimuli/s36_1.3x_4.1_442.png,250,1.3x,4.1,3.5,4330,252,meters,jsons/MX_seq52_2_VE250_flipped.json,243733,435993,24,Man
40,215907,final-intermixed-textured,v2,jsons/MX_seq52_2_VE250_flipped.json,http://54.235.29.9/FacialAge/BNav_EC2/DepthDuration/MX_fS_VE_MTurk/MX_fS_HTML.html#246,246,1536,864,1536,864,0-31-2024,19-11-35,41,VR_target_stimuli/s40_0.75x_1.2_308_BC.png,250,0.75x,1.2,1.5,7498,253,meters,jsons/MX_seq52_2_VE250_flipped.json,243733,435993,24,Man
41,215907,final-intermixed-textured,v2,jsons/MX_seq52_2_VE250_flipped.json,http://54.235.29.9/FacialAge/BNav_EC2/DepthDuration/MX_fS_VE_MTurk/MX_fS_HTML.html#246,246,1536,864,1536,864,0-31-2024,19-11-35,42,VR_target_stimuli/s41_1x_2.1_286.png,250,1x,2.1,2.0,2667,254,meters,jsons/MX_seq52_2_VE250_flipped.json,243733,435993,24,Man
42,215907,final-intermixed-textured,v2,jsons/MX_seq52_2_VE250_flipped.json,http://54.235.29.9/FacialAge/BNav_EC2/DepthDuration/MX_fS_VE_MTurk/MX_fS_HTML.html#246,246,1536,864,1536,864,0-31-2024,19-11-35,43,VR_target_stimuli/s45_1.3x_3.5_377_BC.png,250,1.3x,3.5,3.0,3456,252,meters,jsons/MX_seq52_2_VE250_flipped.json,243733,435993,24,Man
43,215907,final-intermixed-textured,v2,jsons/MX_seq52_2_VE250_flipped.json,http://54.235.29.9/FacialAge/BNav_EC2/DepthDuration/MX_fS_VE_MTurk/MX_fS_HTML.html#246,246,1536,864,1536,864,0-31-2024,19-11-35,44,VR_target_stimuli/s23_1x_3.65_353_BC.png,250,1x,3.65,2.5,3347,238,meters,jsons/MX_seq52_2_VE250_flipped.json,243733,435993,24,Man
44,215907,final-intermixed-textured,v2,jsons/MX_seq52_2_VE250_flipped.json,http://54.235.29.9/FacialAge/BNav_EC2/DepthDuration/MX_fS_VE_MTurk/MX_fS_HTML.html#246,246,1536,864,1536,864,0-31-2024,19-11-35,45,catch_stimuli/c4_BC.png,250,,,0.0,2388,251,meters,jsons/MX_seq52_2_VE250_flipped.json,243733,435993,24,Man
45,215907,final-intermixed-textured,v2,jsons/MX_seq52_2_VE250_flipped.json,http://54.235.29.9/FacialAge/BNav_EC2/DepthDuration/MX_fS_VE_MTurk/MX_fS_HTML.html#246,246,1536,864,1536,864,0-31-2024,19-11-35,46,VR_target_stimuli/s26_0.75x_4_430.png,250,0.75x,4.0,4.0,3224,251,meters,jsons/MX_seq52_2_VE250_flipped.json,243733,435993,24,Man
46,215907,final-intermixed-textured,v2,jsons/MX_seq52_2_VE250_flipped.json,http://54.235.29.9/FacialAge/BNav_EC2/DepthDuration/MX_fS_VE_MTurk/MX_fS_HTML.html#246,246,1536,864,1536,864,0-31-2024,19-11-35,47,VR_target_stimuli/s12_1.3x_3.1_375.png,250,1.3x,3.1,3.0,2121,254,meters,jsons/MX_seq52_2_VE250_flipped.json,243733,435993,24,Man
47,215907,final-intermixed-textured,v2,jsons/MX_seq52_2_VE250_flipped.json,http://54.235.29.9/FacialAge/BNav_EC2/DepthDuration/MX_fS_VE_MTurk/MX_fS_HTML.html#246,246,1536,864,1536,864,0-31-2024,19-11-35,48,VR_target_stimuli/s30_1.3x_2.3_337_BC.png,250,1.3x,2.3,3.0,3536,253,meters,jsons/MX_seq52_2_VE250_flipped.json,243733,435993,24,Man
48,215907,final-intermixed-textured,v2,jsons/MX_seq52_2_VE250_flipped.json,http://54.235.29.9/FacialAge/BNav_EC2/DepthDuration/MX_fS_VE_MTurk/MX_fS_HTML.html#246,246,1536,864,1536,864,0-31-2024,19-11-35,49,VR_target_stimuli/s16_1x_1_219.png,250,1x,1.0,1.5,5816,251,meters,jsons/MX_seq52_2_VE250_flipped.json,243733,435993,24,Man
49,215907,final-intermixed-textured,v2,jsons/MX_seq52_2_VE250_flipped.json,http://54.235.29.9/FacialAge/BNav_EC2/DepthDuration/MX_fS_VE_MTurk/MX_fS_HTML.html#246,246,1536,864,1536,864,0-31-2024,19-11-35,50,VR_target_stimuli/s17_0.75x_1.8_285_BC.png,250,0.75x,1.8,2.0,2137,251,meters,jsons/MX_seq52_2_VE250_flipped.json,243733,435993,24,Man
50,215907,final-intermixed-textured,v2,jsons/MX_seq52_2_VE250_flipped.json,http://54.235.29.9/FacialAge/BNav_EC2/DepthDuration/MX_fS_VE_MTurk/MX_fS_HTML.html#246,246,1536,864,1536,864,0-31-2024,19-11-35,51,VR_target_stimuli/s5_1x_4_378_BC.png,250,1x,4.0,3.0,2558,254,meters,jsons/MX_seq52_2_VE250_flipped.json,243733,435993,24,Man
51,215907,final-intermixed-textured,v2,jsons/MX_seq52_2_VE250_flipped.json,http://54.235.29.9/FacialAge/BNav_EC2/DepthDuration/MX_fS_VE_MTurk/MX_fS_HTML.html#246,246,1536,864,1536,864,0-31-2024,19-11-35,52,VR_target_stimuli/s37_1.3x_3.3_555.png,250,1.3x,3.3,1.0,3417,255,meters,jsons/MX_seq52_2_VE250_flipped.json,243733,435993,24,Man
52,215907,final-intermixed-textured,v2,jsons/MX_seq52_2_VE250_flipped.json,http://54.235.29.9/FacialAge/BNav_EC2/DepthDuration/MX_fS_VE_MTurk/MX_fS_HTML.html#246,246,1536,864,1536,864,0-31-2024,19-11-35,53,catch_stimuli/c5_BC.png,250,,,0.0,2084,253,meters,jsons/MX_seq52_2_VE250_flipped.json,243733,435993,24,Man
53,215907,final-intermixed-textured,v2,jsons/MX_seq52_2_VE250_flipped.json,http://54.235.29.9/FacialAge/BNav_EC2/DepthDuration/MX_fS_VE_MTurk/MX_fS_HTML.html#246,246,1536,864,1536,864,0-31-2024,19-11-35,54,VR_target_stimuli/s46_0.75x_2.42_343.png,250,0.75x,2.42,3.0,2555,252,meters,jsons/MX_seq52_2_VE250_flipped.json,243733,435993,24,Man
54,215907,final-intermixed-textured,v2,jsons/MX_seq52_2_VE250_flipped.json,http://54.235.29.9/FacialAge/BNav_EC2/DepthDuration/MX_fS_VE_MTurk/MX_fS_HTML.html#246,246,1536,864,1536,864,0-31-2024,19-11-35,55,VR_target_stimuli/s22_1.3x_4.29_364_BC.png,250,1.3x,4.29,4.0,2044,238,meters,jsons/MX_seq52_2_VE250_flipped.json,243733,435993,24,Man
55,215907,final-intermixed-textured,v2,jsons/MX_seq52_2_VE250_flipped.json,http://54.235.29.9/FacialAge/BNav_EC2/DepthDuration/MX_fS_VE_MTurk/MX_fS_HTML.html#246,246,1536,864,1536,864,0-31-2024,19-11-35,56,VR_target_stimuli/s42_1x_3.2_303_BC.png,250,1x,3.2,3.0,2075,251,meters,jsons/MX_seq52_2_VE250_flipped.json,243733,435993,24,Man
56,215907,final-intermixed-textured,v2,jsons/MX_seq52_2_VE250_flipped.json,http://54.235.29.9/FacialAge/BNav_EC2/DepthDuration/MX_fS_VE_MTurk/MX_fS_HTML.html#246,246,1536,864,1536,864,0-31-2024,19-11-35,57,VR_target_stimuli/s25_0.75x_1.4_281_BC.png,250,0.75x,1.4,1.5,3589,253,meters,jsons/MX_seq52_2_VE250_flipped.json,243733,435993,24,Man
57,215907,final-intermixed-textured,v2,jsons/MX_seq52_2_VE250_flipped.json,http://54.235.29.9/FacialAge/BNav_EC2/DepthDuration/MX_fS_VE_MTurk/MX_fS_HTML.html#246,246,1536,864,1536,864,0-31-2024,19-11-35,58,VR_target_stimuli/s50_0.75x_4.53_517.png,250,0.75x,4.53,2.0,2058,255,meters,jsons/MX_seq52_2_VE250_flipped.json,243733,435993,24,Man
58,215907,final-intermixed-textured,v2,jsons/MX_seq52_2_VE250_flipped.json,http://54.235.29.9/FacialAge/BNav_EC2/DepthDuration/MX_fS_VE_MTurk/MX_fS_HTML.html#246,246,1536,864,1536,864,0-31-2024,19-11-35,59,VR_target_stimuli/s53_1.3x_1.6_355.png,250,1.3x,1.6,1.0,2340,252,meters,jsons/MX_seq52_2_VE250_flipped.json,243733,435993,24,Man
59,215907,final-intermixed-textured,v2,jsons/MX_seq52_2_VE250_flipped.json,http://54.235.29.9/FacialAge/BNav_EC2/DepthDuration/MX_fS_VE_MTurk/MX_fS_HTML.html#246,246,1536,864,1536,864,0-31-2024,19-11-35,60,VR_target_stimuli/s38_1x_3.55_353.png,250,1x,3.55,3.0,2944,251,meters,jsons/MX_seq52_2_VE250_flipped.json,243733,435993,24,Man
