,subjID,experimentName,versionName,sequenceName,url,selected_row,windowWidth,windowHeight,screenWidth,screenHeight,startDate,startTime,trial,stimulus,duration,scale,actual_depth,depth_estimate,trial_RT,log_sceneDuration,unitSelection,seq_filepath,experimentTime,totalTime,age,gender
0,220978,final-intermixed-textured,v2,jsons/MX_seq26_1_VE250_flipped.json,http://54.235.29.9/FacialAge/BNav_EC2/DepthDuration/MX_fS_VE_MTurk/MX_fS_HTML.html#105,105,1920,953,1920,1080,0-31-2024,16-9-41,1,VR_target_stimuli/s32_1.3x_1.5_224_BC.png,250,1.3x,1.5,2,3754,251,meters,jsons/MX_seq26_1_VE250_flipped.json,180209,371178,26,Man
1,220978,final-intermixed-textured,v2,jsons/MX_seq26_1_VE250_flipped.json,http://54.235.29.9/FacialAge/BNav_EC2/DepthDuration/MX_fS_VE_MTurk/MX_fS_HTML.html#105,105,1920,953,1920,1080,0-31-2024,16-9-41,2,VR_target_stimuli/s18_0.75x_2.25_341.png,250,0.75x,2.25,3,2845,253,meters,jsons/MX_seq26_1_VE250_flipped.json,180209,371178,26,Man
2,220978,final-intermixed-textured,v2,jsons/MX_seq26_1_VE250_flipped.json,http://54.235.29.9/FacialAge/BNav_EC2/DepthDuration/MX_fS_VE_MTurk/MX_fS_HTML.html#105,105,1920,953,1920,1080,0-31-2024,16-9-41,3,VR_target_stimuli/s39_1x_1_207_BC.png,250,1x,1.0,1,4078,249,meters,jsons/MX_seq26_1_VE250_flipped.json,180209,371178,26,Man
3,220978,final-intermixed-textured,v2,jsons/MX_seq26_1_VE250_flipped.json,http://54.235.29.9/FacialAge/BNav_EC2/DepthDuration/MX_fS_VE_MTurk/MX_fS_HTML.html#105,105,1920,953,1920,1080,0-31-2024,16-9-41,4,VR_target_stimuli/s51_0.75x_3.64_460_BC.png,250,0.75x,3.64,2,2998,250,meters,jsons/MX_seq26_1_VE250_flipped.json,180209,371178,26,Man
4,220978,final-intermixed-textured,v2,jsons/MX_seq26_1_VE250_flipped.json,http://54.235.29.9/FacialAge/BNav_EC2/DepthDuration/MX_fS_VE_MTurk/MX_fS_HTML.html#105,105,1920,953,1920,1080,0-31-2024,16-9-41,5,VR_target_stimuli/s43_1.3x_2.2_363.png,250,1.3x,2.2,3,3255,250,meters,jsons/MX_seq26_1_VE250_flipped.json,180209,371178,26,Man
5,220978,final-intermixed-textured,v2,jsons/MX_seq26_1_VE250_flipped.json,http://54.235.29.9/FacialAge/BNav_EC2/DepthDuration/MX_fS_VE_MTurk/MX_fS_HTML.html#105,105,1920,953,1920,1080,0-31-2024,16-9-41,6,VR_target_stimuli/s24_1x_3.3_349.png,250,1x,3.3,4,2858,263,meters,jsons/MX_seq26_1_VE250_flipped.json,180209,371178,26,Man
6,220978,final-intermixed-textured,v2,jsons/MX_seq26_1_VE250_flipped.json,http://54.235.29.9/FacialAge/BNav_EC2/DepthDuration/MX_fS_VE_MTurk/MX_fS_HTML.html#105,105,1920,953,1920,1080,0-31-2024,16-9-41,7,catch_stimuli/c0_BC.png,250,,,0,2049,250,meters,jsons/MX_seq26_1_VE250_flipped.json,180209,371178,26,Man
7,220978,final-intermixed-textured,v2,jsons/MX_seq26_1_VE250_flipped.json,http://54.235.29.9/FacialAge/BNav_EC2/DepthDuration/MX_fS_VE_MTurk/MX_fS_HTML.html#105,105,1920,953,1920,1080,0-31-2024,16-9-41,8,VR_target_stimuli/s10_1x_2.7_324.png,250,1x,2.7,4,3752,248,meters,jsons/MX_seq26_1_VE250_flipped.json,180209,371178,26,Man
8,220978,final-intermixed-textured,v2,jsons/MX_seq26_1_VE250_flipped.json,http://54.235.29.9/FacialAge/BNav_EC2/DepthDuration/MX_fS_VE_MTurk/MX_fS_HTML.html#105,105,1920,953,1920,1080,0-31-2024,16-9-41,9,VR_target_stimuli/s36_0.75x_4.1_407.png,250,0.75x,4.1,5,2932,252,meters,jsons/MX_seq26_1_VE250_flipped.json,180209,371178,26,Man
9,220978,final-intermixed-textured,v2,jsons/MX_seq26_1_VE250_flipped.json,http://54.235.29.9/FacialAge/BNav_EC2/DepthDuration/MX_fS_VE_MTurk/MX_fS_HTML.html#105,105,1920,953,1920,1080,0-31-2024,16-9-41,10,VR_target_stimuli/s40_1.3x_1.2_332.png,250,1.3x,1.2,1,2616,247,meters,jsons/MX_seq26_1_VE250_flipped.json,180209,371178,26,Man
10,220978,final-intermixed-textured,v2,jsons/MX_seq26_1_VE250_flipped.json,http://54.235.29.9/FacialAge/BNav_EC2/DepthDuration/MX_fS_VE_MTurk/MX_fS_HTML.html#105,105,1920,953,1920,1080,0-31-2024,16-9-41,11,VR_target_stimuli/s41_0.75x_2.1_281_BC.png,250,0.75x,2.1,2,2857,250,meters,jsons/MX_seq26_1_VE250_flipped.json,180209,371178,26,Man
11,220978,final-intermixed-textured,v2,jsons/MX_seq26_1_VE250_flipped.json,http://54.235.29.9/FacialAge/BNav_EC2/DepthDuration/MX_fS_VE_MTurk/MX_fS_HTML.html#105,105,1920,953,1920,1080,0-31-2024,16-9-41,12,VR_target_stimuli/s45_1x_3.5_368_BC.png,250,1x,3.5,2,1907,251,meters,jsons/MX_seq26_1_VE250_flipped.json,180209,371178,26,Man
12,220978,final-intermixed-textured,v2,jsons/MX_seq26_1_VE250_flipped.json,http://54.235.29.9/FacialAge/BNav_EC2/DepthDuration/MX_fS_VE_MTurk/MX_fS_HTML.html#105,105,1920,953,1920,1080,0-31-2024,16-9-41,13,VR_target_stimuli/s23_1.3x_3.65_354_BC.png,250,1.3x,3.65,3,2636,263,meters,jsons/MX_seq26_1_VE250_flipped.json,180209,371178,26,Man
13,220978,final-intermixed-textured,v2,jsons/MX_seq26_1_VE250_flipped.json,http://54.235.29.9/FacialAge/BNav_EC2/DepthDuration/MX_fS_VE_MTurk/MX_fS_HTML.html#105,105,1920,953,1920,1080,0-31-2024,16-9-41,14,VR_target_stimuli/s26_1x_4_433.png,250,1x,4.0,4,2522,263,meters,jsons/MX_seq26_1_VE250_flipped.json,180209,371178,26,Man
14,220978,final-intermixed-textured,v2,jsons/MX_seq26_1_VE250_flipped.json,http://54.235.29.9/FacialAge/BNav_EC2/DepthDuration/MX_fS_VE_MTurk/MX_fS_HTML.html#105,105,1920,953,1920,1080,0-31-2024,16-9-41,15,VR_target_stimuli/s12_0.75x_3.1_364_BC.png,250,0.75x,3.1,3,2503,250,meters,jsons/MX_seq26_1_VE250_flipped.json,180209,371178,26,Man
15,220978,final-intermixed-textured,v2,jsons/MX_seq26_1_VE250_flipped.json,http://54.235.29.9/FacialAge/BNav_EC2/DepthDuration/MX_fS_VE_MTurk/MX_fS_HTML.html#105,105,1920,953,1920,1080,0-31-2024,16-9-41,16,VR_target_stimuli/s30_1.3x_2.3_337_BC.png,250,1.3x,2.3,2,2263,250,meters,jsons/MX_seq26_1_VE250_flipped.json,180209,371178,26,Man
16,220978,final-intermixed-textured,v2,jsons/MX_seq26_1_VE250_flipped.json,http://54.235.29.9/FacialAge/BNav_EC2/DepthDuration/MX_fS_VE_MTurk/MX_fS_HTML.html#105,105,1920,953,1920,1080,0-31-2024,16-9-41,17,catch_stimuli/c1_BC.png,250,,,0,1999,247,meters,jsons/MX_seq26_1_VE250_flipped.json,180209,371178,26,Man
17,220978,final-intermixed-textured,v2,jsons/MX_seq26_1_VE250_flipped.json,http://54.235.29.9/FacialAge/BNav_EC2/DepthDuration/MX_fS_VE_MTurk/MX_fS_HTML.html#105,105,1920,953,1920,1080,0-31-2024,16-9-41,18,VR_target_stimuli/s16_1.3x_1_223.png,250,1.3x,1.0,1,2552,240,meters,jsons/MX_seq26_1_VE250_flipped.json,180209,371178,26,Man
18,220978,final-intermixed-textured,v2,jsons/MX_seq26_1_VE250_flipped.json,http://54.235.29.9/FacialAge/BNav_EC2/DepthDuration/MX_fS_VE_MTurk/MX_fS_HTML.html#105,105,1920,953,1920,1080,0-31-2024,16-9-41,19,VR_target_stimuli/s17_1x_1.8_291_BC.png,250,1x,1.8,2,1937,250,meters,jsons/MX_seq26_1_VE250_flipped.json,180209,371178,26,Man
19,220978,final-intermixed-textured,v2,jsons/MX_seq26_1_VE250_flipped.json,http://54.235.29.9/FacialAge/BNav_EC2/DepthDuration/MX_fS_VE_MTurk/MX_fS_HTML.html#105,105,1920,953,1920,1080,0-31-2024,16-9-41,20,VR_target_stimuli/s5_0.75x_4_375.png,250,0.75x,4.0,4,2452,249,meters,jsons/MX_seq26_1_VE250_flipped.json,180209,371178,26,Man
20,220978,final-intermixed-textured,v2,jsons/MX_seq26_1_VE250_flipped.json,http://54.235.29.9/FacialAge/BNav_EC2/DepthDuration/MX_fS_VE_MTurk/MX_fS_HTML.html#105,105,1920,953,1920,1080,0-31-2024,16-9-41,21,VR_target_stimuli/s37_1x_3.3_563.png,250,1x,3.3,1,2351,249,meters,jsons/MX_seq26_1_VE250_flipped.json,180209,371178,26,Man
21,220978,final-intermixed-textured,v2,jsons/MX_seq26_1_VE250_flipped.json,http://54.235.29.9/FacialAge/BNav_EC2/DepthDuration/MX_fS_VE_MTurk/MX_fS_HTML.html#105,105,1920,953,1920,1080,0-31-2024,16-9-41,22,VR_target_stimuli/s46_1.3x_2.42_354_BC.png,250,1.3x,2.42,3,2366,253,meters,jsons/MX_seq26_1_VE250_flipped.json,180209,371178,26,Man
22,220978,final-intermixed-textured,v2,jsons/MX_seq26_1_VE250_flipped.json,http://54.235.29.9/FacialAge/BNav_EC2/DepthDuration/MX_fS_VE_MTurk/MX_fS_HTML.html#105,105,1920,953,1920,1080,0-31-2024,16-9-41,23,VR_target_stimuli/s22_0.75x_4.29_348.png,250,0.75x,4.29,5,2191,251,meters,jsons/MX_seq26_1_VE250_flipped.json,180209,371178,26,Man
23,220978,final-intermixed-textured,v2,jsons/MX_seq26_1_VE250_flipped.json,http://54.235.29.9/FacialAge/BNav_EC2/DepthDuration/MX_fS_VE_MTurk/MX_fS_HTML.html#105,105,1920,953,1920,1080,0-31-2024,16-9-41,24,VR_target_stimuli/s42_1.3x_3.2_305.png,250,1.3x,3.2,4,1898,251,meters,jsons/MX_seq26_1_VE250_flipped.json,180209,371178,26,Man
24,220978,final-intermixed-textured,v2,jsons/MX_seq26_1_VE250_flipped.json,http://54.235.29.9/FacialAge/BNav_EC2/DepthDuration/MX_fS_VE_MTurk/MX_fS_HTML.html#105,105,1920,953,1920,1080,0-31-2024,16-9-41,25,VR_target_stimuli/s25_1x_1.4_290_BC.png,250,1x,1.4,2,2008,246,meters,jsons/MX_seq26_1_VE250_flipped.json,180209,371178,26,Man
25,220978,final-intermixed-textured,v2,jsons/MX_seq26_1_VE250_flipped.json,http://54.235.29.9/FacialAge/BNav_EC2/DepthDuration/MX_fS_VE_MTurk/MX_fS_HTML.html#105,105,1920,953,1920,1080,0-31-2024,16-9-41,26,catch_stimuli/c2_BC.png,250,,,0,2009,250,meters,jsons/MX_seq26_1_VE250_flipped.json,180209,371178,26,Man
26,220978,final-intermixed-textured,v2,jsons/MX_seq26_1_VE250_flipped.json,http://54.235.29.9/FacialAge/BNav_EC2/DepthDuration/MX_fS_VE_MTurk/MX_fS_HTML.html#105,105,1920,953,1920,1080,0-31-2024,16-9-41,27,VR_target_stimuli/s50_0.75x_4.53_517_BC.png,250,0.75x,4.53,4,3539,247,meters,jsons/MX_seq26_1_VE250_flipped.json,180209,371178,26,Man
27,220978,final-intermixed-textured,v2,jsons/MX_seq26_1_VE250_flipped.json,http://54.235.29.9/FacialAge/BNav_EC2/DepthDuration/MX_fS_VE_MTurk/MX_fS_HTML.html#105,105,1920,953,1920,1080,0-31-2024,16-9-41,28,VR_target_stimuli/s53_0.75x_1.6_403.png,250,0.75x,1.6,1,2217,250,meters,jsons/MX_seq26_1_VE250_flipped.json,180209,371178,26,Man
28,220978,final-intermixed-textured,v2,jsons/MX_seq26_1_VE250_flipped.json,http://54.235.29.9/FacialAge/BNav_EC2/DepthDuration/MX_fS_VE_MTurk/MX_fS_HTML.html#105,105,1920,953,1920,1080,0-31-2024,16-9-41,29,VR_target_stimuli/s38_1.3x_3.55_358.png,250,1.3x,3.55,3,4418,251,meters,jsons/MX_seq26_1_VE250_flipped.json,180209,371178,26,Man
29,220978,final-intermixed-textured,v2,jsons/MX_seq26_1_VE250_flipped.json,http://54.235.29.9/FacialAge/BNav_EC2/DepthDuration/MX_fS_VE_MTurk/MX_fS_HTML.html#105,105,1920,953,1920,1080,0-31-2024,16-9-41,30,VR_target_stimuli/s9_1x_1.2_263.png,250,1x,1.2,2,2147,251,meters,jsons/MX_seq26_1_VE250_flipped.json,180209,371178,26,Man
30,220978,final-intermixed-textured,v2,jsons/MX_seq26_1_VE250_flipped.json,http://54.235.29.9/FacialAge/BNav_EC2/DepthDuration/MX_fS_VE_MTurk/MX_fS_HTML.html#105,105,1920,953,1920,1080,0-31-2024,16-9-41,31,VR_target_stimuli/s44_0.75x_4.4_314_BC.png,250,0.75x,4.4,1,2682,250,meters,jsons/MX_seq26_1_VE250_flipped.json,180209,371178,26,Man
31,220978,final-intermixed-textured,v2,jsons/MX_seq26_1_VE250_flipped.json,http://54.235.29.9/FacialAge/BNav_EC2/DepthDuration/MX_fS_VE_MTurk/MX_fS_HTML.html#105,105,1920,953,1920,1080,0-31-2024,16-9-41,32,VR_target_stimuli/s3_1x_5_385_BC.png,250,1x,5.0,4,2173,241,meters,jsons/MX_seq26_1_VE250_flipped.json,180209,371178,26,Man
32,220978,final-intermixed-textured,v2,jsons/MX_seq26_1_VE250_flipped.json,http://54.235.29.9/FacialAge/BNav_EC2/DepthDuration/MX_fS_VE_MTurk/MX_fS_HTML.html#105,105,1920,953,1920,1080,0-31-2024,16-9-41,33,VR_target_stimuli/s1_1.3x_1.7_261_BC.png,250,1.3x,1.7,2,2362,251,meters,jsons/MX_seq26_1_VE250_flipped.json,180209,371178,26,Man
33,220978,final-intermixed-textured,v2,jsons/MX_seq26_1_VE250_flipped.json,http://54.235.29.9/FacialAge/BNav_EC2/DepthDuration/MX_fS_VE_MTurk/MX_fS_HTML.html#105,105,1920,953,1920,1080,0-31-2024,16-9-41,34,catch_stimuli/c3_BC.png,250,,,0,1812,250,meters,jsons/MX_seq26_1_VE250_flipped.json,180209,371178,26,Man
34,220978,final-intermixed-textured,v2,jsons/MX_seq26_1_VE250_flipped.json,http://54.235.29.9/FacialAge/BNav_EC2/DepthDuration/MX_fS_VE_MTurk/MX_fS_HTML.html#105,105,1920,953,1920,1080,0-31-2024,16-9-41,35,VR_target_stimuli/s11_1x_5_361_BC.png,250,1x,5.0,4,1803,250,meters,jsons/MX_seq26_1_VE250_flipped.json,180209,371178,26,Man
35,220978,final-intermixed-textured,v2,jsons/MX_seq26_1_VE250_flipped.json,http://54.235.29.9/FacialAge/BNav_EC2/DepthDuration/MX_fS_VE_MTurk/MX_fS_HTML.html#105,105,1920,953,1920,1080,0-31-2024,16-9-41,36,VR_target_stimuli/s2_0.75x_2.7_384.png,250,0.75x,2.7,3,2734,251,meters,jsons/MX_seq26_1_VE250_flipped.json,180209,371178,26,Man
36,220978,final-intermixed-textured,v2,jsons/MX_seq26_1_VE250_flipped.json,http://54.235.29.9/FacialAge/BNav_EC2/DepthDuration/MX_fS_VE_MTurk/MX_fS_HTML.html#105,105,1920,953,1920,1080,0-31-2024,16-9-41,37,VR_target_stimuli/s6_1.3x_2.1_298.png,250,1.3x,2.1,2,2376,248,meters,jsons/MX_seq26_1_VE250_flipped.json,180209,371178,26,Man
37,220978,final-intermixed-textured,v2,jsons/MX_seq26_1_VE250_flipped.json,http://54.235.29.9/FacialAge/BNav_EC2/DepthDuration/MX_fS_VE_MTurk/MX_fS_HTML.html#105,105,1920,953,1920,1080,0-31-2024,16-9-41,38,VR_target_stimuli/s0_1.3x_2.6_356_BC.png,250,1.3x,2.6,2,1804,235,meters,jsons/MX_seq26_1_VE250_flipped.json,180209,371178,26,Man
38,220978,final-intermixed-textured,v2,jsons/MX_seq26_1_VE250_flipped.json,http://54.235.29.9/FacialAge/BNav_EC2/DepthDuration/MX_fS_VE_MTurk/MX_fS_HTML.html#105,105,1920,953,1920,1080,0-31-2024,16-9-41,39,VR_target_stimuli/s34_1x_2.8_283.png,250,1x,2.8,3,2625,250,meters,jsons/MX_seq26_1_VE250_flipped.json,180209,371178,26,Man
39,220978,final-intermixed-textured,v2,jsons/MX_seq26_1_VE250_flipped.json,http://54.235.29.9/FacialAge/BNav_EC2/DepthDuration/MX_fS_VE_MTurk/MX_fS_HTML.html#105,105,1920,953,1920,1080,0-31-2024,16-9-41,40,VR_target_stimuli/s13_0.75x_2.4_308_BC.png,250,0.75x,2.4,4,1784,251,meters,jsons/MX_seq26_1_VE250_flipped.json,180209,371178,26,Man
40,220978,final-intermixed-textured,v2,jsons/MX_seq26_1_VE250_flipped.json,http://54.235.29.9/FacialAge/BNav_EC2/DepthDuration/MX_fS_VE_MTurk/MX_fS_HTML.html#105,105,1920,953,1920,1080,0-31-2024,16-9-41,41,VR_target_stimuli/s14_1x_ 3.83_357_BC.png,250,1x,3.83,4,1672,251,meters,jsons/MX_seq26_1_VE250_flipped.json,180209,371178,26,Man
41,220978,final-intermixed-textured,v2,jsons/MX_seq26_1_VE250_flipped.json,http://54.235.29.9/FacialAge/BNav_EC2/DepthDuration/MX_fS_VE_MTurk/MX_fS_HTML.html#105,105,1920,953,1920,1080,0-31-2024,16-9-41,42,VR_target_stimuli/s47_1.3x_3.45_373_BC.png,250,1.3x,3.45,3,2170,250,meters,jsons/MX_seq26_1_VE250_flipped.json,180209,371178,26,Man
42,220978,final-intermixed-textured,v2,jsons/MX_seq26_1_VE250_flipped.json,http://54.235.29.9/FacialAge/BNav_EC2/DepthDuration/MX_fS_VE_MTurk/MX_fS_HTML.html#105,105,1920,953,1920,1080,0-31-2024,16-9-41,43,VR_target_stimuli/s29_0.75x_1.3_246_BC.png,250,0.75x,1.3,2,2216,248,meters,jsons/MX_seq26_1_VE250_flipped.json,180209,371178,26,Man
43,220978,final-intermixed-textured,v2,jsons/MX_seq26_1_VE250_flipped.json,http://54.235.29.9/FacialAge/BNav_EC2/DepthDuration/MX_fS_VE_MTurk/MX_fS_HTML.html#105,105,1920,953,1920,1080,0-31-2024,16-9-41,44,VR_target_stimuli/s28_1.3x_3.2_365.png,250,1.3x,3.2,3,1989,248,meters,jsons/MX_seq26_1_VE250_flipped.json,180209,371178,26,Man
44,220978,final-intermixed-textured,v2,jsons/MX_seq26_1_VE250_flipped.json,http://54.235.29.9/FacialAge/BNav_EC2/DepthDuration/MX_fS_VE_MTurk/MX_fS_HTML.html#105,105,1920,953,1920,1080,0-31-2024,16-9-41,45,catch_stimuli/c4_BC.png,250,,,0,3035,249,meters,jsons/MX_seq26_1_VE250_flipped.json,180209,371178,26,Man
45,220978,final-intermixed-textured,v2,jsons/MX_seq26_1_VE250_flipped.json,http://54.235.29.9/FacialAge/BNav_EC2/DepthDuration/MX_fS_VE_MTurk/MX_fS_HTML.html#105,105,1920,953,1920,1080,0-31-2024,16-9-41,46,VR_target_stimuli/s48_1x_2.55_256.png,250,1x,2.55,3,3137,249,meters,jsons/MX_seq26_1_VE250_flipped.json,180209,371178,26,Man
46,220978,final-intermixed-textured,v2,jsons/MX_seq26_1_VE250_flipped.json,http://54.235.29.9/FacialAge/BNav_EC2/DepthDuration/MX_fS_VE_MTurk/MX_fS_HTML.html#105,105,1920,953,1920,1080,0-31-2024,16-9-41,47,VR_target_stimuli/s19_0.75x_1.21_257.png,250,0.75x,1.21,2,1893,249,meters,jsons/MX_seq26_1_VE250_flipped.json,180209,371178,26,Man
47,220978,final-intermixed-textured,v2,jsons/MX_seq26_1_VE250_flipped.json,http://54.235.29.9/FacialAge/BNav_EC2/DepthDuration/MX_fS_VE_MTurk/MX_fS_HTML.html#105,105,1920,953,1920,1080,0-31-2024,16-9-41,48,VR_target_stimuli/s21_0.75x_4.22_374.png,250,0.75x,4.22,5,2139,242,meters,jsons/MX_seq26_1_VE250_flipped.json,180209,371178,26,Man
48,220978,final-intermixed-textured,v2,jsons/MX_seq26_1_VE250_flipped.json,http://54.235.29.9/FacialAge/BNav_EC2/DepthDuration/MX_fS_VE_MTurk/MX_fS_HTML.html#105,105,1920,953,1920,1080,0-31-2024,16-9-41,49,VR_target_stimuli/s8_1.3x_3.1_345_BC.png,250,1.3x,3.1,3,2163,252,meters,jsons/MX_seq26_1_VE250_flipped.json,180209,371178,26,Man
49,220978,final-intermixed-textured,v2,jsons/MX_seq26_1_VE250_flipped.json,http://54.235.29.9/FacialAge/BNav_EC2/DepthDuration/MX_fS_VE_MTurk/MX_fS_HTML.html#105,105,1920,953,1920,1080,0-31-2024,16-9-41,50,VR_target_stimuli/s27_1x_1.76_248.png,250,1x,1.76,2,2395,250,meters,jsons/MX_seq26_1_VE250_flipped.json,180209,371178,26,Man
50,220978,final-intermixed-textured,v2,jsons/MX_seq26_1_VE250_flipped.json,http://54.235.29.9/FacialAge/BNav_EC2/DepthDuration/MX_fS_VE_MTurk/MX_fS_HTML.html#105,105,1920,953,1920,1080,0-31-2024,16-9-41,51,VR_target_stimuli/s15_1.3x_4.2_389.png,250,1.3x,4.2,4,3376,249,meters,jsons/MX_seq26_1_VE250_flipped.json,180209,371178,26,Man
51,220978,final-intermixed-textured,v2,jsons/MX_seq26_1_VE250_flipped.json,http://54.235.29.9/FacialAge/BNav_EC2/DepthDuration/MX_fS_VE_MTurk/MX_fS_HTML.html#105,105,1920,953,1920,1080,0-31-2024,16-9-41,52,VR_target_stimuli/s4_0.75x_1.4_301_BC.png,250,0.75x,1.4,1,1692,251,meters,jsons/MX_seq26_1_VE250_flipped.json,180209,371178,26,Man
52,220978,final-intermixed-textured,v2,jsons/MX_seq26_1_VE250_flipped.json,http://54.235.29.9/FacialAge/BNav_EC2/DepthDuration/MX_fS_VE_MTurk/MX_fS_HTML.html#105,105,1920,953,1920,1080,0-31-2024,16-9-41,53,catch_stimuli/c5_BC.png,250,,,0,1757,248,meters,jsons/MX_seq26_1_VE250_flipped.json,180209,371178,26,Man
53,220978,final-intermixed-textured,v2,jsons/MX_seq26_1_VE250_flipped.json,http://54.235.29.9/FacialAge/BNav_EC2/DepthDuration/MX_fS_VE_MTurk/MX_fS_HTML.html#105,105,1920,953,1920,1080,0-31-2024,16-9-41,54,VR_target_stimuli/s35_1x_2_331_BC.png,250,1x,2.0,1,1995,252,meters,jsons/MX_seq26_1_VE250_flipped.json,180209,371178,26,Man
54,220978,final-intermixed-textured,v2,jsons/MX_seq26_1_VE250_flipped.json,http://54.235.29.9/FacialAge/BNav_EC2/DepthDuration/MX_fS_VE_MTurk/MX_fS_HTML.html#105,105,1920,953,1920,1080,0-31-2024,16-9-41,55,VR_target_stimuli/s49_0.75x_4.67_328.png,250,0.75x,4.67,4,4679,252,meters,jsons/MX_seq26_1_VE250_flipped.json,180209,371178,26,Man
55,220978,final-intermixed-textured,v2,jsons/MX_seq26_1_VE250_flipped.json,http://54.235.29.9/FacialAge/BNav_EC2/DepthDuration/MX_fS_VE_MTurk/MX_fS_HTML.html#105,105,1920,953,1920,1080,0-31-2024,16-9-41,56,VR_target_stimuli/s7_1.3x_1.5_256_BC.png,250,1.3x,1.5,2,2520,250,meters,jsons/MX_seq26_1_VE250_flipped.json,180209,371178,26,Man
56,220978,final-intermixed-textured,v2,jsons/MX_seq26_1_VE250_flipped.json,http://54.235.29.9/FacialAge/BNav_EC2/DepthDuration/MX_fS_VE_MTurk/MX_fS_HTML.html#105,105,1920,953,1920,1080,0-31-2024,16-9-41,57,VR_target_stimuli/s20_1x_4.99_398.png,250,1x,4.99,4,2058,251,meters,jsons/MX_seq26_1_VE250_flipped.json,180209,371178,26,Man
57,220978,final-intermixed-textured,v2,jsons/MX_seq26_1_VE250_flipped.json,http://54.235.29.9/FacialAge/BNav_EC2/DepthDuration/MX_fS_VE_MTurk/MX_fS_HTML.html#105,105,1920,953,1920,1080,0-31-2024,16-9-41,58,VR_target_stimuli/s31_1x_4.96_333_BC.png,250,1x,4.96,5,2890,248,meters,jsons/MX_seq26_1_VE250_flipped.json,180209,371178,26,Man
58,220978,final-intermixed-textured,v2,jsons/MX_seq26_1_VE250_flipped.json,http://54.235.29.9/FacialAge/BNav_EC2/DepthDuration/MX_fS_VE_MTurk/MX_fS_HTML.html#105,105,1920,953,1920,1080,0-31-2024,16-9-41,59,VR_target_stimuli/s33_0.75x_3.1_361_BC.png,250,0.75x,3.1,4,2010,251,meters,jsons/MX_seq26_1_VE250_flipped.json,180209,371178,26,Man
59,220978,final-intermixed-textured,v2,jsons/MX_seq26_1_VE250_flipped.json,http://54.235.29.9/FacialAge/BNav_EC2/DepthDuration/MX_fS_VE_MTurk/MX_fS_HTML.html#105,105,1920,953,1920,1080,0-31-2024,16-9-41,60,VR_target_stimuli/s52_1.3x_3.2_280.png,250,1.3x,3.2,5,1893,237,meters,jsons/MX_seq26_1_VE250_flipped.json,180209,371178,26,Man
