,subjID,experimentName,versionName,sequenceName,url,selected_row,windowWidth,windowHeight,screenWidth,screenHeight,startDate,startTime,trial,stimulus,duration,scale,actual_depth,depth_estimate,trial_RT,log_sceneDuration,unitSelection,seq_filepath,experimentTime,totalTime,age,gender
0,238765,final-intermixed-textured,v2,jsons/MX_seq19_1_VE250_flipped.json,http://54.235.29.9/FacialAge/BNav_EC2/DepthDuration/MX_fS_VE_MTurk/MX_fS_HTML.html#303,303,1920,1080,1920,1080,0-31-2024,20-11-57,1,VR_target_stimuli/s35_1.3x_2_338.png,250,1.3x,2.0,1.5,9679,247,meters,jsons/MX_seq19_1_VE250_flipped.json,348127,653380,28,Woman
1,238765,final-intermixed-textured,v2,jsons/MX_seq19_1_VE250_flipped.json,http://54.235.29.9/FacialAge/BNav_EC2/DepthDuration/MX_fS_VE_MTurk/MX_fS_HTML.html#303,303,1920,1080,1920,1080,0-31-2024,20-11-57,2,VR_target_stimuli/s49_0.75x_4.67_328_BC.png,250,0.75x,4.67,3.0,5264,247,meters,jsons/MX_seq19_1_VE250_flipped.json,348127,653380,28,Woman
2,238765,final-intermixed-textured,v2,jsons/MX_seq19_1_VE250_flipped.json,http://54.235.29.9/FacialAge/BNav_EC2/DepthDuration/MX_fS_VE_MTurk/MX_fS_HTML.html#303,303,1920,1080,1920,1080,0-31-2024,20-11-57,3,VR_target_stimuli/s7_1x_1.5_255.png,250,1x,1.5,2.0,9099,255,meters,jsons/MX_seq19_1_VE250_flipped.json,348127,653380,28,Woman
3,238765,final-intermixed-textured,v2,jsons/MX_seq19_1_VE250_flipped.json,http://54.235.29.9/FacialAge/BNav_EC2/DepthDuration/MX_fS_VE_MTurk/MX_fS_HTML.html#303,303,1920,1080,1920,1080,0-31-2024,20-11-57,4,VR_target_stimuli/s20_0.75x_4.99_390.png,250,0.75x,4.99,0.0,5371,250,meters,jsons/MX_seq19_1_VE250_flipped.json,348127,653380,28,Woman
4,238765,final-intermixed-textured,v2,jsons/MX_seq19_1_VE250_flipped.json,http://54.235.29.9/FacialAge/BNav_EC2/DepthDuration/MX_fS_VE_MTurk/MX_fS_HTML.html#303,303,1920,1080,1920,1080,0-31-2024,20-11-57,5,VR_target_stimuli/s31_1.3x_4.96_342_BC.png,250,1.3x,4.96,2.0,5427,256,meters,jsons/MX_seq19_1_VE250_flipped.json,348127,653380,28,Woman
5,238765,final-intermixed-textured,v2,jsons/MX_seq19_1_VE250_flipped.json,http://54.235.29.9/FacialAge/BNav_EC2/DepthDuration/MX_fS_VE_MTurk/MX_fS_HTML.html#303,303,1920,1080,1920,1080,0-31-2024,20-11-57,6,VR_target_stimuli/s33_1x_3.1_366_BC.png,250,1x,3.1,1.5,19403,253,meters,jsons/MX_seq19_1_VE250_flipped.json,348127,653380,28,Woman
6,238765,final-intermixed-textured,v2,jsons/MX_seq19_1_VE250_flipped.json,http://54.235.29.9/FacialAge/BNav_EC2/DepthDuration/MX_fS_VE_MTurk/MX_fS_HTML.html#303,303,1920,1080,1920,1080,0-31-2024,20-11-57,7,catch_stimuli/c0_BC.png,250,,,0.0,5648,246,meters,jsons/MX_seq19_1_VE250_flipped.json,348127,653380,28,Woman
7,238765,final-intermixed-textured,v2,jsons/MX_seq19_1_VE250_flipped.json,http://54.235.29.9/FacialAge/BNav_EC2/DepthDuration/MX_fS_VE_MTurk/MX_fS_HTML.html#303,303,1920,1080,1920,1080,0-31-2024,20-11-57,8,VR_target_stimuli/s52_1x_3.2_275_BC.png,250,1x,3.2,3.5,7993,254,meters,jsons/MX_seq19_1_VE250_flipped.json,348127,653380,28,Woman
8,238765,final-intermixed-textured,v2,jsons/MX_seq19_1_VE250_flipped.json,http://54.235.29.9/FacialAge/BNav_EC2/DepthDuration/MX_fS_VE_MTurk/MX_fS_HTML.html#303,303,1920,1080,1920,1080,0-31-2024,20-11-57,9,VR_target_stimuli/s32_0.75x_1.5_213.png,250,0.75x,1.5,2.0,3718,254,meters,jsons/MX_seq19_1_VE250_flipped.json,348127,653380,28,Woman
9,238765,final-intermixed-textured,v2,jsons/MX_seq19_1_VE250_flipped.json,http://54.235.29.9/FacialAge/BNav_EC2/DepthDuration/MX_fS_VE_MTurk/MX_fS_HTML.html#303,303,1920,1080,1920,1080,0-31-2024,20-11-57,10,VR_target_stimuli/s18_1.3x_2.25_368.png,250,1.3x,2.25,1.0,3416,240,meters,jsons/MX_seq19_1_VE250_flipped.json,348127,653380,28,Woman
10,238765,final-intermixed-textured,v2,jsons/MX_seq19_1_VE250_flipped.json,http://54.235.29.9/FacialAge/BNav_EC2/DepthDuration/MX_fS_VE_MTurk/MX_fS_HTML.html#303,303,1920,1080,1920,1080,0-31-2024,20-11-57,11,VR_target_stimuli/s39_0.75x_1_205_BC.png,250,0.75x,1.0,1.0,9563,261,meters,jsons/MX_seq19_1_VE250_flipped.json,348127,653380,28,Woman
11,238765,final-intermixed-textured,v2,jsons/MX_seq19_1_VE250_flipped.json,http://54.235.29.9/FacialAge/BNav_EC2/DepthDuration/MX_fS_VE_MTurk/MX_fS_HTML.html#303,303,1920,1080,1920,1080,0-31-2024,20-11-57,12,VR_target_stimuli/s51_1x_3.64_461.png,250,1x,3.64,2.0,3401,253,meters,jsons/MX_seq19_1_VE250_flipped.json,348127,653380,28,Woman
12,238765,final-intermixed-textured,v2,jsons/MX_seq19_1_VE250_flipped.json,http://54.235.29.9/FacialAge/BNav_EC2/DepthDuration/MX_fS_VE_MTurk/MX_fS_HTML.html#303,303,1920,1080,1920,1080,0-31-2024,20-11-57,13,VR_target_stimuli/s43_1.3x_2.2_363_BC.png,250,1.3x,2.2,3.0,5510,252,meters,jsons/MX_seq19_1_VE250_flipped.json,348127,653380,28,Woman
13,238765,final-intermixed-textured,v2,jsons/MX_seq19_1_VE250_flipped.json,http://54.235.29.9/FacialAge/BNav_EC2/DepthDuration/MX_fS_VE_MTurk/MX_fS_HTML.html#303,303,1920,1080,1920,1080,0-31-2024,20-11-57,14,VR_target_stimuli/s24_1x_3.3_349.png,250,1x,3.3,5.0,8073,252,meters,jsons/MX_seq19_1_VE250_flipped.json,348127,653380,28,Woman
14,238765,final-intermixed-textured,v2,jsons/MX_seq19_1_VE250_flipped.json,http://54.235.29.9/FacialAge/BNav_EC2/DepthDuration/MX_fS_VE_MTurk/MX_fS_HTML.html#303,303,1920,1080,1920,1080,0-31-2024,20-11-57,15,VR_target_stimuli/s10_0.75x_2.7_321.png,250,0.75x,2.7,3.0,3399,254,meters,jsons/MX_seq19_1_VE250_flipped.json,348127,653380,28,Woman
15,238765,final-intermixed-textured,v2,jsons/MX_seq19_1_VE250_flipped.json,http://54.235.29.9/FacialAge/BNav_EC2/DepthDuration/MX_fS_VE_MTurk/MX_fS_HTML.html#303,303,1920,1080,1920,1080,0-31-2024,20-11-57,16,VR_target_stimuli/s36_1.3x_4.1_442_BC.png,250,1.3x,4.1,4.0,3219,262,meters,jsons/MX_seq19_1_VE250_flipped.json,348127,653380,28,Woman
16,238765,final-intermixed-textured,v2,jsons/MX_seq19_1_VE250_flipped.json,http://54.235.29.9/FacialAge/BNav_EC2/DepthDuration/MX_fS_VE_MTurk/MX_fS_HTML.html#303,303,1920,1080,1920,1080,0-31-2024,20-11-57,17,catch_stimuli/c1_BC.png,250,,,0.0,2903,249,meters,jsons/MX_seq19_1_VE250_flipped.json,348127,653380,28,Woman
17,238765,final-intermixed-textured,v2,jsons/MX_seq19_1_VE250_flipped.json,http://54.235.29.9/FacialAge/BNav_EC2/DepthDuration/MX_fS_VE_MTurk/MX_fS_HTML.html#303,303,1920,1080,1920,1080,0-31-2024,20-11-57,18,VR_target_stimuli/s40_1.3x_1.2_332.png,250,1.3x,1.2,1.5,7950,238,meters,jsons/MX_seq19_1_VE250_flipped.json,348127,653380,28,Woman
18,238765,final-intermixed-textured,v2,jsons/MX_seq19_1_VE250_flipped.json,http://54.235.29.9/FacialAge/BNav_EC2/DepthDuration/MX_fS_VE_MTurk/MX_fS_HTML.html#303,303,1920,1080,1920,1080,0-31-2024,20-11-57,19,VR_target_stimuli/s41_1x_2.1_286_BC.png,250,1x,2.1,0.0,3278,258,meters,jsons/MX_seq19_1_VE250_flipped.json,348127,653380,28,Woman
19,238765,final-intermixed-textured,v2,jsons/MX_seq19_1_VE250_flipped.json,http://54.235.29.9/FacialAge/BNav_EC2/DepthDuration/MX_fS_VE_MTurk/MX_fS_HTML.html#303,303,1920,1080,1920,1080,0-31-2024,20-11-57,20,VR_target_stimuli/s45_0.75x_3.5_362_BC.png,250,0.75x,3.5,3.0,2746,251,meters,jsons/MX_seq19_1_VE250_flipped.json,348127,653380,28,Woman
20,238765,final-intermixed-textured,v2,jsons/MX_seq19_1_VE250_flipped.json,http://54.235.29.9/FacialAge/BNav_EC2/DepthDuration/MX_fS_VE_MTurk/MX_fS_HTML.html#303,303,1920,1080,1920,1080,0-31-2024,20-11-57,21,VR_target_stimuli/s23_1x_3.65_353.png,250,1x,3.65,3.5,25803,249,meters,jsons/MX_seq19_1_VE250_flipped.json,348127,653380,28,Woman
21,238765,final-intermixed-textured,v2,jsons/MX_seq19_1_VE250_flipped.json,http://54.235.29.9/FacialAge/BNav_EC2/DepthDuration/MX_fS_VE_MTurk/MX_fS_HTML.html#303,303,1920,1080,1920,1080,0-31-2024,20-11-57,22,VR_target_stimuli/s26_1.3x_4_441_BC.png,250,1.3x,4.0,3.0,2915,250,meters,jsons/MX_seq19_1_VE250_flipped.json,348127,653380,28,Woman
22,238765,final-intermixed-textured,v2,jsons/MX_seq19_1_VE250_flipped.json,http://54.235.29.9/FacialAge/BNav_EC2/DepthDuration/MX_fS_VE_MTurk/MX_fS_HTML.html#303,303,1920,1080,1920,1080,0-31-2024,20-11-57,23,VR_target_stimuli/s12_0.75x_3.1_364_BC.png,250,0.75x,3.1,3.0,3940,256,meters,jsons/MX_seq19_1_VE250_flipped.json,348127,653380,28,Woman
23,238765,final-intermixed-textured,v2,jsons/MX_seq19_1_VE250_flipped.json,http://54.235.29.9/FacialAge/BNav_EC2/DepthDuration/MX_fS_VE_MTurk/MX_fS_HTML.html#303,303,1920,1080,1920,1080,0-31-2024,20-11-57,24,VR_target_stimuli/s30_1.3x_2.3_337.png,250,1.3x,2.3,2.5,4534,251,meters,jsons/MX_seq19_1_VE250_flipped.json,348127,653380,28,Woman
24,238765,final-intermixed-textured,v2,jsons/MX_seq19_1_VE250_flipped.json,http://54.235.29.9/FacialAge/BNav_EC2/DepthDuration/MX_fS_VE_MTurk/MX_fS_HTML.html#303,303,1920,1080,1920,1080,0-31-2024,20-11-57,25,VR_target_stimuli/s16_1x_1_219_BC.png,250,1x,1.0,0.5,5938,251,meters,jsons/MX_seq19_1_VE250_flipped.json,348127,653380,28,Woman
25,238765,final-intermixed-textured,v2,jsons/MX_seq19_1_VE250_flipped.json,http://54.235.29.9/FacialAge/BNav_EC2/DepthDuration/MX_fS_VE_MTurk/MX_fS_HTML.html#303,303,1920,1080,1920,1080,0-31-2024,20-11-57,26,catch_stimuli/c2_BC.png,250,,,0.0,2937,254,meters,jsons/MX_seq19_1_VE250_flipped.json,348127,653380,28,Woman
26,238765,final-intermixed-textured,v2,jsons/MX_seq19_1_VE250_flipped.json,http://54.235.29.9/FacialAge/BNav_EC2/DepthDuration/MX_fS_VE_MTurk/MX_fS_HTML.html#303,303,1920,1080,1920,1080,0-31-2024,20-11-57,27,VR_target_stimuli/s17_0.75x_1.8_285.png,250,0.75x,1.8,2.5,3969,248,meters,jsons/MX_seq19_1_VE250_flipped.json,348127,653380,28,Woman
27,238765,final-intermixed-textured,v2,jsons/MX_seq19_1_VE250_flipped.json,http://54.235.29.9/FacialAge/BNav_EC2/DepthDuration/MX_fS_VE_MTurk/MX_fS_HTML.html#303,303,1920,1080,1920,1080,0-31-2024,20-11-57,28,VR_target_stimuli/s5_0.75x_4_375_BC.png,250,0.75x,4.0,4.0,3186,252,meters,jsons/MX_seq19_1_VE250_flipped.json,348127,653380,28,Woman
28,238765,final-intermixed-textured,v2,jsons/MX_seq19_1_VE250_flipped.json,http://54.235.29.9/FacialAge/BNav_EC2/DepthDuration/MX_fS_VE_MTurk/MX_fS_HTML.html#303,303,1920,1080,1920,1080,0-31-2024,20-11-57,29,VR_target_stimuli/s37_1.3x_3.3_555_BC.png,250,1.3x,3.3,2.0,4560,249,meters,jsons/MX_seq19_1_VE250_flipped.json,348127,653380,28,Woman
29,238765,final-intermixed-textured,v2,jsons/MX_seq19_1_VE250_flipped.json,http://54.235.29.9/FacialAge/BNav_EC2/DepthDuration/MX_fS_VE_MTurk/MX_fS_HTML.html#303,303,1920,1080,1920,1080,0-31-2024,20-11-57,30,VR_target_stimuli/s46_1x_2.42_348.png,250,1x,2.42,3.0,2997,253,meters,jsons/MX_seq19_1_VE250_flipped.json,348127,653380,28,Woman
30,238765,final-intermixed-textured,v2,jsons/MX_seq19_1_VE250_flipped.json,http://54.235.29.9/FacialAge/BNav_EC2/DepthDuration/MX_fS_VE_MTurk/MX_fS_HTML.html#303,303,1920,1080,1920,1080,0-31-2024,20-11-57,31,VR_target_stimuli/s22_0.75x_4.29_348.png,250,0.75x,4.29,4.5,4219,255,meters,jsons/MX_seq19_1_VE250_flipped.json,348127,653380,28,Woman
31,238765,final-intermixed-textured,v2,jsons/MX_seq19_1_VE250_flipped.json,http://54.235.29.9/FacialAge/BNav_EC2/DepthDuration/MX_fS_VE_MTurk/MX_fS_HTML.html#303,303,1920,1080,1920,1080,0-31-2024,20-11-57,32,VR_target_stimuli/s42_1x_3.2_303_BC.png,250,1x,3.2,4.0,3027,250,meters,jsons/MX_seq19_1_VE250_flipped.json,348127,653380,28,Woman
32,238765,final-intermixed-textured,v2,jsons/MX_seq19_1_VE250_flipped.json,http://54.235.29.9/FacialAge/BNav_EC2/DepthDuration/MX_fS_VE_MTurk/MX_fS_HTML.html#303,303,1920,1080,1920,1080,0-31-2024,20-11-57,33,VR_target_stimuli/s25_1.3x_1.4_299.png,250,1.3x,1.4,1.0,3705,254,meters,jsons/MX_seq19_1_VE250_flipped.json,348127,653380,28,Woman
33,238765,final-intermixed-textured,v2,jsons/MX_seq19_1_VE250_flipped.json,http://54.235.29.9/FacialAge/BNav_EC2/DepthDuration/MX_fS_VE_MTurk/MX_fS_HTML.html#303,303,1920,1080,1920,1080,0-31-2024,20-11-57,34,catch_stimuli/c3_BC.png,250,,,0.0,2523,251,meters,jsons/MX_seq19_1_VE250_flipped.json,348127,653380,28,Woman
34,238765,final-intermixed-textured,v2,jsons/MX_seq19_1_VE250_flipped.json,http://54.235.29.9/FacialAge/BNav_EC2/DepthDuration/MX_fS_VE_MTurk/MX_fS_HTML.html#303,303,1920,1080,1920,1080,0-31-2024,20-11-57,35,VR_target_stimuli/s50_1x_4.53_518.png,250,1x,4.53,0.0,2518,251,meters,jsons/MX_seq19_1_VE250_flipped.json,348127,653380,28,Woman
35,238765,final-intermixed-textured,v2,jsons/MX_seq19_1_VE250_flipped.json,http://54.235.29.9/FacialAge/BNav_EC2/DepthDuration/MX_fS_VE_MTurk/MX_fS_HTML.html#303,303,1920,1080,1920,1080,0-31-2024,20-11-57,36,VR_target_stimuli/s53_0.75x_1.6_403_BC.png,250,0.75x,1.6,0.5,3946,251,meters,jsons/MX_seq19_1_VE250_flipped.json,348127,653380,28,Woman
36,238765,final-intermixed-textured,v2,jsons/MX_seq19_1_VE250_flipped.json,http://54.235.29.9/FacialAge/BNav_EC2/DepthDuration/MX_fS_VE_MTurk/MX_fS_HTML.html#303,303,1920,1080,1920,1080,0-31-2024,20-11-57,37,VR_target_stimuli/s38_1.3x_3.55_358_BC.png,250,1.3x,3.55,3.5,6561,252,meters,jsons/MX_seq19_1_VE250_flipped.json,348127,653380,28,Woman
37,238765,final-intermixed-textured,v2,jsons/MX_seq19_1_VE250_flipped.json,http://54.235.29.9/FacialAge/BNav_EC2/DepthDuration/MX_fS_VE_MTurk/MX_fS_HTML.html#303,303,1920,1080,1920,1080,0-31-2024,20-11-57,38,VR_target_stimuli/s9_1.3x_1.2_276.png,250,1.3x,1.2,1.5,5843,250,meters,jsons/MX_seq19_1_VE250_flipped.json,348127,653380,28,Woman
38,238765,final-intermixed-textured,v2,jsons/MX_seq19_1_VE250_flipped.json,http://54.235.29.9/FacialAge/BNav_EC2/DepthDuration/MX_fS_VE_MTurk/MX_fS_HTML.html#303,303,1920,1080,1920,1080,0-31-2024,20-11-57,39,VR_target_stimuli/s44_1x_4.4_317_BC.png,250,1x,4.4,4.5,4758,245,meters,jsons/MX_seq19_1_VE250_flipped.json,348127,653380,28,Woman
39,238765,final-intermixed-textured,v2,jsons/MX_seq19_1_VE250_flipped.json,http://54.235.29.9/FacialAge/BNav_EC2/DepthDuration/MX_fS_VE_MTurk/MX_fS_HTML.html#303,303,1920,1080,1920,1080,0-31-2024,20-11-57,40,VR_target_stimuli/s3_0.75x_5_381.png,250,0.75x,5.0,5.0,3026,254,meters,jsons/MX_seq19_1_VE250_flipped.json,348127,653380,28,Woman
40,238765,final-intermixed-textured,v2,jsons/MX_seq19_1_VE250_flipped.json,http://54.235.29.9/FacialAge/BNav_EC2/DepthDuration/MX_fS_VE_MTurk/MX_fS_HTML.html#303,303,1920,1080,1920,1080,0-31-2024,20-11-57,41,VR_target_stimuli/s1_1x_1.7_262.png,250,1x,1.7,2.0,4337,252,meters,jsons/MX_seq19_1_VE250_flipped.json,348127,653380,28,Woman
41,238765,final-intermixed-textured,v2,jsons/MX_seq19_1_VE250_flipped.json,http://54.235.29.9/FacialAge/BNav_EC2/DepthDuration/MX_fS_VE_MTurk/MX_fS_HTML.html#303,303,1920,1080,1920,1080,0-31-2024,20-11-57,42,VR_target_stimuli/s11_1.3x_5_363.png,250,1.3x,5.0,4.0,4011,262,meters,jsons/MX_seq19_1_VE250_flipped.json,348127,653380,28,Woman
42,238765,final-intermixed-textured,v2,jsons/MX_seq19_1_VE250_flipped.json,http://54.235.29.9/FacialAge/BNav_EC2/DepthDuration/MX_fS_VE_MTurk/MX_fS_HTML.html#303,303,1920,1080,1920,1080,0-31-2024,20-11-57,43,VR_target_stimuli/s2_0.75x_2.7_384_BC.png,250,0.75x,2.7,2.5,4771,241,meters,jsons/MX_seq19_1_VE250_flipped.json,348127,653380,28,Woman
43,238765,final-intermixed-textured,v2,jsons/MX_seq19_1_VE250_flipped.json,http://54.235.29.9/FacialAge/BNav_EC2/DepthDuration/MX_fS_VE_MTurk/MX_fS_HTML.html#303,303,1920,1080,1920,1080,0-31-2024,20-11-57,44,VR_target_stimuli/s6_1.3x_2.1_298_BC.png,250,1.3x,2.1,3.0,3012,256,meters,jsons/MX_seq19_1_VE250_flipped.json,348127,653380,28,Woman
44,238765,final-intermixed-textured,v2,jsons/MX_seq19_1_VE250_flipped.json,http://54.235.29.9/FacialAge/BNav_EC2/DepthDuration/MX_fS_VE_MTurk/MX_fS_HTML.html#303,303,1920,1080,1920,1080,0-31-2024,20-11-57,45,catch_stimuli/c4_BC.png,250,,,0.0,3251,253,meters,jsons/MX_seq19_1_VE250_flipped.json,348127,653380,28,Woman
45,238765,final-intermixed-textured,v2,jsons/MX_seq19_1_VE250_flipped.json,http://54.235.29.9/FacialAge/BNav_EC2/DepthDuration/MX_fS_VE_MTurk/MX_fS_HTML.html#303,303,1920,1080,1920,1080,0-31-2024,20-11-57,46,VR_target_stimuli/s0_1x_2.6_351_BC.png,250,1x,2.6,3.0,2612,250,meters,jsons/MX_seq19_1_VE250_flipped.json,348127,653380,28,Woman
46,238765,final-intermixed-textured,v2,jsons/MX_seq19_1_VE250_flipped.json,http://54.235.29.9/FacialAge/BNav_EC2/DepthDuration/MX_fS_VE_MTurk/MX_fS_HTML.html#303,303,1920,1080,1920,1080,0-31-2024,20-11-57,47,VR_target_stimuli/s34_0.75x_2.8_269.png,250,0.75x,2.8,4.0,3683,253,meters,jsons/MX_seq19_1_VE250_flipped.json,348127,653380,28,Woman
47,238765,final-intermixed-textured,v2,jsons/MX_seq19_1_VE250_flipped.json,http://54.235.29.9/FacialAge/BNav_EC2/DepthDuration/MX_fS_VE_MTurk/MX_fS_HTML.html#303,303,1920,1080,1920,1080,0-31-2024,20-11-57,48,VR_target_stimuli/s13_0.75x_2.4_308_BC.png,250,0.75x,2.4,3.0,5298,254,meters,jsons/MX_seq19_1_VE250_flipped.json,348127,653380,28,Woman
48,238765,final-intermixed-textured,v2,jsons/MX_seq19_1_VE250_flipped.json,http://54.235.29.9/FacialAge/BNav_EC2/DepthDuration/MX_fS_VE_MTurk/MX_fS_HTML.html#303,303,1920,1080,1920,1080,0-31-2024,20-11-57,49,VR_target_stimuli/s14_1.3x_3.83_359.png,250,1.3x,3.83,0.0,3198,238,meters,jsons/MX_seq19_1_VE250_flipped.json,348127,653380,28,Woman
49,238765,final-intermixed-textured,v2,jsons/MX_seq19_1_VE250_flipped.json,http://54.235.29.9/FacialAge/BNav_EC2/DepthDuration/MX_fS_VE_MTurk/MX_fS_HTML.html#303,303,1920,1080,1920,1080,0-31-2024,20-11-57,50,VR_target_stimuli/s47_1x_3.45_370_BC.png,250,1x,3.45,2.0,3586,254,meters,jsons/MX_seq19_1_VE250_flipped.json,348127,653380,28,Woman
50,238765,final-intermixed-textured,v2,jsons/MX_seq19_1_VE250_flipped.json,http://54.235.29.9/FacialAge/BNav_EC2/DepthDuration/MX_fS_VE_MTurk/MX_fS_HTML.html#303,303,1920,1080,1920,1080,0-31-2024,20-11-57,51,VR_target_stimuli/s29_1.3x_1.3_253_BC.png,250,1.3x,1.3,1.0,2417,251,meters,jsons/MX_seq19_1_VE250_flipped.json,348127,653380,28,Woman
51,238765,final-intermixed-textured,v2,jsons/MX_seq19_1_VE250_flipped.json,http://54.235.29.9/FacialAge/BNav_EC2/DepthDuration/MX_fS_VE_MTurk/MX_fS_HTML.html#303,303,1920,1080,1920,1080,0-31-2024,20-11-57,52,VR_target_stimuli/s28_0.75x_3.2_357.png,250,0.75x,3.2,4.0,2705,252,meters,jsons/MX_seq19_1_VE250_flipped.json,348127,653380,28,Woman
52,238765,final-intermixed-textured,v2,jsons/MX_seq19_1_VE250_flipped.json,http://54.235.29.9/FacialAge/BNav_EC2/DepthDuration/MX_fS_VE_MTurk/MX_fS_HTML.html#303,303,1920,1080,1920,1080,0-31-2024,20-11-57,53,catch_stimuli/c5_BC.png,250,,,0.0,2750,252,meters,jsons/MX_seq19_1_VE250_flipped.json,348127,653380,28,Woman
53,238765,final-intermixed-textured,v2,jsons/MX_seq19_1_VE250_flipped.json,http://54.235.29.9/FacialAge/BNav_EC2/DepthDuration/MX_fS_VE_MTurk/MX_fS_HTML.html#303,303,1920,1080,1920,1080,0-31-2024,20-11-57,54,VR_target_stimuli/s48_1x_2.55_256.png,250,1x,2.55,3.0,6199,252,meters,jsons/MX_seq19_1_VE250_flipped.json,348127,653380,28,Woman
54,238765,final-intermixed-textured,v2,jsons/MX_seq19_1_VE250_flipped.json,http://54.235.29.9/FacialAge/BNav_EC2/DepthDuration/MX_fS_VE_MTurk/MX_fS_HTML.html#303,303,1920,1080,1920,1080,0-31-2024,20-11-57,55,VR_target_stimuli/s19_0.75x_1.21_257_BC.png,250,0.75x,1.21,2.0,2794,252,meters,jsons/MX_seq19_1_VE250_flipped.json,348127,653380,28,Woman
55,238765,final-intermixed-textured,v2,jsons/MX_seq19_1_VE250_flipped.json,http://54.235.29.9/FacialAge/BNav_EC2/DepthDuration/MX_fS_VE_MTurk/MX_fS_HTML.html#303,303,1920,1080,1920,1080,0-31-2024,20-11-57,56,VR_target_stimuli/s21_1.3x_4.22_384_BC.png,250,1.3x,4.22,5.0,2605,237,meters,jsons/MX_seq19_1_VE250_flipped.json,348127,653380,28,Woman
56,238765,final-intermixed-textured,v2,jsons/MX_seq19_1_VE250_flipped.json,http://54.235.29.9/FacialAge/BNav_EC2/DepthDuration/MX_fS_VE_MTurk/MX_fS_HTML.html#303,303,1920,1080,1920,1080,0-31-2024,20-11-57,57,VR_target_stimuli/s8_1x_3.1_332_BC.png,250,1x,3.1,3.5,6600,253,meters,jsons/MX_seq19_1_VE250_flipped.json,348127,653380,28,Woman
57,238765,final-intermixed-textured,v2,jsons/MX_seq19_1_VE250_flipped.json,http://54.235.29.9/FacialAge/BNav_EC2/DepthDuration/MX_fS_VE_MTurk/MX_fS_HTML.html#303,303,1920,1080,1920,1080,0-31-2024,20-11-57,58,VR_target_stimuli/s27_1x_1.76_248.png,250,1x,1.76,3.5,7891,248,meters,jsons/MX_seq19_1_VE250_flipped.json,348127,653380,28,Woman
58,238765,final-intermixed-textured,v2,jsons/MX_seq19_1_VE250_flipped.json,http://54.235.29.9/FacialAge/BNav_EC2/DepthDuration/MX_fS_VE_MTurk/MX_fS_HTML.html#303,303,1920,1080,1920,1080,0-31-2024,20-11-57,59,VR_target_stimuli/s15_0.75x_4.2_388.png,250,0.75x,4.2,3.5,15404,258,meters,jsons/MX_seq19_1_VE250_flipped.json,348127,653380,28,Woman
59,238765,final-intermixed-textured,v2,jsons/MX_seq19_1_VE250_flipped.json,http://54.235.29.9/FacialAge/BNav_EC2/DepthDuration/MX_fS_VE_MTurk/MX_fS_HTML.html#303,303,1920,1080,1920,1080,0-31-2024,20-11-57,60,VR_target_stimuli/s4_1.3x_1.4_328.png,250,1.3x,1.4,1.0,4674,249,meters,jsons/MX_seq19_1_VE250_flipped.json,348127,653380,28,Woman
