,subjID,experimentName,versionName,sequenceName,url,selected_row,windowWidth,windowHeight,screenWidth,screenHeight,startDate,startTime,trial,stimulus,duration,scale,actual_depth,depth_estimate,trial_RT,log_sceneDuration,unitSelection,seq_filepath,experimentTime,totalTime,age,gender
0,247171,final-intermixed-textured,v2,jsons/MX_seq46_1_VE250_flipped.json,http://54.235.29.9/FacialAge/BNav_EC2/DepthDuration/MX_fS_VE_MTurk/MX_fS_HTML.html#76,76,1920,911,1920,1080,1-1-2024,13-6-42,1,VR_target_stimuli/s22_1.3x_4.29_364.png,250,1.3x,4.29,10,5145,261,meters,jsons/MX_seq46_1_VE250_flipped.json,282938,520114,53,Man
1,247171,final-intermixed-textured,v2,jsons/MX_seq46_1_VE250_flipped.json,http://54.235.29.9/FacialAge/BNav_EC2/DepthDuration/MX_fS_VE_MTurk/MX_fS_HTML.html#76,76,1920,911,1920,1080,1-1-2024,13-6-42,2,VR_target_stimuli/s42_0.75x_3.2_301.png,250,0.75x,3.2,7,9655,250,meters,jsons/MX_seq46_1_VE250_flipped.json,282938,520114,53,Man
2,247171,final-intermixed-textured,v2,jsons/MX_seq46_1_VE250_flipped.json,http://54.235.29.9/FacialAge/BNav_EC2/DepthDuration/MX_fS_VE_MTurk/MX_fS_HTML.html#76,76,1920,911,1920,1080,1-1-2024,13-6-42,3,VR_target_stimuli/s25_1x_1.4_290_BC.png,250,1x,1.4,0,11642,248,meters,jsons/MX_seq46_1_VE250_flipped.json,282938,520114,53,Man
3,247171,final-intermixed-textured,v2,jsons/MX_seq46_1_VE250_flipped.json,http://54.235.29.9/FacialAge/BNav_EC2/DepthDuration/MX_fS_VE_MTurk/MX_fS_HTML.html#76,76,1920,911,1920,1080,1-1-2024,13-6-42,4,VR_target_stimuli/s50_0.75x_4.53_517_BC.png,250,0.75x,4.53,5,8287,257,meters,jsons/MX_seq46_1_VE250_flipped.json,282938,520114,53,Man
4,247171,final-intermixed-textured,v2,jsons/MX_seq46_1_VE250_flipped.json,http://54.235.29.9/FacialAge/BNav_EC2/DepthDuration/MX_fS_VE_MTurk/MX_fS_HTML.html#76,76,1920,911,1920,1080,1-1-2024,13-6-42,5,VR_target_stimuli/s53_1.3x_1.6_355_BC.png,250,1.3x,1.6,5,7041,252,meters,jsons/MX_seq46_1_VE250_flipped.json,282938,520114,53,Man
5,247171,final-intermixed-textured,v2,jsons/MX_seq46_1_VE250_flipped.json,http://54.235.29.9/FacialAge/BNav_EC2/DepthDuration/MX_fS_VE_MTurk/MX_fS_HTML.html#76,76,1920,911,1920,1080,1-1-2024,13-6-42,6,VR_target_stimuli/s38_1x_3.55_353.png,250,1x,3.55,7,5213,249,meters,jsons/MX_seq46_1_VE250_flipped.json,282938,520114,53,Man
6,247171,final-intermixed-textured,v2,jsons/MX_seq46_1_VE250_flipped.json,http://54.235.29.9/FacialAge/BNav_EC2/DepthDuration/MX_fS_VE_MTurk/MX_fS_HTML.html#76,76,1920,911,1920,1080,1-1-2024,13-6-42,7,catch_stimuli/c0_BC.png,250,,,0,3636,237,meters,jsons/MX_seq46_1_VE250_flipped.json,282938,520114,53,Man
7,247171,final-intermixed-textured,v2,jsons/MX_seq46_1_VE250_flipped.json,http://54.235.29.9/FacialAge/BNav_EC2/DepthDuration/MX_fS_VE_MTurk/MX_fS_HTML.html#76,76,1920,911,1920,1080,1-1-2024,13-6-42,8,VR_target_stimuli/s9_1x_1.2_263_BC.png,250,1x,1.2,2,4196,243,meters,jsons/MX_seq46_1_VE250_flipped.json,282938,520114,53,Man
8,247171,final-intermixed-textured,v2,jsons/MX_seq46_1_VE250_flipped.json,http://54.235.29.9/FacialAge/BNav_EC2/DepthDuration/MX_fS_VE_MTurk/MX_fS_HTML.html#76,76,1920,911,1920,1080,1-1-2024,13-6-42,9,VR_target_stimuli/s44_0.75x_4.4_314_BC.png,250,0.75x,4.4,10,3931,253,meters,jsons/MX_seq46_1_VE250_flipped.json,282938,520114,53,Man
9,247171,final-intermixed-textured,v2,jsons/MX_seq46_1_VE250_flipped.json,http://54.235.29.9/FacialAge/BNav_EC2/DepthDuration/MX_fS_VE_MTurk/MX_fS_HTML.html#76,76,1920,911,1920,1080,1-1-2024,13-6-42,10,VR_target_stimuli/s3_1.3x_5_390_BC.png,250,1.3x,5.0,7,4070,263,meters,jsons/MX_seq46_1_VE250_flipped.json,282938,520114,53,Man
10,247171,final-intermixed-textured,v2,jsons/MX_seq46_1_VE250_flipped.json,http://54.235.29.9/FacialAge/BNav_EC2/DepthDuration/MX_fS_VE_MTurk/MX_fS_HTML.html#76,76,1920,911,1920,1080,1-1-2024,13-6-42,11,VR_target_stimuli/s1_0.75x_1.7_265.png,250,0.75x,1.7,6,3796,255,meters,jsons/MX_seq46_1_VE250_flipped.json,282938,520114,53,Man
11,247171,final-intermixed-textured,v2,jsons/MX_seq46_1_VE250_flipped.json,http://54.235.29.9/FacialAge/BNav_EC2/DepthDuration/MX_fS_VE_MTurk/MX_fS_HTML.html#76,76,1920,911,1920,1080,1-1-2024,13-6-42,12,VR_target_stimuli/s11_1x_5_361.png,250,1x,5.0,10,4800,243,meters,jsons/MX_seq46_1_VE250_flipped.json,282938,520114,53,Man
12,247171,final-intermixed-textured,v2,jsons/MX_seq46_1_VE250_flipped.json,http://54.235.29.9/FacialAge/BNav_EC2/DepthDuration/MX_fS_VE_MTurk/MX_fS_HTML.html#76,76,1920,911,1920,1080,1-1-2024,13-6-42,13,VR_target_stimuli/s2_1.3x_2.7_397.png,250,1.3x,2.7,6,3702,254,meters,jsons/MX_seq46_1_VE250_flipped.json,282938,520114,53,Man
13,247171,final-intermixed-textured,v2,jsons/MX_seq46_1_VE250_flipped.json,http://54.235.29.9/FacialAge/BNav_EC2/DepthDuration/MX_fS_VE_MTurk/MX_fS_HTML.html#76,76,1920,911,1920,1080,1-1-2024,13-6-42,14,VR_target_stimuli/s6_1x_2.1_293.png,250,1x,2.1,4,3067,255,meters,jsons/MX_seq46_1_VE250_flipped.json,282938,520114,53,Man
14,247171,final-intermixed-textured,v2,jsons/MX_seq46_1_VE250_flipped.json,http://54.235.29.9/FacialAge/BNav_EC2/DepthDuration/MX_fS_VE_MTurk/MX_fS_HTML.html#76,76,1920,911,1920,1080,1-1-2024,13-6-42,15,VR_target_stimuli/s0_0.75x_2.6_345_BC.png,250,0.75x,2.6,4,3722,246,meters,jsons/MX_seq46_1_VE250_flipped.json,282938,520114,53,Man
15,247171,final-intermixed-textured,v2,jsons/MX_seq46_1_VE250_flipped.json,http://54.235.29.9/FacialAge/BNav_EC2/DepthDuration/MX_fS_VE_MTurk/MX_fS_HTML.html#76,76,1920,911,1920,1080,1-1-2024,13-6-42,16,VR_target_stimuli/s34_1.3x_2.8_294_BC.png,250,1.3x,2.8,5,2758,249,meters,jsons/MX_seq46_1_VE250_flipped.json,282938,520114,53,Man
16,247171,final-intermixed-textured,v2,jsons/MX_seq46_1_VE250_flipped.json,http://54.235.29.9/FacialAge/BNav_EC2/DepthDuration/MX_fS_VE_MTurk/MX_fS_HTML.html#76,76,1920,911,1920,1080,1-1-2024,13-6-42,17,catch_stimuli/c1_BC.png,250,,,0,3150,249,meters,jsons/MX_seq46_1_VE250_flipped.json,282938,520114,53,Man
17,247171,final-intermixed-textured,v2,jsons/MX_seq46_1_VE250_flipped.json,http://54.235.29.9/FacialAge/BNav_EC2/DepthDuration/MX_fS_VE_MTurk/MX_fS_HTML.html#76,76,1920,911,1920,1080,1-1-2024,13-6-42,18,VR_target_stimuli/s13_1.3x_2.4_313.png,250,1.3x,2.4,5,3901,254,meters,jsons/MX_seq46_1_VE250_flipped.json,282938,520114,53,Man
18,247171,final-intermixed-textured,v2,jsons/MX_seq46_1_VE250_flipped.json,http://54.235.29.9/FacialAge/BNav_EC2/DepthDuration/MX_fS_VE_MTurk/MX_fS_HTML.html#76,76,1920,911,1920,1080,1-1-2024,13-6-42,19,VR_target_stimuli/s14_1x_ 3.83_357_BC.png,250,1x,3.83,5,2642,241,meters,jsons/MX_seq46_1_VE250_flipped.json,282938,520114,53,Man
19,247171,final-intermixed-textured,v2,jsons/MX_seq46_1_VE250_flipped.json,http://54.235.29.9/FacialAge/BNav_EC2/DepthDuration/MX_fS_VE_MTurk/MX_fS_HTML.html#76,76,1920,911,1920,1080,1-1-2024,13-6-42,20,VR_target_stimuli/s47_0.75x_3.45_366.png,250,0.75x,3.45,3,3125,254,meters,jsons/MX_seq46_1_VE250_flipped.json,282938,520114,53,Man
20,247171,final-intermixed-textured,v2,jsons/MX_seq46_1_VE250_flipped.json,http://54.235.29.9/FacialAge/BNav_EC2/DepthDuration/MX_fS_VE_MTurk/MX_fS_HTML.html#76,76,1920,911,1920,1080,1-1-2024,13-6-42,21,VR_target_stimuli/s29_1x_1.3_250.png,250,1x,1.3,3,2272,250,meters,jsons/MX_seq46_1_VE250_flipped.json,282938,520114,53,Man
21,247171,final-intermixed-textured,v2,jsons/MX_seq46_1_VE250_flipped.json,http://54.235.29.9/FacialAge/BNav_EC2/DepthDuration/MX_fS_VE_MTurk/MX_fS_HTML.html#76,76,1920,911,1920,1080,1-1-2024,13-6-42,22,VR_target_stimuli/s28_1.3x_3.2_365_BC.png,250,1.3x,3.2,5,2878,255,meters,jsons/MX_seq46_1_VE250_flipped.json,282938,520114,53,Man
22,247171,final-intermixed-textured,v2,jsons/MX_seq46_1_VE250_flipped.json,http://54.235.29.9/FacialAge/BNav_EC2/DepthDuration/MX_fS_VE_MTurk/MX_fS_HTML.html#76,76,1920,911,1920,1080,1-1-2024,13-6-42,23,VR_target_stimuli/s48_0.75x_2.55_243.png,250,0.75x,2.55,4,4759,250,meters,jsons/MX_seq46_1_VE250_flipped.json,282938,520114,53,Man
23,247171,final-intermixed-textured,v2,jsons/MX_seq46_1_VE250_flipped.json,http://54.235.29.9/FacialAge/BNav_EC2/DepthDuration/MX_fS_VE_MTurk/MX_fS_HTML.html#76,76,1920,911,1920,1080,1-1-2024,13-6-42,24,VR_target_stimuli/s19_1.3x_1.21_270.png,250,1.3x,1.21,3,3167,246,meters,jsons/MX_seq46_1_VE250_flipped.json,282938,520114,53,Man
24,247171,final-intermixed-textured,v2,jsons/MX_seq46_1_VE250_flipped.json,http://54.235.29.9/FacialAge/BNav_EC2/DepthDuration/MX_fS_VE_MTurk/MX_fS_HTML.html#76,76,1920,911,1920,1080,1-1-2024,13-6-42,25,VR_target_stimuli/s21_1x_4.22_379_BC.png,250,1x,4.22,7,3294,259,meters,jsons/MX_seq46_1_VE250_flipped.json,282938,520114,53,Man
25,247171,final-intermixed-textured,v2,jsons/MX_seq46_1_VE250_flipped.json,http://54.235.29.9/FacialAge/BNav_EC2/DepthDuration/MX_fS_VE_MTurk/MX_fS_HTML.html#76,76,1920,911,1920,1080,1-1-2024,13-6-42,26,catch_stimuli/c2_BC.png,250,,,0,4802,248,meters,jsons/MX_seq46_1_VE250_flipped.json,282938,520114,53,Man
26,247171,final-intermixed-textured,v2,jsons/MX_seq46_1_VE250_flipped.json,http://54.235.29.9/FacialAge/BNav_EC2/DepthDuration/MX_fS_VE_MTurk/MX_fS_HTML.html#76,76,1920,911,1920,1080,1-1-2024,13-6-42,27,VR_target_stimuli/s8_0.75x_3.1_325_BC.png,250,0.75x,3.1,7,5040,252,meters,jsons/MX_seq46_1_VE250_flipped.json,282938,520114,53,Man
27,247171,final-intermixed-textured,v2,jsons/MX_seq46_1_VE250_flipped.json,http://54.235.29.9/FacialAge/BNav_EC2/DepthDuration/MX_fS_VE_MTurk/MX_fS_HTML.html#76,76,1920,911,1920,1080,1-1-2024,13-6-42,28,VR_target_stimuli/s27_0.75x_1.76_243_BC.png,250,0.75x,1.76,6,4087,247,meters,jsons/MX_seq46_1_VE250_flipped.json,282938,520114,53,Man
28,247171,final-intermixed-textured,v2,jsons/MX_seq46_1_VE250_flipped.json,http://54.235.29.9/FacialAge/BNav_EC2/DepthDuration/MX_fS_VE_MTurk/MX_fS_HTML.html#76,76,1920,911,1920,1080,1-1-2024,13-6-42,29,VR_target_stimuli/s15_1.3x_4.2_389_BC.png,250,1.3x,4.2,0,3178,250,meters,jsons/MX_seq46_1_VE250_flipped.json,282938,520114,53,Man
29,247171,final-intermixed-textured,v2,jsons/MX_seq46_1_VE250_flipped.json,http://54.235.29.9/FacialAge/BNav_EC2/DepthDuration/MX_fS_VE_MTurk/MX_fS_HTML.html#76,76,1920,911,1920,1080,1-1-2024,13-6-42,30,VR_target_stimuli/s4_1x_1.4_313_BC.png,250,1x,1.4,5,4518,246,meters,jsons/MX_seq46_1_VE250_flipped.json,282938,520114,53,Man
30,247171,final-intermixed-textured,v2,jsons/MX_seq46_1_VE250_flipped.json,http://54.235.29.9/FacialAge/BNav_EC2/DepthDuration/MX_fS_VE_MTurk/MX_fS_HTML.html#76,76,1920,911,1920,1080,1-1-2024,13-6-42,31,VR_target_stimuli/s35_0.75x_2_323.png,250,0.75x,2.0,5,5239,250,meters,jsons/MX_seq46_1_VE250_flipped.json,282938,520114,53,Man
31,247171,final-intermixed-textured,v2,jsons/MX_seq46_1_VE250_flipped.json,http://54.235.29.9/FacialAge/BNav_EC2/DepthDuration/MX_fS_VE_MTurk/MX_fS_HTML.html#76,76,1920,911,1920,1080,1-1-2024,13-6-42,32,VR_target_stimuli/s49_1x_4.67_341.png,250,1x,4.67,7,3739,257,meters,jsons/MX_seq46_1_VE250_flipped.json,282938,520114,53,Man
32,247171,final-intermixed-textured,v2,jsons/MX_seq46_1_VE250_flipped.json,http://54.235.29.9/FacialAge/BNav_EC2/DepthDuration/MX_fS_VE_MTurk/MX_fS_HTML.html#76,76,1920,911,1920,1080,1-1-2024,13-6-42,33,VR_target_stimuli/s7_1.3x_1.5_256.png,250,1.3x,1.5,5,3263,250,meters,jsons/MX_seq46_1_VE250_flipped.json,282938,520114,53,Man
33,247171,final-intermixed-textured,v2,jsons/MX_seq46_1_VE250_flipped.json,http://54.235.29.9/FacialAge/BNav_EC2/DepthDuration/MX_fS_VE_MTurk/MX_fS_HTML.html#76,76,1920,911,1920,1080,1-1-2024,13-6-42,34,catch_stimuli/c3_BC.png,250,,,0,3442,261,meters,jsons/MX_seq46_1_VE250_flipped.json,282938,520114,53,Man
34,247171,final-intermixed-textured,v2,jsons/MX_seq46_1_VE250_flipped.json,http://54.235.29.9/FacialAge/BNav_EC2/DepthDuration/MX_fS_VE_MTurk/MX_fS_HTML.html#76,76,1920,911,1920,1080,1-1-2024,13-6-42,35,VR_target_stimuli/s20_1x_4.99_398.png,250,1x,4.99,10,8809,251,meters,jsons/MX_seq46_1_VE250_flipped.json,282938,520114,53,Man
35,247171,final-intermixed-textured,v2,jsons/MX_seq46_1_VE250_flipped.json,http://54.235.29.9/FacialAge/BNav_EC2/DepthDuration/MX_fS_VE_MTurk/MX_fS_HTML.html#76,76,1920,911,1920,1080,1-1-2024,13-6-42,36,VR_target_stimuli/s31_0.75x_4.96_329.png,250,0.75x,4.96,0,3712,236,meters,jsons/MX_seq46_1_VE250_flipped.json,282938,520114,53,Man
36,247171,final-intermixed-textured,v2,jsons/MX_seq46_1_VE250_flipped.json,http://54.235.29.9/FacialAge/BNav_EC2/DepthDuration/MX_fS_VE_MTurk/MX_fS_HTML.html#76,76,1920,911,1920,1080,1-1-2024,13-6-42,37,VR_target_stimuli/s33_1.3x_3.1_378_BC.png,250,1.3x,3.1,7,3506,261,meters,jsons/MX_seq46_1_VE250_flipped.json,282938,520114,53,Man
37,247171,final-intermixed-textured,v2,jsons/MX_seq46_1_VE250_flipped.json,http://54.235.29.9/FacialAge/BNav_EC2/DepthDuration/MX_fS_VE_MTurk/MX_fS_HTML.html#76,76,1920,911,1920,1080,1-1-2024,13-6-42,38,VR_target_stimuli/s52_1.3x_3.2_280.png,250,1.3x,3.2,7,2503,251,meters,jsons/MX_seq46_1_VE250_flipped.json,282938,520114,53,Man
38,247171,final-intermixed-textured,v2,jsons/MX_seq46_1_VE250_flipped.json,http://54.235.29.9/FacialAge/BNav_EC2/DepthDuration/MX_fS_VE_MTurk/MX_fS_HTML.html#76,76,1920,911,1920,1080,1-1-2024,13-6-42,39,VR_target_stimuli/s32_1x_1.5_218_BC.png,250,1x,1.5,6,4694,239,meters,jsons/MX_seq46_1_VE250_flipped.json,282938,520114,53,Man
39,247171,final-intermixed-textured,v2,jsons/MX_seq46_1_VE250_flipped.json,http://54.235.29.9/FacialAge/BNav_EC2/DepthDuration/MX_fS_VE_MTurk/MX_fS_HTML.html#76,76,1920,911,1920,1080,1-1-2024,13-6-42,40,VR_target_stimuli/s18_0.75x_2.25_341_BC.png,250,0.75x,2.25,6,2824,250,meters,jsons/MX_seq46_1_VE250_flipped.json,282938,520114,53,Man
40,247171,final-intermixed-textured,v2,jsons/MX_seq46_1_VE250_flipped.json,http://54.235.29.9/FacialAge/BNav_EC2/DepthDuration/MX_fS_VE_MTurk/MX_fS_HTML.html#76,76,1920,911,1920,1080,1-1-2024,13-6-42,41,VR_target_stimuli/s39_1x_1_207.png,250,1x,1.0,5,4891,258,meters,jsons/MX_seq46_1_VE250_flipped.json,282938,520114,53,Man
41,247171,final-intermixed-textured,v2,jsons/MX_seq46_1_VE250_flipped.json,http://54.235.29.9/FacialAge/BNav_EC2/DepthDuration/MX_fS_VE_MTurk/MX_fS_HTML.html#76,76,1920,911,1920,1080,1-1-2024,13-6-42,42,VR_target_stimuli/s51_1.3x_3.64_479_BC.png,250,1.3x,3.64,5,2530,258,meters,jsons/MX_seq46_1_VE250_flipped.json,282938,520114,53,Man
42,247171,final-intermixed-textured,v2,jsons/MX_seq46_1_VE250_flipped.json,http://54.235.29.9/FacialAge/BNav_EC2/DepthDuration/MX_fS_VE_MTurk/MX_fS_HTML.html#76,76,1920,911,1920,1080,1-1-2024,13-6-42,43,VR_target_stimuli/s43_0.75x_2.2_348.png,250,0.75x,2.2,6,2694,253,meters,jsons/MX_seq46_1_VE250_flipped.json,282938,520114,53,Man
43,247171,final-intermixed-textured,v2,jsons/MX_seq46_1_VE250_flipped.json,http://54.235.29.9/FacialAge/BNav_EC2/DepthDuration/MX_fS_VE_MTurk/MX_fS_HTML.html#76,76,1920,911,1920,1080,1-1-2024,13-6-42,44,VR_target_stimuli/s24_1.3x_3.3_352.png,250,1.3x,3.3,7,3470,250,meters,jsons/MX_seq46_1_VE250_flipped.json,282938,520114,53,Man
44,247171,final-intermixed-textured,v2,jsons/MX_seq46_1_VE250_flipped.json,http://54.235.29.9/FacialAge/BNav_EC2/DepthDuration/MX_fS_VE_MTurk/MX_fS_HTML.html#76,76,1920,911,1920,1080,1-1-2024,13-6-42,45,catch_stimuli/c4_BC.png,250,,,0,4333,252,meters,jsons/MX_seq46_1_VE250_flipped.json,282938,520114,53,Man
45,247171,final-intermixed-textured,v2,jsons/MX_seq46_1_VE250_flipped.json,http://54.235.29.9/FacialAge/BNav_EC2/DepthDuration/MX_fS_VE_MTurk/MX_fS_HTML.html#76,76,1920,911,1920,1080,1-1-2024,13-6-42,46,VR_target_stimuli/s10_1x_2.7_324_BC.png,250,1x,2.7,5,5201,247,meters,jsons/MX_seq46_1_VE250_flipped.json,282938,520114,53,Man
46,247171,final-intermixed-textured,v2,jsons/MX_seq46_1_VE250_flipped.json,http://54.235.29.9/FacialAge/BNav_EC2/DepthDuration/MX_fS_VE_MTurk/MX_fS_HTML.html#76,76,1920,911,1920,1080,1-1-2024,13-6-42,47,VR_target_stimuli/s36_0.75x_4.1_407_BC.png,250,0.75x,4.1,7,4130,251,meters,jsons/MX_seq46_1_VE250_flipped.json,282938,520114,53,Man
47,247171,final-intermixed-textured,v2,jsons/MX_seq46_1_VE250_flipped.json,http://54.235.29.9/FacialAge/BNav_EC2/DepthDuration/MX_fS_VE_MTurk/MX_fS_HTML.html#76,76,1920,911,1920,1080,1-1-2024,13-6-42,48,VR_target_stimuli/s40_0.75x_1.2_308_BC.png,250,0.75x,1.2,5,3424,248,meters,jsons/MX_seq46_1_VE250_flipped.json,282938,520114,53,Man
48,247171,final-intermixed-textured,v2,jsons/MX_seq46_1_VE250_flipped.json,http://54.235.29.9/FacialAge/BNav_EC2/DepthDuration/MX_fS_VE_MTurk/MX_fS_HTML.html#76,76,1920,911,1920,1080,1-1-2024,13-6-42,49,VR_target_stimuli/s41_1.3x_2.1_294_BC.png,250,1.3x,2.1,5,3039,253,meters,jsons/MX_seq46_1_VE250_flipped.json,282938,520114,53,Man
49,247171,final-intermixed-textured,v2,jsons/MX_seq46_1_VE250_flipped.json,http://54.235.29.9/FacialAge/BNav_EC2/DepthDuration/MX_fS_VE_MTurk/MX_fS_HTML.html#76,76,1920,911,1920,1080,1-1-2024,13-6-42,50,VR_target_stimuli/s45_1x_3.5_368.png,250,1x,3.5,7,3280,250,meters,jsons/MX_seq46_1_VE250_flipped.json,282938,520114,53,Man
50,247171,final-intermixed-textured,v2,jsons/MX_seq46_1_VE250_flipped.json,http://54.235.29.9/FacialAge/BNav_EC2/DepthDuration/MX_fS_VE_MTurk/MX_fS_HTML.html#76,76,1920,911,1920,1080,1-1-2024,13-6-42,51,VR_target_stimuli/s23_1.3x_3.65_354.png,250,1.3x,3.65,4,4031,248,meters,jsons/MX_seq46_1_VE250_flipped.json,282938,520114,53,Man
51,247171,final-intermixed-textured,v2,jsons/MX_seq46_1_VE250_flipped.json,http://54.235.29.9/FacialAge/BNav_EC2/DepthDuration/MX_fS_VE_MTurk/MX_fS_HTML.html#76,76,1920,911,1920,1080,1-1-2024,13-6-42,52,VR_target_stimuli/s26_0.75x_4_430.png,250,0.75x,4.0,5,4086,251,meters,jsons/MX_seq46_1_VE250_flipped.json,282938,520114,53,Man
52,247171,final-intermixed-textured,v2,jsons/MX_seq46_1_VE250_flipped.json,http://54.235.29.9/FacialAge/BNav_EC2/DepthDuration/MX_fS_VE_MTurk/MX_fS_HTML.html#76,76,1920,911,1920,1080,1-1-2024,13-6-42,53,catch_stimuli/c5_BC.png,250,,,0,3521,259,meters,jsons/MX_seq46_1_VE250_flipped.json,282938,520114,53,Man
53,247171,final-intermixed-textured,v2,jsons/MX_seq46_1_VE250_flipped.json,http://54.235.29.9/FacialAge/BNav_EC2/DepthDuration/MX_fS_VE_MTurk/MX_fS_HTML.html#76,76,1920,911,1920,1080,1-1-2024,13-6-42,54,VR_target_stimuli/s12_1x_3.1_372_BC.png,250,1x,3.1,6,3933,255,meters,jsons/MX_seq46_1_VE250_flipped.json,282938,520114,53,Man
54,247171,final-intermixed-textured,v2,jsons/MX_seq46_1_VE250_flipped.json,http://54.235.29.9/FacialAge/BNav_EC2/DepthDuration/MX_fS_VE_MTurk/MX_fS_HTML.html#76,76,1920,911,1920,1080,1-1-2024,13-6-42,55,VR_target_stimuli/s30_0.75x_2.3_332.png,250,0.75x,2.3,0,3277,255,meters,jsons/MX_seq46_1_VE250_flipped.json,282938,520114,53,Man
55,247171,final-intermixed-textured,v2,jsons/MX_seq46_1_VE250_flipped.json,http://54.235.29.9/FacialAge/BNav_EC2/DepthDuration/MX_fS_VE_MTurk/MX_fS_HTML.html#76,76,1920,911,1920,1080,1-1-2024,13-6-42,56,VR_target_stimuli/s16_1.3x_1_223_BC.png,250,1.3x,1.0,5,3370,259,meters,jsons/MX_seq46_1_VE250_flipped.json,282938,520114,53,Man
56,247171,final-intermixed-textured,v2,jsons/MX_seq46_1_VE250_flipped.json,http://54.235.29.9/FacialAge/BNav_EC2/DepthDuration/MX_fS_VE_MTurk/MX_fS_HTML.html#76,76,1920,911,1920,1080,1-1-2024,13-6-42,57,VR_target_stimuli/s17_1x_1.8_291_BC.png,250,1x,1.8,4,3784,250,meters,jsons/MX_seq46_1_VE250_flipped.json,282938,520114,53,Man
57,247171,final-intermixed-textured,v2,jsons/MX_seq46_1_VE250_flipped.json,http://54.235.29.9/FacialAge/BNav_EC2/DepthDuration/MX_fS_VE_MTurk/MX_fS_HTML.html#76,76,1920,911,1920,1080,1-1-2024,13-6-42,58,VR_target_stimuli/s5_1x_4_378.png,250,1x,4.0,7,4113,250,meters,jsons/MX_seq46_1_VE250_flipped.json,282938,520114,53,Man
58,247171,final-intermixed-textured,v2,jsons/MX_seq46_1_VE250_flipped.json,http://54.235.29.9/FacialAge/BNav_EC2/DepthDuration/MX_fS_VE_MTurk/MX_fS_HTML.html#76,76,1920,911,1920,1080,1-1-2024,13-6-42,59,VR_target_stimuli/s37_0.75x_3.3_567_BC.png,250,0.75x,3.3,7,4192,253,meters,jsons/MX_seq46_1_VE250_flipped.json,282938,520114,53,Man
59,247171,final-intermixed-textured,v2,jsons/MX_seq46_1_VE250_flipped.json,http://54.235.29.9/FacialAge/BNav_EC2/DepthDuration/MX_fS_VE_MTurk/MX_fS_HTML.html#76,76,1920,911,1920,1080,1-1-2024,13-6-42,60,VR_target_stimuli/s46_1.3x_2.42_354.png,250,1.3x,2.42,10,4056,241,meters,jsons/MX_seq46_1_VE250_flipped.json,282938,520114,53,Man
