,subjID,experimentName,versionName,sequenceName,url,selected_row,windowWidth,windowHeight,screenWidth,screenHeight,startDate,startTime,trial,stimulus,duration,scale,actual_depth,depth_estimate,trial_RT,log_sceneDuration,unitSelection,seq_filepath,experimentTime,totalTime,age,gender
0,247743,final-intermixed-textured,v2,jsons/MX_seq3_2_VE250_flipped.json,http://54.235.29.9/FacialAge/BNav_EC2/DepthDuration/MX_fS_VE_MTurk/MX_fS_HTML.html#178,178,1280,713,1280,800,0-31-2024,22-4-11,1,VR_target_stimuli/s2_1x_2.7_390_BC.png,250,1x,2.7,15.0,9678,254,feet,jsons/MX_seq3_2_VE250_flipped.json,377267,661437,50,Woman
1,247743,final-intermixed-textured,v2,jsons/MX_seq3_2_VE250_flipped.json,http://54.235.29.9/FacialAge/BNav_EC2/DepthDuration/MX_fS_VE_MTurk/MX_fS_HTML.html#178,178,1280,713,1280,800,0-31-2024,22-4-11,2,VR_target_stimuli/s6_1.3x_2.1_298_BC.png,250,1.3x,2.1,11.0,6598,254,feet,jsons/MX_seq3_2_VE250_flipped.json,377267,661437,50,Woman
2,247743,final-intermixed-textured,v2,jsons/MX_seq3_2_VE250_flipped.json,http://54.235.29.9/FacialAge/BNav_EC2/DepthDuration/MX_fS_VE_MTurk/MX_fS_HTML.html#178,178,1280,713,1280,800,0-31-2024,22-4-11,3,VR_target_stimuli/s0_0.75x_2.6_345.png,250,0.75x,2.6,9.0,6246,252,feet,jsons/MX_seq3_2_VE250_flipped.json,377267,661437,50,Woman
3,247743,final-intermixed-textured,v2,jsons/MX_seq3_2_VE250_flipped.json,http://54.235.29.9/FacialAge/BNav_EC2/DepthDuration/MX_fS_VE_MTurk/MX_fS_HTML.html#178,178,1280,713,1280,800,0-31-2024,22-4-11,4,VR_target_stimuli/s34_1.3x_2.8_294.png,250,1.3x,2.8,13.0,7832,253,feet,jsons/MX_seq3_2_VE250_flipped.json,377267,661437,50,Woman
4,247743,final-intermixed-textured,v2,jsons/MX_seq3_2_VE250_flipped.json,http://54.235.29.9/FacialAge/BNav_EC2/DepthDuration/MX_fS_VE_MTurk/MX_fS_HTML.html#178,178,1280,713,1280,800,0-31-2024,22-4-11,5,VR_target_stimuli/s13_1x_2.4_310.png,250,1x,2.4,8.0,6932,254,feet,jsons/MX_seq3_2_VE250_flipped.json,377267,661437,50,Woman
5,247743,final-intermixed-textured,v2,jsons/MX_seq3_2_VE250_flipped.json,http://54.235.29.9/FacialAge/BNav_EC2/DepthDuration/MX_fS_VE_MTurk/MX_fS_HTML.html#178,178,1280,713,1280,800,0-31-2024,22-4-11,6,VR_target_stimuli/s14_0.75x_3.83_355_BC.png,250,0.75x,3.83,11.0,6179,253,feet,jsons/MX_seq3_2_VE250_flipped.json,377267,661437,50,Woman
6,247743,final-intermixed-textured,v2,jsons/MX_seq3_2_VE250_flipped.json,http://54.235.29.9/FacialAge/BNav_EC2/DepthDuration/MX_fS_VE_MTurk/MX_fS_HTML.html#178,178,1280,713,1280,800,0-31-2024,22-4-11,7,catch_stimuli/c0_BC.png,250,,,0.0,4465,252,feet,jsons/MX_seq3_2_VE250_flipped.json,377267,661437,50,Woman
7,247743,final-intermixed-textured,v2,jsons/MX_seq3_2_VE250_flipped.json,http://54.235.29.9/FacialAge/BNav_EC2/DepthDuration/MX_fS_VE_MTurk/MX_fS_HTML.html#178,178,1280,713,1280,800,0-31-2024,22-4-11,8,VR_target_stimuli/s47_0.75x_3.45_366.png,250,0.75x,3.45,7.0,6679,254,feet,jsons/MX_seq3_2_VE250_flipped.json,377267,661437,50,Woman
8,247743,final-intermixed-textured,v2,jsons/MX_seq3_2_VE250_flipped.json,http://54.235.29.9/FacialAge/BNav_EC2/DepthDuration/MX_fS_VE_MTurk/MX_fS_HTML.html#178,178,1280,713,1280,800,0-31-2024,22-4-11,9,VR_target_stimuli/s29_1.3x_1.3_253.png,250,1.3x,1.3,4.0,5831,252,feet,jsons/MX_seq3_2_VE250_flipped.json,377267,661437,50,Woman
9,247743,final-intermixed-textured,v2,jsons/MX_seq3_2_VE250_flipped.json,http://54.235.29.9/FacialAge/BNav_EC2/DepthDuration/MX_fS_VE_MTurk/MX_fS_HTML.html#178,178,1280,713,1280,800,0-31-2024,22-4-11,10,VR_target_stimuli/s28_1x_3.2_362.png,250,1x,3.2,9.0,6400,254,feet,jsons/MX_seq3_2_VE250_flipped.json,377267,661437,50,Woman
10,247743,final-intermixed-textured,v2,jsons/MX_seq3_2_VE250_flipped.json,http://54.235.29.9/FacialAge/BNav_EC2/DepthDuration/MX_fS_VE_MTurk/MX_fS_HTML.html#178,178,1280,713,1280,800,0-31-2024,22-4-11,11,VR_target_stimuli/s48_1.3x_2.55_255_BC.png,250,1.3x,2.55,4.0,8732,250,feet,jsons/MX_seq3_2_VE250_flipped.json,377267,661437,50,Woman
11,247743,final-intermixed-textured,v2,jsons/MX_seq3_2_VE250_flipped.json,http://54.235.29.9/FacialAge/BNav_EC2/DepthDuration/MX_fS_VE_MTurk/MX_fS_HTML.html#178,178,1280,713,1280,800,0-31-2024,22-4-11,12,VR_target_stimuli/s19_0.75x_1.21_257_BC.png,250,0.75x,1.21,3.0,4630,253,feet,jsons/MX_seq3_2_VE250_flipped.json,377267,661437,50,Woman
12,247743,final-intermixed-textured,v2,jsons/MX_seq3_2_VE250_flipped.json,http://54.235.29.9/FacialAge/BNav_EC2/DepthDuration/MX_fS_VE_MTurk/MX_fS_HTML.html#178,178,1280,713,1280,800,0-31-2024,22-4-11,13,VR_target_stimuli/s21_1x_4.22_379_BC.png,250,1x,4.22,14.0,8231,252,feet,jsons/MX_seq3_2_VE250_flipped.json,377267,661437,50,Woman
13,247743,final-intermixed-textured,v2,jsons/MX_seq3_2_VE250_flipped.json,http://54.235.29.9/FacialAge/BNav_EC2/DepthDuration/MX_fS_VE_MTurk/MX_fS_HTML.html#178,178,1280,713,1280,800,0-31-2024,22-4-11,14,VR_target_stimuli/s8_0.75x_3.1_325.png,250,0.75x,3.1,9.0,7083,252,feet,jsons/MX_seq3_2_VE250_flipped.json,377267,661437,50,Woman
14,247743,final-intermixed-textured,v2,jsons/MX_seq3_2_VE250_flipped.json,http://54.235.29.9/FacialAge/BNav_EC2/DepthDuration/MX_fS_VE_MTurk/MX_fS_HTML.html#178,178,1280,713,1280,800,0-31-2024,22-4-11,15,VR_target_stimuli/s27_1.3x_1.76_250.png,250,1.3x,1.76,6.0,6613,253,feet,jsons/MX_seq3_2_VE250_flipped.json,377267,661437,50,Woman
15,247743,final-intermixed-textured,v2,jsons/MX_seq3_2_VE250_flipped.json,http://54.235.29.9/FacialAge/BNav_EC2/DepthDuration/MX_fS_VE_MTurk/MX_fS_HTML.html#178,178,1280,713,1280,800,0-31-2024,22-4-11,16,VR_target_stimuli/s15_1x_4.2_390_BC.png,250,1x,4.2,13.0,5567,254,feet,jsons/MX_seq3_2_VE250_flipped.json,377267,661437,50,Woman
16,247743,final-intermixed-textured,v2,jsons/MX_seq3_2_VE250_flipped.json,http://54.235.29.9/FacialAge/BNav_EC2/DepthDuration/MX_fS_VE_MTurk/MX_fS_HTML.html#178,178,1280,713,1280,800,0-31-2024,22-4-11,17,catch_stimuli/c1_BC.png,250,,,0.0,3528,248,feet,jsons/MX_seq3_2_VE250_flipped.json,377267,661437,50,Woman
17,247743,final-intermixed-textured,v2,jsons/MX_seq3_2_VE250_flipped.json,http://54.235.29.9/FacialAge/BNav_EC2/DepthDuration/MX_fS_VE_MTurk/MX_fS_HTML.html#178,178,1280,713,1280,800,0-31-2024,22-4-11,18,VR_target_stimuli/s4_1x_1.4_313.png,250,1x,1.4,3.0,5268,254,feet,jsons/MX_seq3_2_VE250_flipped.json,377267,661437,50,Woman
18,247743,final-intermixed-textured,v2,jsons/MX_seq3_2_VE250_flipped.json,http://54.235.29.9/FacialAge/BNav_EC2/DepthDuration/MX_fS_VE_MTurk/MX_fS_HTML.html#178,178,1280,713,1280,800,0-31-2024,22-4-11,19,VR_target_stimuli/s35_0.75x_2_323_BC.png,250,0.75x,2.0,6.0,8066,254,feet,jsons/MX_seq3_2_VE250_flipped.json,377267,661437,50,Woman
19,247743,final-intermixed-textured,v2,jsons/MX_seq3_2_VE250_flipped.json,http://54.235.29.9/FacialAge/BNav_EC2/DepthDuration/MX_fS_VE_MTurk/MX_fS_HTML.html#178,178,1280,713,1280,800,0-31-2024,22-4-11,20,VR_target_stimuli/s49_1.3x_4.67_354_BC.png,250,1.3x,4.67,12.0,4364,255,feet,jsons/MX_seq3_2_VE250_flipped.json,377267,661437,50,Woman
20,247743,final-intermixed-textured,v2,jsons/MX_seq3_2_VE250_flipped.json,http://54.235.29.9/FacialAge/BNav_EC2/DepthDuration/MX_fS_VE_MTurk/MX_fS_HTML.html#178,178,1280,713,1280,800,0-31-2024,22-4-11,21,VR_target_stimuli/s7_0.75x_1.5_253.png,250,0.75x,1.5,7.0,5413,253,feet,jsons/MX_seq3_2_VE250_flipped.json,377267,661437,50,Woman
21,247743,final-intermixed-textured,v2,jsons/MX_seq3_2_VE250_flipped.json,http://54.235.29.9/FacialAge/BNav_EC2/DepthDuration/MX_fS_VE_MTurk/MX_fS_HTML.html#178,178,1280,713,1280,800,0-31-2024,22-4-11,22,VR_target_stimuli/s20_1x_4.99_398_BC.png,250,1x,4.99,12.0,6517,252,feet,jsons/MX_seq3_2_VE250_flipped.json,377267,661437,50,Woman
22,247743,final-intermixed-textured,v2,jsons/MX_seq3_2_VE250_flipped.json,http://54.235.29.9/FacialAge/BNav_EC2/DepthDuration/MX_fS_VE_MTurk/MX_fS_HTML.html#178,178,1280,713,1280,800,0-31-2024,22-4-11,23,VR_target_stimuli/s31_1.3x_4.96_342_BC.png,250,1.3x,4.96,6.0,7265,253,feet,jsons/MX_seq3_2_VE250_flipped.json,377267,661437,50,Woman
23,247743,final-intermixed-textured,v2,jsons/MX_seq3_2_VE250_flipped.json,http://54.235.29.9/FacialAge/BNav_EC2/DepthDuration/MX_fS_VE_MTurk/MX_fS_HTML.html#178,178,1280,713,1280,800,0-31-2024,22-4-11,24,VR_target_stimuli/s33_1x_3.1_366.png,250,1x,3.1,7.0,4879,253,feet,jsons/MX_seq3_2_VE250_flipped.json,377267,661437,50,Woman
24,247743,final-intermixed-textured,v2,jsons/MX_seq3_2_VE250_flipped.json,http://54.235.29.9/FacialAge/BNav_EC2/DepthDuration/MX_fS_VE_MTurk/MX_fS_HTML.html#178,178,1280,713,1280,800,0-31-2024,22-4-11,25,VR_target_stimuli/s52_0.75x_3.2_270_BC.png,250,0.75x,3.2,9.0,9099,253,feet,jsons/MX_seq3_2_VE250_flipped.json,377267,661437,50,Woman
25,247743,final-intermixed-textured,v2,jsons/MX_seq3_2_VE250_flipped.json,http://54.235.29.9/FacialAge/BNav_EC2/DepthDuration/MX_fS_VE_MTurk/MX_fS_HTML.html#178,178,1280,713,1280,800,0-31-2024,22-4-11,26,catch_stimuli/c2_BC.png,250,,,0.0,3516,254,feet,jsons/MX_seq3_2_VE250_flipped.json,377267,661437,50,Woman
26,247743,final-intermixed-textured,v2,jsons/MX_seq3_2_VE250_flipped.json,http://54.235.29.9/FacialAge/BNav_EC2/DepthDuration/MX_fS_VE_MTurk/MX_fS_HTML.html#178,178,1280,713,1280,800,0-31-2024,22-4-11,27,VR_target_stimuli/s32_1.3x_1.5_224.png,250,1.3x,1.5,7.0,7914,254,feet,jsons/MX_seq3_2_VE250_flipped.json,377267,661437,50,Woman
27,247743,final-intermixed-textured,v2,jsons/MX_seq3_2_VE250_flipped.json,http://54.235.29.9/FacialAge/BNav_EC2/DepthDuration/MX_fS_VE_MTurk/MX_fS_HTML.html#178,178,1280,713,1280,800,0-31-2024,22-4-11,28,VR_target_stimuli/s18_1.3x_2.25_368_BC.png,250,1.3x,2.25,5.0,4364,250,feet,jsons/MX_seq3_2_VE250_flipped.json,377267,661437,50,Woman
28,247743,final-intermixed-textured,v2,jsons/MX_seq3_2_VE250_flipped.json,http://54.235.29.9/FacialAge/BNav_EC2/DepthDuration/MX_fS_VE_MTurk/MX_fS_HTML.html#178,178,1280,713,1280,800,0-31-2024,22-4-11,29,VR_target_stimuli/s39_1x_1_207_BC.png,250,1x,1.0,3.0,9401,254,feet,jsons/MX_seq3_2_VE250_flipped.json,377267,661437,50,Woman
29,247743,final-intermixed-textured,v2,jsons/MX_seq3_2_VE250_flipped.json,http://54.235.29.9/FacialAge/BNav_EC2/DepthDuration/MX_fS_VE_MTurk/MX_fS_HTML.html#178,178,1280,713,1280,800,0-31-2024,22-4-11,30,VR_target_stimuli/s51_0.75x_3.64_460.png,250,0.75x,3.64,4.0,4897,252,feet,jsons/MX_seq3_2_VE250_flipped.json,377267,661437,50,Woman
30,247743,final-intermixed-textured,v2,jsons/MX_seq3_2_VE250_flipped.json,http://54.235.29.9/FacialAge/BNav_EC2/DepthDuration/MX_fS_VE_MTurk/MX_fS_HTML.html#178,178,1280,713,1280,800,0-31-2024,22-4-11,31,VR_target_stimuli/s43_1.3x_2.2_363.png,250,1.3x,2.2,5.0,5677,252,feet,jsons/MX_seq3_2_VE250_flipped.json,377267,661437,50,Woman
31,247743,final-intermixed-textured,v2,jsons/MX_seq3_2_VE250_flipped.json,http://54.235.29.9/FacialAge/BNav_EC2/DepthDuration/MX_fS_VE_MTurk/MX_fS_HTML.html#178,178,1280,713,1280,800,0-31-2024,22-4-11,32,VR_target_stimuli/s24_0.75x_3.3_344_BC.png,250,0.75x,3.3,0.0,5334,254,feet,jsons/MX_seq3_2_VE250_flipped.json,377267,661437,50,Woman
32,247743,final-intermixed-textured,v2,jsons/MX_seq3_2_VE250_flipped.json,http://54.235.29.9/FacialAge/BNav_EC2/DepthDuration/MX_fS_VE_MTurk/MX_fS_HTML.html#178,178,1280,713,1280,800,0-31-2024,22-4-11,33,VR_target_stimuli/s10_1x_2.7_324.png,250,1x,2.7,8.0,6346,249,feet,jsons/MX_seq3_2_VE250_flipped.json,377267,661437,50,Woman
33,247743,final-intermixed-textured,v2,jsons/MX_seq3_2_VE250_flipped.json,http://54.235.29.9/FacialAge/BNav_EC2/DepthDuration/MX_fS_VE_MTurk/MX_fS_HTML.html#178,178,1280,713,1280,800,0-31-2024,22-4-11,34,catch_stimuli/c3_BC.png,250,,,0.0,4250,250,feet,jsons/MX_seq3_2_VE250_flipped.json,377267,661437,50,Woman
34,247743,final-intermixed-textured,v2,jsons/MX_seq3_2_VE250_flipped.json,http://54.235.29.9/FacialAge/BNav_EC2/DepthDuration/MX_fS_VE_MTurk/MX_fS_HTML.html#178,178,1280,713,1280,800,0-31-2024,22-4-11,35,VR_target_stimuli/s36_0.75x_4.1_407_BC.png,250,0.75x,4.1,10.0,6464,253,feet,jsons/MX_seq3_2_VE250_flipped.json,377267,661437,50,Woman
35,247743,final-intermixed-textured,v2,jsons/MX_seq3_2_VE250_flipped.json,http://54.235.29.9/FacialAge/BNav_EC2/DepthDuration/MX_fS_VE_MTurk/MX_fS_HTML.html#178,178,1280,713,1280,800,0-31-2024,22-4-11,36,VR_target_stimuli/s40_1.3x_1.2_332.png,250,1.3x,1.2,3.0,4781,253,feet,jsons/MX_seq3_2_VE250_flipped.json,377267,661437,50,Woman
36,247743,final-intermixed-textured,v2,jsons/MX_seq3_2_VE250_flipped.json,http://54.235.29.9/FacialAge/BNav_EC2/DepthDuration/MX_fS_VE_MTurk/MX_fS_HTML.html#178,178,1280,713,1280,800,0-31-2024,22-4-11,37,VR_target_stimuli/s41_1x_2.1_286.png,250,1x,2.1,4.0,4515,249,feet,jsons/MX_seq3_2_VE250_flipped.json,377267,661437,50,Woman
37,247743,final-intermixed-textured,v2,jsons/MX_seq3_2_VE250_flipped.json,http://54.235.29.9/FacialAge/BNav_EC2/DepthDuration/MX_fS_VE_MTurk/MX_fS_HTML.html#178,178,1280,713,1280,800,0-31-2024,22-4-11,38,VR_target_stimuli/s45_1x_3.5_368_BC.png,250,1x,3.5,5.0,4630,252,feet,jsons/MX_seq3_2_VE250_flipped.json,377267,661437,50,Woman
38,247743,final-intermixed-textured,v2,jsons/MX_seq3_2_VE250_flipped.json,http://54.235.29.9/FacialAge/BNav_EC2/DepthDuration/MX_fS_VE_MTurk/MX_fS_HTML.html#178,178,1280,713,1280,800,0-31-2024,22-4-11,39,VR_target_stimuli/s23_0.75x_3.65_351.png,250,0.75x,3.65,8.0,8082,253,feet,jsons/MX_seq3_2_VE250_flipped.json,377267,661437,50,Woman
39,247743,final-intermixed-textured,v2,jsons/MX_seq3_2_VE250_flipped.json,http://54.235.29.9/FacialAge/BNav_EC2/DepthDuration/MX_fS_VE_MTurk/MX_fS_HTML.html#178,178,1280,713,1280,800,0-31-2024,22-4-11,40,VR_target_stimuli/s26_1.3x_4_441_BC.png,250,1.3x,4.0,10.0,8049,253,feet,jsons/MX_seq3_2_VE250_flipped.json,377267,661437,50,Woman
40,247743,final-intermixed-textured,v2,jsons/MX_seq3_2_VE250_flipped.json,http://54.235.29.9/FacialAge/BNav_EC2/DepthDuration/MX_fS_VE_MTurk/MX_fS_HTML.html#178,178,1280,713,1280,800,0-31-2024,22-4-11,41,VR_target_stimuli/s12_0.75x_3.1_364.png,250,0.75x,3.1,4.0,3943,251,feet,jsons/MX_seq3_2_VE250_flipped.json,377267,661437,50,Woman
41,247743,final-intermixed-textured,v2,jsons/MX_seq3_2_VE250_flipped.json,http://54.235.29.9/FacialAge/BNav_EC2/DepthDuration/MX_fS_VE_MTurk/MX_fS_HTML.html#178,178,1280,713,1280,800,0-31-2024,22-4-11,42,VR_target_stimuli/s30_1x_2.3_334_BC.png,250,1x,2.3,6.0,3701,252,feet,jsons/MX_seq3_2_VE250_flipped.json,377267,661437,50,Woman
42,247743,final-intermixed-textured,v2,jsons/MX_seq3_2_VE250_flipped.json,http://54.235.29.9/FacialAge/BNav_EC2/DepthDuration/MX_fS_VE_MTurk/MX_fS_HTML.html#178,178,1280,713,1280,800,0-31-2024,22-4-11,43,VR_target_stimuli/s16_1.3x_1_223.png,250,1.3x,1.0,2.5,7212,247,feet,jsons/MX_seq3_2_VE250_flipped.json,377267,661437,50,Woman
43,247743,final-intermixed-textured,v2,jsons/MX_seq3_2_VE250_flipped.json,http://54.235.29.9/FacialAge/BNav_EC2/DepthDuration/MX_fS_VE_MTurk/MX_fS_HTML.html#178,178,1280,713,1280,800,0-31-2024,22-4-11,44,VR_target_stimuli/s17_1x_1.8_291.png,250,1x,1.8,4.0,3981,253,feet,jsons/MX_seq3_2_VE250_flipped.json,377267,661437,50,Woman
44,247743,final-intermixed-textured,v2,jsons/MX_seq3_2_VE250_flipped.json,http://54.235.29.9/FacialAge/BNav_EC2/DepthDuration/MX_fS_VE_MTurk/MX_fS_HTML.html#178,178,1280,713,1280,800,0-31-2024,22-4-11,45,catch_stimuli/c4_BC.png,250,,,0.0,3446,249,feet,jsons/MX_seq3_2_VE250_flipped.json,377267,661437,50,Woman
45,247743,final-intermixed-textured,v2,jsons/MX_seq3_2_VE250_flipped.json,http://54.235.29.9/FacialAge/BNav_EC2/DepthDuration/MX_fS_VE_MTurk/MX_fS_HTML.html#178,178,1280,713,1280,800,0-31-2024,22-4-11,46,VR_target_stimuli/s5_0.75x_4_375_BC.png,250,0.75x,4.0,7.0,4900,250,feet,jsons/MX_seq3_2_VE250_flipped.json,377267,661437,50,Woman
46,247743,final-intermixed-textured,v2,jsons/MX_seq3_2_VE250_flipped.json,http://54.235.29.9/FacialAge/BNav_EC2/DepthDuration/MX_fS_VE_MTurk/MX_fS_HTML.html#178,178,1280,713,1280,800,0-31-2024,22-4-11,47,VR_target_stimuli/s37_1.3x_3.3_555_BC.png,250,1.3x,3.3,5.0,5680,250,feet,jsons/MX_seq3_2_VE250_flipped.json,377267,661437,50,Woman
47,247743,final-intermixed-textured,v2,jsons/MX_seq3_2_VE250_flipped.json,http://54.235.29.9/FacialAge/BNav_EC2/DepthDuration/MX_fS_VE_MTurk/MX_fS_HTML.html#178,178,1280,713,1280,800,0-31-2024,22-4-11,48,VR_target_stimuli/s46_1.3x_2.42_354.png,250,1.3x,2.42,6.0,4315,253,feet,jsons/MX_seq3_2_VE250_flipped.json,377267,661437,50,Woman
48,247743,final-intermixed-textured,v2,jsons/MX_seq3_2_VE250_flipped.json,http://54.235.29.9/FacialAge/BNav_EC2/DepthDuration/MX_fS_VE_MTurk/MX_fS_HTML.html#178,178,1280,713,1280,800,0-31-2024,22-4-11,49,VR_target_stimuli/s22_1x_4.29_354.png,250,1x,4.29,12.0,5765,251,feet,jsons/MX_seq3_2_VE250_flipped.json,377267,661437,50,Woman
49,247743,final-intermixed-textured,v2,jsons/MX_seq3_2_VE250_flipped.json,http://54.235.29.9/FacialAge/BNav_EC2/DepthDuration/MX_fS_VE_MTurk/MX_fS_HTML.html#178,178,1280,713,1280,800,0-31-2024,22-4-11,50,VR_target_stimuli/s42_0.75x_3.2_301_BC.png,250,0.75x,3.2,8.0,6298,253,feet,jsons/MX_seq3_2_VE250_flipped.json,377267,661437,50,Woman
50,247743,final-intermixed-textured,v2,jsons/MX_seq3_2_VE250_flipped.json,http://54.235.29.9/FacialAge/BNav_EC2/DepthDuration/MX_fS_VE_MTurk/MX_fS_HTML.html#178,178,1280,713,1280,800,0-31-2024,22-4-11,51,VR_target_stimuli/s25_1x_1.4_290_BC.png,250,1x,1.4,4.0,4165,253,feet,jsons/MX_seq3_2_VE250_flipped.json,377267,661437,50,Woman
51,247743,final-intermixed-textured,v2,jsons/MX_seq3_2_VE250_flipped.json,http://54.235.29.9/FacialAge/BNav_EC2/DepthDuration/MX_fS_VE_MTurk/MX_fS_HTML.html#178,178,1280,713,1280,800,0-31-2024,22-4-11,52,VR_target_stimuli/s50_1.3x_4.53_518_BC.png,250,1.3x,4.53,10.0,4329,251,feet,jsons/MX_seq3_2_VE250_flipped.json,377267,661437,50,Woman
52,247743,final-intermixed-textured,v2,jsons/MX_seq3_2_VE250_flipped.json,http://54.235.29.9/FacialAge/BNav_EC2/DepthDuration/MX_fS_VE_MTurk/MX_fS_HTML.html#178,178,1280,713,1280,800,0-31-2024,22-4-11,53,catch_stimuli/c5_BC.png,250,,,0.0,3265,253,feet,jsons/MX_seq3_2_VE250_flipped.json,377267,661437,50,Woman
53,247743,final-intermixed-textured,v2,jsons/MX_seq3_2_VE250_flipped.json,http://54.235.29.9/FacialAge/BNav_EC2/DepthDuration/MX_fS_VE_MTurk/MX_fS_HTML.html#178,178,1280,713,1280,800,0-31-2024,22-4-11,54,VR_target_stimuli/s53_0.75x_1.6_403.png,250,0.75x,1.6,3.0,3784,253,feet,jsons/MX_seq3_2_VE250_flipped.json,377267,661437,50,Woman
54,247743,final-intermixed-textured,v2,jsons/MX_seq3_2_VE250_flipped.json,http://54.235.29.9/FacialAge/BNav_EC2/DepthDuration/MX_fS_VE_MTurk/MX_fS_HTML.html#178,178,1280,713,1280,800,0-31-2024,22-4-11,55,VR_target_stimuli/s38_1.3x_3.55_358.png,250,1.3x,3.55,11.0,6228,253,feet,jsons/MX_seq3_2_VE250_flipped.json,377267,661437,50,Woman
55,247743,final-intermixed-textured,v2,jsons/MX_seq3_2_VE250_flipped.json,http://54.235.29.9/FacialAge/BNav_EC2/DepthDuration/MX_fS_VE_MTurk/MX_fS_HTML.html#178,178,1280,713,1280,800,0-31-2024,22-4-11,56,VR_target_stimuli/s9_1x_1.2_263_BC.png,250,1x,1.2,5.5,6631,250,feet,jsons/MX_seq3_2_VE250_flipped.json,377267,661437,50,Woman
56,247743,final-intermixed-textured,v2,jsons/MX_seq3_2_VE250_flipped.json,http://54.235.29.9/FacialAge/BNav_EC2/DepthDuration/MX_fS_VE_MTurk/MX_fS_HTML.html#178,178,1280,713,1280,800,0-31-2024,22-4-11,57,VR_target_stimuli/s44_0.75x_4.4_314.png,250,0.75x,4.4,8.0,4582,252,feet,jsons/MX_seq3_2_VE250_flipped.json,377267,661437,50,Woman
57,247743,final-intermixed-textured,v2,jsons/MX_seq3_2_VE250_flipped.json,http://54.235.29.9/FacialAge/BNav_EC2/DepthDuration/MX_fS_VE_MTurk/MX_fS_HTML.html#178,178,1280,713,1280,800,0-31-2024,22-4-11,58,VR_target_stimuli/s3_0.75x_5_381_BC.png,250,0.75x,5.0,12.0,5329,254,feet,jsons/MX_seq3_2_VE250_flipped.json,377267,661437,50,Woman
58,247743,final-intermixed-textured,v2,jsons/MX_seq3_2_VE250_flipped.json,http://54.235.29.9/FacialAge/BNav_EC2/DepthDuration/MX_fS_VE_MTurk/MX_fS_HTML.html#178,178,1280,713,1280,800,0-31-2024,22-4-11,59,VR_target_stimuli/s1_1.3x_1.7_261_BC.png,250,1.3x,1.7,5.0,3996,252,feet,jsons/MX_seq3_2_VE250_flipped.json,377267,661437,50,Woman
59,247743,final-intermixed-textured,v2,jsons/MX_seq3_2_VE250_flipped.json,http://54.235.29.9/FacialAge/BNav_EC2/DepthDuration/MX_fS_VE_MTurk/MX_fS_HTML.html#178,178,1280,713,1280,800,0-31-2024,22-4-11,60,VR_target_stimuli/s11_1x_5_361.png,250,1x,5.0,10.0,5267,247,feet,jsons/MX_seq3_2_VE250_flipped.json,377267,661437,50,Woman
