,subjID,experimentName,versionName,sequenceName,url,selected_row,windowWidth,windowHeight,screenWidth,screenHeight,startDate,startTime,trial,stimulus,duration,scale,actual_depth,depth_estimate,trial_RT,log_sceneDuration,unitSelection,seq_filepath,experimentTime,totalTime,age,gender
0,251836,final-intermixed-textured,v2,jsons/MX_seq22_0_VE250_flipped.json,http://54.235.29.9/FacialAge/BNav_EC2/DepthDuration/MX_fS_VE_MTurk/MX_fS_HTML.html#321,321,1536,864,1536,864,0-31-2024,19-12-40,1,VR_target_stimuli/s20_0.75x_4.99_390_BC.png,250,0.75x,4.99,1,10865,248,meters,jsons/MX_seq22_0_VE250_flipped.json,211513,397691,24,Woman
1,251836,final-intermixed-textured,v2,jsons/MX_seq22_0_VE250_flipped.json,http://54.235.29.9/FacialAge/BNav_EC2/DepthDuration/MX_fS_VE_MTurk/MX_fS_HTML.html#321,321,1536,864,1536,864,0-31-2024,19-12-40,2,VR_target_stimuli/s31_1x_4.96_333.png,250,1x,4.96,0,3435,249,meters,jsons/MX_seq22_0_VE250_flipped.json,211513,397691,24,Woman
2,251836,final-intermixed-textured,v2,jsons/MX_seq22_0_VE250_flipped.json,http://54.235.29.9/FacialAge/BNav_EC2/DepthDuration/MX_fS_VE_MTurk/MX_fS_HTML.html#321,321,1536,864,1536,864,0-31-2024,19-12-40,3,VR_target_stimuli/s33_1.3x_3.1_378_BC.png,250,1.3x,3.1,1,3302,246,meters,jsons/MX_seq22_0_VE250_flipped.json,211513,397691,24,Woman
3,251836,final-intermixed-textured,v2,jsons/MX_seq22_0_VE250_flipped.json,http://54.235.29.9/FacialAge/BNav_EC2/DepthDuration/MX_fS_VE_MTurk/MX_fS_HTML.html#321,321,1536,864,1536,864,0-31-2024,19-12-40,4,VR_target_stimuli/s52_1x_3.2_275_BC.png,250,1x,3.2,1,3262,246,meters,jsons/MX_seq22_0_VE250_flipped.json,211513,397691,24,Woman
4,251836,final-intermixed-textured,v2,jsons/MX_seq22_0_VE250_flipped.json,http://54.235.29.9/FacialAge/BNav_EC2/DepthDuration/MX_fS_VE_MTurk/MX_fS_HTML.html#321,321,1536,864,1536,864,0-31-2024,19-12-40,5,VR_target_stimuli/s32_0.75x_1.5_213.png,250,0.75x,1.5,0,3288,246,meters,jsons/MX_seq22_0_VE250_flipped.json,211513,397691,24,Woman
5,251836,final-intermixed-textured,v2,jsons/MX_seq22_0_VE250_flipped.json,http://54.235.29.9/FacialAge/BNav_EC2/DepthDuration/MX_fS_VE_MTurk/MX_fS_HTML.html#321,321,1536,864,1536,864,0-31-2024,19-12-40,6,VR_target_stimuli/s18_1.3x_2.25_368.png,250,1.3x,2.25,1,3647,240,meters,jsons/MX_seq22_0_VE250_flipped.json,211513,397691,24,Woman
6,251836,final-intermixed-textured,v2,jsons/MX_seq22_0_VE250_flipped.json,http://54.235.29.9/FacialAge/BNav_EC2/DepthDuration/MX_fS_VE_MTurk/MX_fS_HTML.html#321,321,1536,864,1536,864,0-31-2024,19-12-40,7,catch_stimuli/c0_BC.png,250,,,0,3068,253,meters,jsons/MX_seq22_0_VE250_flipped.json,211513,397691,24,Woman
7,251836,final-intermixed-textured,v2,jsons/MX_seq22_0_VE250_flipped.json,http://54.235.29.9/FacialAge/BNav_EC2/DepthDuration/MX_fS_VE_MTurk/MX_fS_HTML.html#321,321,1536,864,1536,864,0-31-2024,19-12-40,8,VR_target_stimuli/s39_1.3x_1_208.png,250,1.3x,1.0,2,3271,245,meters,jsons/MX_seq22_0_VE250_flipped.json,211513,397691,24,Woman
8,251836,final-intermixed-textured,v2,jsons/MX_seq22_0_VE250_flipped.json,http://54.235.29.9/FacialAge/BNav_EC2/DepthDuration/MX_fS_VE_MTurk/MX_fS_HTML.html#321,321,1536,864,1536,864,0-31-2024,19-12-40,9,VR_target_stimuli/s51_1x_3.64_461_BC.png,250,1x,3.64,3,3300,230,meters,jsons/MX_seq22_0_VE250_flipped.json,211513,397691,24,Woman
9,251836,final-intermixed-textured,v2,jsons/MX_seq22_0_VE250_flipped.json,http://54.235.29.9/FacialAge/BNav_EC2/DepthDuration/MX_fS_VE_MTurk/MX_fS_HTML.html#321,321,1536,864,1536,864,0-31-2024,19-12-40,10,VR_target_stimuli/s43_0.75x_2.2_348_BC.png,250,0.75x,2.2,3,3197,246,meters,jsons/MX_seq22_0_VE250_flipped.json,211513,397691,24,Woman
10,251836,final-intermixed-textured,v2,jsons/MX_seq22_0_VE250_flipped.json,http://54.235.29.9/FacialAge/BNav_EC2/DepthDuration/MX_fS_VE_MTurk/MX_fS_HTML.html#321,321,1536,864,1536,864,0-31-2024,19-12-40,11,VR_target_stimuli/s24_1x_3.3_349.png,250,1x,3.3,1,3551,246,meters,jsons/MX_seq22_0_VE250_flipped.json,211513,397691,24,Woman
11,251836,final-intermixed-textured,v2,jsons/MX_seq22_0_VE250_flipped.json,http://54.235.29.9/FacialAge/BNav_EC2/DepthDuration/MX_fS_VE_MTurk/MX_fS_HTML.html#321,321,1536,864,1536,864,0-31-2024,19-12-40,12,VR_target_stimuli/s10_1.3x_2.7_325_BC.png,250,1.3x,2.7,1,3109,252,meters,jsons/MX_seq22_0_VE250_flipped.json,211513,397691,24,Woman
12,251836,final-intermixed-textured,v2,jsons/MX_seq22_0_VE250_flipped.json,http://54.235.29.9/FacialAge/BNav_EC2/DepthDuration/MX_fS_VE_MTurk/MX_fS_HTML.html#321,321,1536,864,1536,864,0-31-2024,19-12-40,13,VR_target_stimuli/s36_0.75x_4.1_407.png,250,0.75x,4.1,2,3217,238,meters,jsons/MX_seq22_0_VE250_flipped.json,211513,397691,24,Woman
13,251836,final-intermixed-textured,v2,jsons/MX_seq22_0_VE250_flipped.json,http://54.235.29.9/FacialAge/BNav_EC2/DepthDuration/MX_fS_VE_MTurk/MX_fS_HTML.html#321,321,1536,864,1536,864,0-31-2024,19-12-40,14,VR_target_stimuli/s40_1.3x_1.2_332_BC.png,250,1.3x,1.2,2,3899,253,meters,jsons/MX_seq22_0_VE250_flipped.json,211513,397691,24,Woman
14,251836,final-intermixed-textured,v2,jsons/MX_seq22_0_VE250_flipped.json,http://54.235.29.9/FacialAge/BNav_EC2/DepthDuration/MX_fS_VE_MTurk/MX_fS_HTML.html#321,321,1536,864,1536,864,0-31-2024,19-12-40,15,VR_target_stimuli/s41_1x_2.1_286.png,250,1x,2.1,1,3488,252,meters,jsons/MX_seq22_0_VE250_flipped.json,211513,397691,24,Woman
15,251836,final-intermixed-textured,v2,jsons/MX_seq22_0_VE250_flipped.json,http://54.235.29.9/FacialAge/BNav_EC2/DepthDuration/MX_fS_VE_MTurk/MX_fS_HTML.html#321,321,1536,864,1536,864,0-31-2024,19-12-40,16,VR_target_stimuli/s45_0.75x_3.5_362_BC.png,250,0.75x,3.5,1,3099,253,meters,jsons/MX_seq22_0_VE250_flipped.json,211513,397691,24,Woman
16,251836,final-intermixed-textured,v2,jsons/MX_seq22_0_VE250_flipped.json,http://54.235.29.9/FacialAge/BNav_EC2/DepthDuration/MX_fS_VE_MTurk/MX_fS_HTML.html#321,321,1536,864,1536,864,0-31-2024,19-12-40,17,catch_stimuli/c1_BC.png,250,,,0,3231,253,meters,jsons/MX_seq22_0_VE250_flipped.json,211513,397691,24,Woman
17,251836,final-intermixed-textured,v2,jsons/MX_seq22_0_VE250_flipped.json,http://54.235.29.9/FacialAge/BNav_EC2/DepthDuration/MX_fS_VE_MTurk/MX_fS_HTML.html#321,321,1536,864,1536,864,0-31-2024,19-12-40,18,VR_target_stimuli/s23_0.75x_3.65_351.png,250,0.75x,3.65,2,3405,246,meters,jsons/MX_seq22_0_VE250_flipped.json,211513,397691,24,Woman
18,251836,final-intermixed-textured,v2,jsons/MX_seq22_0_VE250_flipped.json,http://54.235.29.9/FacialAge/BNav_EC2/DepthDuration/MX_fS_VE_MTurk/MX_fS_HTML.html#321,321,1536,864,1536,864,0-31-2024,19-12-40,19,VR_target_stimuli/s26_1.3x_4_441.png,250,1.3x,4.0,2,3065,246,meters,jsons/MX_seq22_0_VE250_flipped.json,211513,397691,24,Woman
19,251836,final-intermixed-textured,v2,jsons/MX_seq22_0_VE250_flipped.json,http://54.235.29.9/FacialAge/BNav_EC2/DepthDuration/MX_fS_VE_MTurk/MX_fS_HTML.html#321,321,1536,864,1536,864,0-31-2024,19-12-40,20,VR_target_stimuli/s12_1x_3.1_372_BC.png,250,1x,3.1,2,3583,252,meters,jsons/MX_seq22_0_VE250_flipped.json,211513,397691,24,Woman
20,251836,final-intermixed-textured,v2,jsons/MX_seq22_0_VE250_flipped.json,http://54.235.29.9/FacialAge/BNav_EC2/DepthDuration/MX_fS_VE_MTurk/MX_fS_HTML.html#321,321,1536,864,1536,864,0-31-2024,19-12-40,21,VR_target_stimuli/s30_1.3x_2.3_337.png,250,1.3x,2.3,2,3194,252,meters,jsons/MX_seq22_0_VE250_flipped.json,211513,397691,24,Woman
21,251836,final-intermixed-textured,v2,jsons/MX_seq22_0_VE250_flipped.json,http://54.235.29.9/FacialAge/BNav_EC2/DepthDuration/MX_fS_VE_MTurk/MX_fS_HTML.html#321,321,1536,864,1536,864,0-31-2024,19-12-40,22,VR_target_stimuli/s16_0.75x_1_217.png,250,0.75x,1.0,1,3149,252,meters,jsons/MX_seq22_0_VE250_flipped.json,211513,397691,24,Woman
22,251836,final-intermixed-textured,v2,jsons/MX_seq22_0_VE250_flipped.json,http://54.235.29.9/FacialAge/BNav_EC2/DepthDuration/MX_fS_VE_MTurk/MX_fS_HTML.html#321,321,1536,864,1536,864,0-31-2024,19-12-40,23,VR_target_stimuli/s17_1x_1.8_291_BC.png,250,1x,1.8,2,3334,246,meters,jsons/MX_seq22_0_VE250_flipped.json,211513,397691,24,Woman
23,251836,final-intermixed-textured,v2,jsons/MX_seq22_0_VE250_flipped.json,http://54.235.29.9/FacialAge/BNav_EC2/DepthDuration/MX_fS_VE_MTurk/MX_fS_HTML.html#321,321,1536,864,1536,864,0-31-2024,19-12-40,24,VR_target_stimuli/s5_0.75x_4_375_BC.png,250,0.75x,4.0,1,3148,246,meters,jsons/MX_seq22_0_VE250_flipped.json,211513,397691,24,Woman
24,251836,final-intermixed-textured,v2,jsons/MX_seq22_0_VE250_flipped.json,http://54.235.29.9/FacialAge/BNav_EC2/DepthDuration/MX_fS_VE_MTurk/MX_fS_HTML.html#321,321,1536,864,1536,864,0-31-2024,19-12-40,25,VR_target_stimuli/s37_1.3x_3.3_555_BC.png,250,1.3x,3.3,3,3236,253,meters,jsons/MX_seq22_0_VE250_flipped.json,211513,397691,24,Woman
25,251836,final-intermixed-textured,v2,jsons/MX_seq22_0_VE250_flipped.json,http://54.235.29.9/FacialAge/BNav_EC2/DepthDuration/MX_fS_VE_MTurk/MX_fS_HTML.html#321,321,1536,864,1536,864,0-31-2024,19-12-40,26,catch_stimuli/c2_BC.png,250,,,0,3295,245,meters,jsons/MX_seq22_0_VE250_flipped.json,211513,397691,24,Woman
26,251836,final-intermixed-textured,v2,jsons/MX_seq22_0_VE250_flipped.json,http://54.235.29.9/FacialAge/BNav_EC2/DepthDuration/MX_fS_VE_MTurk/MX_fS_HTML.html#321,321,1536,864,1536,864,0-31-2024,19-12-40,27,VR_target_stimuli/s46_1x_2.42_348.png,250,1x,2.42,1,3278,246,meters,jsons/MX_seq22_0_VE250_flipped.json,211513,397691,24,Woman
27,251836,final-intermixed-textured,v2,jsons/MX_seq22_0_VE250_flipped.json,http://54.235.29.9/FacialAge/BNav_EC2/DepthDuration/MX_fS_VE_MTurk/MX_fS_HTML.html#321,321,1536,864,1536,864,0-31-2024,19-12-40,28,VR_target_stimuli/s22_1x_4.29_354_BC.png,250,1x,4.29,1,3357,250,meters,jsons/MX_seq22_0_VE250_flipped.json,211513,397691,24,Woman
28,251836,final-intermixed-textured,v2,jsons/MX_seq22_0_VE250_flipped.json,http://54.235.29.9/FacialAge/BNav_EC2/DepthDuration/MX_fS_VE_MTurk/MX_fS_HTML.html#321,321,1536,864,1536,864,0-31-2024,19-12-40,29,VR_target_stimuli/s42_0.75x_3.2_301.png,250,0.75x,3.2,1,3354,235,meters,jsons/MX_seq22_0_VE250_flipped.json,211513,397691,24,Woman
29,251836,final-intermixed-textured,v2,jsons/MX_seq22_0_VE250_flipped.json,http://54.235.29.9/FacialAge/BNav_EC2/DepthDuration/MX_fS_VE_MTurk/MX_fS_HTML.html#321,321,1536,864,1536,864,0-31-2024,19-12-40,30,VR_target_stimuli/s25_1.3x_1.4_299_BC.png,250,1.3x,1.4,1,3031,246,meters,jsons/MX_seq22_0_VE250_flipped.json,211513,397691,24,Woman
30,251836,final-intermixed-textured,v2,jsons/MX_seq22_0_VE250_flipped.json,http://54.235.29.9/FacialAge/BNav_EC2/DepthDuration/MX_fS_VE_MTurk/MX_fS_HTML.html#321,321,1536,864,1536,864,0-31-2024,19-12-40,31,VR_target_stimuli/s50_1x_4.53_518.png,250,1x,4.53,2,3055,252,meters,jsons/MX_seq22_0_VE250_flipped.json,211513,397691,24,Woman
31,251836,final-intermixed-textured,v2,jsons/MX_seq22_0_VE250_flipped.json,http://54.235.29.9/FacialAge/BNav_EC2/DepthDuration/MX_fS_VE_MTurk/MX_fS_HTML.html#321,321,1536,864,1536,864,0-31-2024,19-12-40,32,VR_target_stimuli/s53_1.3x_1.6_355.png,250,1.3x,1.6,1,3262,245,meters,jsons/MX_seq22_0_VE250_flipped.json,211513,397691,24,Woman
32,251836,final-intermixed-textured,v2,jsons/MX_seq22_0_VE250_flipped.json,http://54.235.29.9/FacialAge/BNav_EC2/DepthDuration/MX_fS_VE_MTurk/MX_fS_HTML.html#321,321,1536,864,1536,864,0-31-2024,19-12-40,33,VR_target_stimuli/s38_0.75x_3.55_346_BC.png,250,0.75x,3.55,2,3140,253,meters,jsons/MX_seq22_0_VE250_flipped.json,211513,397691,24,Woman
33,251836,final-intermixed-textured,v2,jsons/MX_seq22_0_VE250_flipped.json,http://54.235.29.9/FacialAge/BNav_EC2/DepthDuration/MX_fS_VE_MTurk/MX_fS_HTML.html#321,321,1536,864,1536,864,0-31-2024,19-12-40,34,catch_stimuli/c3_BC.png,250,,,0,2980,247,meters,jsons/MX_seq22_0_VE250_flipped.json,211513,397691,24,Woman
34,251836,final-intermixed-textured,v2,jsons/MX_seq22_0_VE250_flipped.json,http://54.235.29.9/FacialAge/BNav_EC2/DepthDuration/MX_fS_VE_MTurk/MX_fS_HTML.html#321,321,1536,864,1536,864,0-31-2024,19-12-40,35,VR_target_stimuli/s9_1.3x_1.2_276.png,250,1.3x,1.2,1,2975,246,meters,jsons/MX_seq22_0_VE250_flipped.json,211513,397691,24,Woman
35,251836,final-intermixed-textured,v2,jsons/MX_seq22_0_VE250_flipped.json,http://54.235.29.9/FacialAge/BNav_EC2/DepthDuration/MX_fS_VE_MTurk/MX_fS_HTML.html#321,321,1536,864,1536,864,0-31-2024,19-12-40,36,VR_target_stimuli/s44_1x_4.4_317_BC.png,250,1x,4.4,3,3187,246,meters,jsons/MX_seq22_0_VE250_flipped.json,211513,397691,24,Woman
36,251836,final-intermixed-textured,v2,jsons/MX_seq22_0_VE250_flipped.json,http://54.235.29.9/FacialAge/BNav_EC2/DepthDuration/MX_fS_VE_MTurk/MX_fS_HTML.html#321,321,1536,864,1536,864,0-31-2024,19-12-40,37,VR_target_stimuli/s3_0.75x_5_381_BC.png,250,0.75x,5.0,3,3224,231,meters,jsons/MX_seq22_0_VE250_flipped.json,211513,397691,24,Woman
37,251836,final-intermixed-textured,v2,jsons/MX_seq22_0_VE250_flipped.json,http://54.235.29.9/FacialAge/BNav_EC2/DepthDuration/MX_fS_VE_MTurk/MX_fS_HTML.html#321,321,1536,864,1536,864,0-31-2024,19-12-40,38,VR_target_stimuli/s1_0.75x_1.7_265.png,250,0.75x,1.7,1,3418,246,meters,jsons/MX_seq22_0_VE250_flipped.json,211513,397691,24,Woman
38,251836,final-intermixed-textured,v2,jsons/MX_seq22_0_VE250_flipped.json,http://54.235.29.9/FacialAge/BNav_EC2/DepthDuration/MX_fS_VE_MTurk/MX_fS_HTML.html#321,321,1536,864,1536,864,0-31-2024,19-12-40,39,VR_target_stimuli/s11_1.3x_5_363_BC.png,250,1.3x,5.0,3,3058,253,meters,jsons/MX_seq22_0_VE250_flipped.json,211513,397691,24,Woman
39,251836,final-intermixed-textured,v2,jsons/MX_seq22_0_VE250_flipped.json,http://54.235.29.9/FacialAge/BNav_EC2/DepthDuration/MX_fS_VE_MTurk/MX_fS_HTML.html#321,321,1536,864,1536,864,0-31-2024,19-12-40,40,VR_target_stimuli/s2_1x_2.7_390.png,250,1x,2.7,2,3084,246,meters,jsons/MX_seq22_0_VE250_flipped.json,211513,397691,24,Woman
40,251836,final-intermixed-textured,v2,jsons/MX_seq22_0_VE250_flipped.json,http://54.235.29.9/FacialAge/BNav_EC2/DepthDuration/MX_fS_VE_MTurk/MX_fS_HTML.html#321,321,1536,864,1536,864,0-31-2024,19-12-40,41,VR_target_stimuli/s6_1.3x_2.1_298_BC.png,250,1.3x,2.1,2,3156,230,meters,jsons/MX_seq22_0_VE250_flipped.json,211513,397691,24,Woman
41,251836,final-intermixed-textured,v2,jsons/MX_seq22_0_VE250_flipped.json,http://54.235.29.9/FacialAge/BNav_EC2/DepthDuration/MX_fS_VE_MTurk/MX_fS_HTML.html#321,321,1536,864,1536,864,0-31-2024,19-12-40,42,VR_target_stimuli/s0_0.75x_2.6_345_BC.png,250,0.75x,2.6,3,3023,253,meters,jsons/MX_seq22_0_VE250_flipped.json,211513,397691,24,Woman
42,251836,final-intermixed-textured,v2,jsons/MX_seq22_0_VE250_flipped.json,http://54.235.29.9/FacialAge/BNav_EC2/DepthDuration/MX_fS_VE_MTurk/MX_fS_HTML.html#321,321,1536,864,1536,864,0-31-2024,19-12-40,43,VR_target_stimuli/s34_1x_2.8_283_BC.png,250,1x,2.8,3,2324,252,meters,jsons/MX_seq22_0_VE250_flipped.json,211513,397691,24,Woman
43,251836,final-intermixed-textured,v2,jsons/MX_seq22_0_VE250_flipped.json,http://54.235.29.9/FacialAge/BNav_EC2/DepthDuration/MX_fS_VE_MTurk/MX_fS_HTML.html#321,321,1536,864,1536,864,0-31-2024,19-12-40,44,VR_target_stimuli/s13_0.75x_2.4_308.png,250,0.75x,2.4,2,3998,231,meters,jsons/MX_seq22_0_VE250_flipped.json,211513,397691,24,Woman
44,251836,final-intermixed-textured,v2,jsons/MX_seq22_0_VE250_flipped.json,http://54.235.29.9/FacialAge/BNav_EC2/DepthDuration/MX_fS_VE_MTurk/MX_fS_HTML.html#321,321,1536,864,1536,864,0-31-2024,19-12-40,45,catch_stimuli/c4_BC.png,250,,,0,3058,246,meters,jsons/MX_seq22_0_VE250_flipped.json,211513,397691,24,Woman
45,251836,final-intermixed-textured,v2,jsons/MX_seq22_0_VE250_flipped.json,http://54.235.29.9/FacialAge/BNav_EC2/DepthDuration/MX_fS_VE_MTurk/MX_fS_HTML.html#321,321,1536,864,1536,864,0-31-2024,19-12-40,46,VR_target_stimuli/s14_1.3x_3.83_359.png,250,1.3x,3.83,0,2249,240,meters,jsons/MX_seq22_0_VE250_flipped.json,211513,397691,24,Woman
46,251836,final-intermixed-textured,v2,jsons/MX_seq22_0_VE250_flipped.json,http://54.235.29.9/FacialAge/BNav_EC2/DepthDuration/MX_fS_VE_MTurk/MX_fS_HTML.html#321,321,1536,864,1536,864,0-31-2024,19-12-40,47,VR_target_stimuli/s47_1x_3.45_370.png,250,1x,3.45,2,1865,245,meters,jsons/MX_seq22_0_VE250_flipped.json,211513,397691,24,Woman
47,251836,final-intermixed-textured,v2,jsons/MX_seq22_0_VE250_flipped.json,http://54.235.29.9/FacialAge/BNav_EC2/DepthDuration/MX_fS_VE_MTurk/MX_fS_HTML.html#321,321,1536,864,1536,864,0-31-2024,19-12-40,48,VR_target_stimuli/s29_1x_1.3_250.png,250,1x,1.3,1,1846,252,meters,jsons/MX_seq22_0_VE250_flipped.json,211513,397691,24,Woman
48,251836,final-intermixed-textured,v2,jsons/MX_seq22_0_VE250_flipped.json,http://54.235.29.9/FacialAge/BNav_EC2/DepthDuration/MX_fS_VE_MTurk/MX_fS_HTML.html#321,321,1536,864,1536,864,0-31-2024,19-12-40,49,VR_target_stimuli/s28_0.75x_3.2_357_BC.png,250,0.75x,3.2,2,1825,246,meters,jsons/MX_seq22_0_VE250_flipped.json,211513,397691,24,Woman
49,251836,final-intermixed-textured,v2,jsons/MX_seq22_0_VE250_flipped.json,http://54.235.29.9/FacialAge/BNav_EC2/DepthDuration/MX_fS_VE_MTurk/MX_fS_HTML.html#321,321,1536,864,1536,864,0-31-2024,19-12-40,50,VR_target_stimuli/s48_1.3x_2.55_255_BC.png,250,1.3x,2.55,1,1695,248,meters,jsons/MX_seq22_0_VE250_flipped.json,211513,397691,24,Woman
50,251836,final-intermixed-textured,v2,jsons/MX_seq22_0_VE250_flipped.json,http://54.235.29.9/FacialAge/BNav_EC2/DepthDuration/MX_fS_VE_MTurk/MX_fS_HTML.html#321,321,1536,864,1536,864,0-31-2024,19-12-40,51,VR_target_stimuli/s19_0.75x_1.21_257.png,250,0.75x,1.21,1,1638,253,meters,jsons/MX_seq22_0_VE250_flipped.json,211513,397691,24,Woman
51,251836,final-intermixed-textured,v2,jsons/MX_seq22_0_VE250_flipped.json,http://54.235.29.9/FacialAge/BNav_EC2/DepthDuration/MX_fS_VE_MTurk/MX_fS_HTML.html#321,321,1536,864,1536,864,0-31-2024,19-12-40,52,VR_target_stimuli/s21_1x_4.22_379_BC.png,250,1x,4.22,4,2046,230,meters,jsons/MX_seq22_0_VE250_flipped.json,211513,397691,24,Woman
52,251836,final-intermixed-textured,v2,jsons/MX_seq22_0_VE250_flipped.json,http://54.235.29.9/FacialAge/BNav_EC2/DepthDuration/MX_fS_VE_MTurk/MX_fS_HTML.html#321,321,1536,864,1536,864,0-31-2024,19-12-40,53,catch_stimuli/c5_BC.png,250,,,0,2004,252,meters,jsons/MX_seq22_0_VE250_flipped.json,211513,397691,24,Woman
53,251836,final-intermixed-textured,v2,jsons/MX_seq22_0_VE250_flipped.json,http://54.235.29.9/FacialAge/BNav_EC2/DepthDuration/MX_fS_VE_MTurk/MX_fS_HTML.html#321,321,1536,864,1536,864,0-31-2024,19-12-40,54,VR_target_stimuli/s8_1.3x_3.1_345.png,250,1.3x,3.1,2,1753,253,meters,jsons/MX_seq22_0_VE250_flipped.json,211513,397691,24,Woman
54,251836,final-intermixed-textured,v2,jsons/MX_seq22_0_VE250_flipped.json,http://54.235.29.9/FacialAge/BNav_EC2/DepthDuration/MX_fS_VE_MTurk/MX_fS_HTML.html#321,321,1536,864,1536,864,0-31-2024,19-12-40,55,VR_target_stimuli/s27_1x_1.76_248_BC.png,250,1x,1.76,2,1555,250,meters,jsons/MX_seq22_0_VE250_flipped.json,211513,397691,24,Woman
55,251836,final-intermixed-textured,v2,jsons/MX_seq22_0_VE250_flipped.json,http://54.235.29.9/FacialAge/BNav_EC2/DepthDuration/MX_fS_VE_MTurk/MX_fS_HTML.html#321,321,1536,864,1536,864,0-31-2024,19-12-40,56,VR_target_stimuli/s15_0.75x_4.2_388.png,250,0.75x,4.2,4,1738,253,meters,jsons/MX_seq22_0_VE250_flipped.json,211513,397691,24,Woman
56,251836,final-intermixed-textured,v2,jsons/MX_seq22_0_VE250_flipped.json,http://54.235.29.9/FacialAge/BNav_EC2/DepthDuration/MX_fS_VE_MTurk/MX_fS_HTML.html#321,321,1536,864,1536,864,0-31-2024,19-12-40,57,VR_target_stimuli/s4_1.3x_1.4_328.png,250,1.3x,1.4,1,1629,249,meters,jsons/MX_seq22_0_VE250_flipped.json,211513,397691,24,Woman
57,251836,final-intermixed-textured,v2,jsons/MX_seq22_0_VE250_flipped.json,http://54.235.29.9/FacialAge/BNav_EC2/DepthDuration/MX_fS_VE_MTurk/MX_fS_HTML.html#321,321,1536,864,1536,864,0-31-2024,19-12-40,58,VR_target_stimuli/s35_1.3x_2_338_BC.png,250,1.3x,2.0,1,1590,250,meters,jsons/MX_seq22_0_VE250_flipped.json,211513,397691,24,Woman
58,251836,final-intermixed-textured,v2,jsons/MX_seq22_0_VE250_flipped.json,http://54.235.29.9/FacialAge/BNav_EC2/DepthDuration/MX_fS_VE_MTurk/MX_fS_HTML.html#321,321,1536,864,1536,864,0-31-2024,19-12-40,59,VR_target_stimuli/s49_1x_4.67_341.png,250,1x,4.67,2,2313,248,meters,jsons/MX_seq22_0_VE250_flipped.json,211513,397691,24,Woman
59,251836,final-intermixed-textured,v2,jsons/MX_seq22_0_VE250_flipped.json,http://54.235.29.9/FacialAge/BNav_EC2/DepthDuration/MX_fS_VE_MTurk/MX_fS_HTML.html#321,321,1536,864,1536,864,0-31-2024,19-12-40,60,VR_target_stimuli/s7_0.75x_1.5_253_BC.png,250,0.75x,1.5,2,1541,252,meters,jsons/MX_seq22_0_VE250_flipped.json,211513,397691,24,Woman
