,subjID,experimentName,versionName,sequenceName,url,selected_row,windowWidth,windowHeight,screenWidth,screenHeight,startDate,startTime,trial,stimulus,duration,scale,actual_depth,depth_estimate,trial_RT,log_sceneDuration,unitSelection,seq_filepath,experimentTime,totalTime,age,gender
0,255794,final-intermixed-textured,v2,jsons/MX_seq33_2_VE250_flipped.json,http://54.235.29.9/FacialAge/BNav_EC2/DepthDuration/MX_fS_VE_MTurk/MX_fS_HTML.html#296,296,1440,779,1440,900,0-31-2024,19-11-36,1,VR_target_stimuli/s36_1x_4.1_423.png,250,1x,4.1,5.0,5346,253,meters,jsons/MX_seq33_2_VE250_flipped.json,235422,507905,46,Woman
1,255794,final-intermixed-textured,v2,jsons/MX_seq33_2_VE250_flipped.json,http://54.235.29.9/FacialAge/BNav_EC2/DepthDuration/MX_fS_VE_MTurk/MX_fS_HTML.html#296,296,1440,779,1440,900,0-31-2024,19-11-36,2,VR_target_stimuli/s40_1.3x_1.2_332_BC.png,250,1.3x,1.2,0.0,2905,250,meters,jsons/MX_seq33_2_VE250_flipped.json,235422,507905,46,Woman
2,255794,final-intermixed-textured,v2,jsons/MX_seq33_2_VE250_flipped.json,http://54.235.29.9/FacialAge/BNav_EC2/DepthDuration/MX_fS_VE_MTurk/MX_fS_HTML.html#296,296,1440,779,1440,900,0-31-2024,19-11-36,3,VR_target_stimuli/s41_0.75x_2.1_281_BC.png,250,0.75x,2.1,0.0,3320,251,meters,jsons/MX_seq33_2_VE250_flipped.json,235422,507905,46,Woman
3,255794,final-intermixed-textured,v2,jsons/MX_seq33_2_VE250_flipped.json,http://54.235.29.9/FacialAge/BNav_EC2/DepthDuration/MX_fS_VE_MTurk/MX_fS_HTML.html#296,296,1440,779,1440,900,0-31-2024,19-11-36,4,VR_target_stimuli/s45_1.3x_3.5_377.png,250,1.3x,3.5,3.5,5992,252,meters,jsons/MX_seq33_2_VE250_flipped.json,235422,507905,46,Woman
4,255794,final-intermixed-textured,v2,jsons/MX_seq33_2_VE250_flipped.json,http://54.235.29.9/FacialAge/BNav_EC2/DepthDuration/MX_fS_VE_MTurk/MX_fS_HTML.html#296,296,1440,779,1440,900,0-31-2024,19-11-36,5,VR_target_stimuli/s23_1x_3.65_353_BC.png,250,1x,3.65,0.0,2711,246,meters,jsons/MX_seq33_2_VE250_flipped.json,235422,507905,46,Woman
5,255794,final-intermixed-textured,v2,jsons/MX_seq33_2_VE250_flipped.json,http://54.235.29.9/FacialAge/BNav_EC2/DepthDuration/MX_fS_VE_MTurk/MX_fS_HTML.html#296,296,1440,779,1440,900,0-31-2024,19-11-36,6,VR_target_stimuli/s26_0.75x_4_430.png,250,0.75x,4.0,4.0,3418,251,meters,jsons/MX_seq33_2_VE250_flipped.json,235422,507905,46,Woman
6,255794,final-intermixed-textured,v2,jsons/MX_seq33_2_VE250_flipped.json,http://54.235.29.9/FacialAge/BNav_EC2/DepthDuration/MX_fS_VE_MTurk/MX_fS_HTML.html#296,296,1440,779,1440,900,0-31-2024,19-11-36,7,catch_stimuli/c0_BC.png,250,,,0.0,2661,248,meters,jsons/MX_seq33_2_VE250_flipped.json,235422,507905,46,Woman
7,255794,final-intermixed-textured,v2,jsons/MX_seq33_2_VE250_flipped.json,http://54.235.29.9/FacialAge/BNav_EC2/DepthDuration/MX_fS_VE_MTurk/MX_fS_HTML.html#296,296,1440,779,1440,900,0-31-2024,19-11-36,8,VR_target_stimuli/s12_0.75x_3.1_364.png,250,0.75x,3.1,4.5,4561,248,meters,jsons/MX_seq33_2_VE250_flipped.json,235422,507905,46,Woman
8,255794,final-intermixed-textured,v2,jsons/MX_seq33_2_VE250_flipped.json,http://54.235.29.9/FacialAge/BNav_EC2/DepthDuration/MX_fS_VE_MTurk/MX_fS_HTML.html#296,296,1440,779,1440,900,0-31-2024,19-11-36,9,VR_target_stimuli/s30_1.3x_2.3_337.png,250,1.3x,2.3,3.0,3236,253,meters,jsons/MX_seq33_2_VE250_flipped.json,235422,507905,46,Woman
9,255794,final-intermixed-textured,v2,jsons/MX_seq33_2_VE250_flipped.json,http://54.235.29.9/FacialAge/BNav_EC2/DepthDuration/MX_fS_VE_MTurk/MX_fS_HTML.html#296,296,1440,779,1440,900,0-31-2024,19-11-36,10,VR_target_stimuli/s16_1x_1_219_BC.png,250,1x,1.0,2.5,4313,255,meters,jsons/MX_seq33_2_VE250_flipped.json,235422,507905,46,Woman
10,255794,final-intermixed-textured,v2,jsons/MX_seq33_2_VE250_flipped.json,http://54.235.29.9/FacialAge/BNav_EC2/DepthDuration/MX_fS_VE_MTurk/MX_fS_HTML.html#296,296,1440,779,1440,900,0-31-2024,19-11-36,11,VR_target_stimuli/s17_1.3x_1.8_300_BC.png,250,1.3x,1.8,2.5,4309,250,meters,jsons/MX_seq33_2_VE250_flipped.json,235422,507905,46,Woman
11,255794,final-intermixed-textured,v2,jsons/MX_seq33_2_VE250_flipped.json,http://54.235.29.9/FacialAge/BNav_EC2/DepthDuration/MX_fS_VE_MTurk/MX_fS_HTML.html#296,296,1440,779,1440,900,0-31-2024,19-11-36,12,VR_target_stimuli/s5_0.75x_4_375_BC.png,250,0.75x,4.0,3.5,5990,253,meters,jsons/MX_seq33_2_VE250_flipped.json,235422,507905,46,Woman
12,255794,final-intermixed-textured,v2,jsons/MX_seq33_2_VE250_flipped.json,http://54.235.29.9/FacialAge/BNav_EC2/DepthDuration/MX_fS_VE_MTurk/MX_fS_HTML.html#296,296,1440,779,1440,900,0-31-2024,19-11-36,13,VR_target_stimuli/s37_1x_3.3_563.png,250,1x,3.3,3.0,3139,253,meters,jsons/MX_seq33_2_VE250_flipped.json,235422,507905,46,Woman
13,255794,final-intermixed-textured,v2,jsons/MX_seq33_2_VE250_flipped.json,http://54.235.29.9/FacialAge/BNav_EC2/DepthDuration/MX_fS_VE_MTurk/MX_fS_HTML.html#296,296,1440,779,1440,900,0-31-2024,19-11-36,14,VR_target_stimuli/s46_0.75x_2.42_343.png,250,0.75x,2.42,0.0,2607,255,meters,jsons/MX_seq33_2_VE250_flipped.json,235422,507905,46,Woman
14,255794,final-intermixed-textured,v2,jsons/MX_seq33_2_VE250_flipped.json,http://54.235.29.9/FacialAge/BNav_EC2/DepthDuration/MX_fS_VE_MTurk/MX_fS_HTML.html#296,296,1440,779,1440,900,0-31-2024,19-11-36,15,VR_target_stimuli/s22_1.3x_4.29_364_BC.png,250,1.3x,4.29,4.0,2633,250,meters,jsons/MX_seq33_2_VE250_flipped.json,235422,507905,46,Woman
15,255794,final-intermixed-textured,v2,jsons/MX_seq33_2_VE250_flipped.json,http://54.235.29.9/FacialAge/BNav_EC2/DepthDuration/MX_fS_VE_MTurk/MX_fS_HTML.html#296,296,1440,779,1440,900,0-31-2024,19-11-36,16,VR_target_stimuli/s42_1x_3.2_303.png,250,1x,3.2,0.0,3181,254,meters,jsons/MX_seq33_2_VE250_flipped.json,235422,507905,46,Woman
16,255794,final-intermixed-textured,v2,jsons/MX_seq33_2_VE250_flipped.json,http://54.235.29.9/FacialAge/BNav_EC2/DepthDuration/MX_fS_VE_MTurk/MX_fS_HTML.html#296,296,1440,779,1440,900,0-31-2024,19-11-36,17,catch_stimuli/c1_BC.png,250,,,0.0,3416,251,meters,jsons/MX_seq33_2_VE250_flipped.json,235422,507905,46,Woman
17,255794,final-intermixed-textured,v2,jsons/MX_seq33_2_VE250_flipped.json,http://54.235.29.9/FacialAge/BNav_EC2/DepthDuration/MX_fS_VE_MTurk/MX_fS_HTML.html#296,296,1440,779,1440,900,0-31-2024,19-11-36,18,VR_target_stimuli/s25_1x_1.4_290_BC.png,250,1x,1.4,0.0,3021,253,meters,jsons/MX_seq33_2_VE250_flipped.json,235422,507905,46,Woman
18,255794,final-intermixed-textured,v2,jsons/MX_seq33_2_VE250_flipped.json,http://54.235.29.9/FacialAge/BNav_EC2/DepthDuration/MX_fS_VE_MTurk/MX_fS_HTML.html#296,296,1440,779,1440,900,0-31-2024,19-11-36,19,VR_target_stimuli/s50_0.75x_4.53_517_BC.png,250,0.75x,4.53,2.5,9387,248,meters,jsons/MX_seq33_2_VE250_flipped.json,235422,507905,46,Woman
19,255794,final-intermixed-textured,v2,jsons/MX_seq33_2_VE250_flipped.json,http://54.235.29.9/FacialAge/BNav_EC2/DepthDuration/MX_fS_VE_MTurk/MX_fS_HTML.html#296,296,1440,779,1440,900,0-31-2024,19-11-36,20,VR_target_stimuli/s53_1.3x_1.6_355.png,250,1.3x,1.6,0.0,3864,252,meters,jsons/MX_seq33_2_VE250_flipped.json,235422,507905,46,Woman
20,255794,final-intermixed-textured,v2,jsons/MX_seq33_2_VE250_flipped.json,http://54.235.29.9/FacialAge/BNav_EC2/DepthDuration/MX_fS_VE_MTurk/MX_fS_HTML.html#296,296,1440,779,1440,900,0-31-2024,19-11-36,21,VR_target_stimuli/s38_0.75x_3.55_346.png,250,0.75x,3.55,3.0,3300,252,meters,jsons/MX_seq33_2_VE250_flipped.json,235422,507905,46,Woman
21,255794,final-intermixed-textured,v2,jsons/MX_seq33_2_VE250_flipped.json,http://54.235.29.9/FacialAge/BNav_EC2/DepthDuration/MX_fS_VE_MTurk/MX_fS_HTML.html#296,296,1440,779,1440,900,0-31-2024,19-11-36,22,VR_target_stimuli/s9_1x_1.2_263_BC.png,250,1x,1.2,0.0,2929,248,meters,jsons/MX_seq33_2_VE250_flipped.json,235422,507905,46,Woman
22,255794,final-intermixed-textured,v2,jsons/MX_seq33_2_VE250_flipped.json,http://54.235.29.9/FacialAge/BNav_EC2/DepthDuration/MX_fS_VE_MTurk/MX_fS_HTML.html#296,296,1440,779,1440,900,0-31-2024,19-11-36,23,VR_target_stimuli/s44_1.3x_4.4_325_BC.png,250,1.3x,4.4,3.0,3215,252,meters,jsons/MX_seq33_2_VE250_flipped.json,235422,507905,46,Woman
23,255794,final-intermixed-textured,v2,jsons/MX_seq33_2_VE250_flipped.json,http://54.235.29.9/FacialAge/BNav_EC2/DepthDuration/MX_fS_VE_MTurk/MX_fS_HTML.html#296,296,1440,779,1440,900,0-31-2024,19-11-36,24,VR_target_stimuli/s3_1x_5_385.png,250,1x,5.0,4.5,4696,250,meters,jsons/MX_seq33_2_VE250_flipped.json,235422,507905,46,Woman
24,255794,final-intermixed-textured,v2,jsons/MX_seq33_2_VE250_flipped.json,http://54.235.29.9/FacialAge/BNav_EC2/DepthDuration/MX_fS_VE_MTurk/MX_fS_HTML.html#296,296,1440,779,1440,900,0-31-2024,19-11-36,25,VR_target_stimuli/s1_0.75x_1.7_265_BC.png,250,0.75x,1.7,2.5,3959,247,meters,jsons/MX_seq33_2_VE250_flipped.json,235422,507905,46,Woman
25,255794,final-intermixed-textured,v2,jsons/MX_seq33_2_VE250_flipped.json,http://54.235.29.9/FacialAge/BNav_EC2/DepthDuration/MX_fS_VE_MTurk/MX_fS_HTML.html#296,296,1440,779,1440,900,0-31-2024,19-11-36,26,catch_stimuli/c2_BC.png,250,,,0.0,2667,252,meters,jsons/MX_seq33_2_VE250_flipped.json,235422,507905,46,Woman
26,255794,final-intermixed-textured,v2,jsons/MX_seq33_2_VE250_flipped.json,http://54.235.29.9/FacialAge/BNav_EC2/DepthDuration/MX_fS_VE_MTurk/MX_fS_HTML.html#296,296,1440,779,1440,900,0-31-2024,19-11-36,27,VR_target_stimuli/s11_1.3x_5_363.png,250,1.3x,5.0,0.0,3132,252,meters,jsons/MX_seq33_2_VE250_flipped.json,235422,507905,46,Woman
27,255794,final-intermixed-textured,v2,jsons/MX_seq33_2_VE250_flipped.json,http://54.235.29.9/FacialAge/BNav_EC2/DepthDuration/MX_fS_VE_MTurk/MX_fS_HTML.html#296,296,1440,779,1440,900,0-31-2024,19-11-36,28,VR_target_stimuli/s2_1.3x_2.7_397_BC.png,250,1.3x,2.7,3.0,3400,249,meters,jsons/MX_seq33_2_VE250_flipped.json,235422,507905,46,Woman
28,255794,final-intermixed-textured,v2,jsons/MX_seq33_2_VE250_flipped.json,http://54.235.29.9/FacialAge/BNav_EC2/DepthDuration/MX_fS_VE_MTurk/MX_fS_HTML.html#296,296,1440,779,1440,900,0-31-2024,19-11-36,29,VR_target_stimuli/s6_1x_2.1_293.png,250,1x,2.1,0.0,2750,253,meters,jsons/MX_seq33_2_VE250_flipped.json,235422,507905,46,Woman
29,255794,final-intermixed-textured,v2,jsons/MX_seq33_2_VE250_flipped.json,http://54.235.29.9/FacialAge/BNav_EC2/DepthDuration/MX_fS_VE_MTurk/MX_fS_HTML.html#296,296,1440,779,1440,900,0-31-2024,19-11-36,30,VR_target_stimuli/s0_0.75x_2.6_345.png,250,0.75x,2.6,0.0,2535,250,meters,jsons/MX_seq33_2_VE250_flipped.json,235422,507905,46,Woman
30,255794,final-intermixed-textured,v2,jsons/MX_seq33_2_VE250_flipped.json,http://54.235.29.9/FacialAge/BNav_EC2/DepthDuration/MX_fS_VE_MTurk/MX_fS_HTML.html#296,296,1440,779,1440,900,0-31-2024,19-11-36,31,VR_target_stimuli/s34_1.3x_2.8_294.png,250,1.3x,2.8,4.0,3681,247,meters,jsons/MX_seq33_2_VE250_flipped.json,235422,507905,46,Woman
31,255794,final-intermixed-textured,v2,jsons/MX_seq33_2_VE250_flipped.json,http://54.235.29.9/FacialAge/BNav_EC2/DepthDuration/MX_fS_VE_MTurk/MX_fS_HTML.html#296,296,1440,779,1440,900,0-31-2024,19-11-36,32,VR_target_stimuli/s13_0.75x_2.4_308_BC.png,250,0.75x,2.4,2.0,4219,249,meters,jsons/MX_seq33_2_VE250_flipped.json,235422,507905,46,Woman
32,255794,final-intermixed-textured,v2,jsons/MX_seq33_2_VE250_flipped.json,http://54.235.29.9/FacialAge/BNav_EC2/DepthDuration/MX_fS_VE_MTurk/MX_fS_HTML.html#296,296,1440,779,1440,900,0-31-2024,19-11-36,33,VR_target_stimuli/s14_1x_ 3.83_357_BC.png,250,1x,3.83,0.0,2423,251,meters,jsons/MX_seq33_2_VE250_flipped.json,235422,507905,46,Woman
33,255794,final-intermixed-textured,v2,jsons/MX_seq33_2_VE250_flipped.json,http://54.235.29.9/FacialAge/BNav_EC2/DepthDuration/MX_fS_VE_MTurk/MX_fS_HTML.html#296,296,1440,779,1440,900,0-31-2024,19-11-36,34,catch_stimuli/c3_BC.png,250,,,0.0,2495,250,meters,jsons/MX_seq33_2_VE250_flipped.json,235422,507905,46,Woman
34,255794,final-intermixed-textured,v2,jsons/MX_seq33_2_VE250_flipped.json,http://54.235.29.9/FacialAge/BNav_EC2/DepthDuration/MX_fS_VE_MTurk/MX_fS_HTML.html#296,296,1440,779,1440,900,0-31-2024,19-11-36,35,VR_target_stimuli/s47_0.75x_3.45_366.png,250,0.75x,3.45,3.0,2989,252,meters,jsons/MX_seq33_2_VE250_flipped.json,235422,507905,46,Woman
35,255794,final-intermixed-textured,v2,jsons/MX_seq33_2_VE250_flipped.json,http://54.235.29.9/FacialAge/BNav_EC2/DepthDuration/MX_fS_VE_MTurk/MX_fS_HTML.html#296,296,1440,779,1440,900,0-31-2024,19-11-36,36,VR_target_stimuli/s29_1.3x_1.3_253_BC.png,250,1.3x,1.3,2.0,2614,247,meters,jsons/MX_seq33_2_VE250_flipped.json,235422,507905,46,Woman
36,255794,final-intermixed-textured,v2,jsons/MX_seq33_2_VE250_flipped.json,http://54.235.29.9/FacialAge/BNav_EC2/DepthDuration/MX_fS_VE_MTurk/MX_fS_HTML.html#296,296,1440,779,1440,900,0-31-2024,19-11-36,37,VR_target_stimuli/s28_1x_3.2_362_BC.png,250,1x,3.2,0.0,2831,246,meters,jsons/MX_seq33_2_VE250_flipped.json,235422,507905,46,Woman
37,255794,final-intermixed-textured,v2,jsons/MX_seq33_2_VE250_flipped.json,http://54.235.29.9/FacialAge/BNav_EC2/DepthDuration/MX_fS_VE_MTurk/MX_fS_HTML.html#296,296,1440,779,1440,900,0-31-2024,19-11-36,38,VR_target_stimuli/s48_1x_2.55_256.png,250,1x,2.55,0.0,2334,248,meters,jsons/MX_seq33_2_VE250_flipped.json,235422,507905,46,Woman
38,255794,final-intermixed-textured,v2,jsons/MX_seq33_2_VE250_flipped.json,http://54.235.29.9/FacialAge/BNav_EC2/DepthDuration/MX_fS_VE_MTurk/MX_fS_HTML.html#296,296,1440,779,1440,900,0-31-2024,19-11-36,39,VR_target_stimuli/s19_0.75x_1.21_257_BC.png,250,0.75x,1.21,0.0,3254,249,meters,jsons/MX_seq33_2_VE250_flipped.json,235422,507905,46,Woman
39,255794,final-intermixed-textured,v2,jsons/MX_seq33_2_VE250_flipped.json,http://54.235.29.9/FacialAge/BNav_EC2/DepthDuration/MX_fS_VE_MTurk/MX_fS_HTML.html#296,296,1440,779,1440,900,0-31-2024,19-11-36,40,VR_target_stimuli/s21_1.3x_4.22_384.png,250,1.3x,4.22,0.0,2486,249,meters,jsons/MX_seq33_2_VE250_flipped.json,235422,507905,46,Woman
40,255794,final-intermixed-textured,v2,jsons/MX_seq33_2_VE250_flipped.json,http://54.235.29.9/FacialAge/BNav_EC2/DepthDuration/MX_fS_VE_MTurk/MX_fS_HTML.html#296,296,1440,779,1440,900,0-31-2024,19-11-36,41,VR_target_stimuli/s8_0.75x_3.1_325_BC.png,250,0.75x,3.1,3.0,2849,253,meters,jsons/MX_seq33_2_VE250_flipped.json,235422,507905,46,Woman
41,255794,final-intermixed-textured,v2,jsons/MX_seq33_2_VE250_flipped.json,http://54.235.29.9/FacialAge/BNav_EC2/DepthDuration/MX_fS_VE_MTurk/MX_fS_HTML.html#296,296,1440,779,1440,900,0-31-2024,19-11-36,42,VR_target_stimuli/s27_1x_1.76_248.png,250,1x,1.76,0.0,2471,255,meters,jsons/MX_seq33_2_VE250_flipped.json,235422,507905,46,Woman
42,255794,final-intermixed-textured,v2,jsons/MX_seq33_2_VE250_flipped.json,http://54.235.29.9/FacialAge/BNav_EC2/DepthDuration/MX_fS_VE_MTurk/MX_fS_HTML.html#296,296,1440,779,1440,900,0-31-2024,19-11-36,43,VR_target_stimuli/s15_1.3x_4.2_389_BC.png,250,1.3x,4.2,0.0,2524,255,meters,jsons/MX_seq33_2_VE250_flipped.json,235422,507905,46,Woman
43,255794,final-intermixed-textured,v2,jsons/MX_seq33_2_VE250_flipped.json,http://54.235.29.9/FacialAge/BNav_EC2/DepthDuration/MX_fS_VE_MTurk/MX_fS_HTML.html#296,296,1440,779,1440,900,0-31-2024,19-11-36,44,VR_target_stimuli/s4_1x_1.4_313_BC.png,250,1x,1.4,0.0,2863,251,meters,jsons/MX_seq33_2_VE250_flipped.json,235422,507905,46,Woman
44,255794,final-intermixed-textured,v2,jsons/MX_seq33_2_VE250_flipped.json,http://54.235.29.9/FacialAge/BNav_EC2/DepthDuration/MX_fS_VE_MTurk/MX_fS_HTML.html#296,296,1440,779,1440,900,0-31-2024,19-11-36,45,catch_stimuli/c4_BC.png,250,,,0.0,2380,246,meters,jsons/MX_seq33_2_VE250_flipped.json,235422,507905,46,Woman
45,255794,final-intermixed-textured,v2,jsons/MX_seq33_2_VE250_flipped.json,http://54.235.29.9/FacialAge/BNav_EC2/DepthDuration/MX_fS_VE_MTurk/MX_fS_HTML.html#296,296,1440,779,1440,900,0-31-2024,19-11-36,46,VR_target_stimuli/s35_0.75x_2_323.png,250,0.75x,2.0,2.5,4321,250,meters,jsons/MX_seq33_2_VE250_flipped.json,235422,507905,46,Woman
46,255794,final-intermixed-textured,v2,jsons/MX_seq33_2_VE250_flipped.json,http://54.235.29.9/FacialAge/BNav_EC2/DepthDuration/MX_fS_VE_MTurk/MX_fS_HTML.html#296,296,1440,779,1440,900,0-31-2024,19-11-36,47,VR_target_stimuli/s49_1.3x_4.67_354.png,250,1.3x,4.67,0.0,2471,252,meters,jsons/MX_seq33_2_VE250_flipped.json,235422,507905,46,Woman
47,255794,final-intermixed-textured,v2,jsons/MX_seq33_2_VE250_flipped.json,http://54.235.29.9/FacialAge/BNav_EC2/DepthDuration/MX_fS_VE_MTurk/MX_fS_HTML.html#296,296,1440,779,1440,900,0-31-2024,19-11-36,48,VR_target_stimuli/s7_1.3x_1.5_256_BC.png,250,1.3x,1.5,3.0,2859,254,meters,jsons/MX_seq33_2_VE250_flipped.json,235422,507905,46,Woman
48,255794,final-intermixed-textured,v2,jsons/MX_seq33_2_VE250_flipped.json,http://54.235.29.9/FacialAge/BNav_EC2/DepthDuration/MX_fS_VE_MTurk/MX_fS_HTML.html#296,296,1440,779,1440,900,0-31-2024,19-11-36,49,VR_target_stimuli/s20_1x_4.99_398.png,250,1x,4.99,4.5,4734,251,meters,jsons/MX_seq33_2_VE250_flipped.json,235422,507905,46,Woman
49,255794,final-intermixed-textured,v2,jsons/MX_seq33_2_VE250_flipped.json,http://54.235.29.9/FacialAge/BNav_EC2/DepthDuration/MX_fS_VE_MTurk/MX_fS_HTML.html#296,296,1440,779,1440,900,0-31-2024,19-11-36,50,VR_target_stimuli/s31_0.75x_4.96_329_BC.png,250,0.75x,4.96,6.0,3098,246,meters,jsons/MX_seq33_2_VE250_flipped.json,235422,507905,46,Woman
50,255794,final-intermixed-textured,v2,jsons/MX_seq33_2_VE250_flipped.json,http://54.235.29.9/FacialAge/BNav_EC2/DepthDuration/MX_fS_VE_MTurk/MX_fS_HTML.html#296,296,1440,779,1440,900,0-31-2024,19-11-36,51,VR_target_stimuli/s33_1x_3.1_366_BC.png,250,1x,3.1,0.0,2669,249,meters,jsons/MX_seq33_2_VE250_flipped.json,235422,507905,46,Woman
51,255794,final-intermixed-textured,v2,jsons/MX_seq33_2_VE250_flipped.json,http://54.235.29.9/FacialAge/BNav_EC2/DepthDuration/MX_fS_VE_MTurk/MX_fS_HTML.html#296,296,1440,779,1440,900,0-31-2024,19-11-36,52,VR_target_stimuli/s52_1.3x_3.2_280.png,250,1.3x,3.2,6.0,3234,252,meters,jsons/MX_seq33_2_VE250_flipped.json,235422,507905,46,Woman
52,255794,final-intermixed-textured,v2,jsons/MX_seq33_2_VE250_flipped.json,http://54.235.29.9/FacialAge/BNav_EC2/DepthDuration/MX_fS_VE_MTurk/MX_fS_HTML.html#296,296,1440,779,1440,900,0-31-2024,19-11-36,53,catch_stimuli/c5_BC.png,250,,,0.0,3013,255,meters,jsons/MX_seq33_2_VE250_flipped.json,235422,507905,46,Woman
53,255794,final-intermixed-textured,v2,jsons/MX_seq33_2_VE250_flipped.json,http://54.235.29.9/FacialAge/BNav_EC2/DepthDuration/MX_fS_VE_MTurk/MX_fS_HTML.html#296,296,1440,779,1440,900,0-31-2024,19-11-36,54,VR_target_stimuli/s32_0.75x_1.5_213.png,250,0.75x,1.5,0.0,2415,253,meters,jsons/MX_seq33_2_VE250_flipped.json,235422,507905,46,Woman
54,255794,final-intermixed-textured,v2,jsons/MX_seq33_2_VE250_flipped.json,http://54.235.29.9/FacialAge/BNav_EC2/DepthDuration/MX_fS_VE_MTurk/MX_fS_HTML.html#296,296,1440,779,1440,900,0-31-2024,19-11-36,55,VR_target_stimuli/s18_1.3x_2.25_368.png,250,1.3x,2.25,2.0,4078,248,meters,jsons/MX_seq33_2_VE250_flipped.json,235422,507905,46,Woman
55,255794,final-intermixed-textured,v2,jsons/MX_seq33_2_VE250_flipped.json,http://54.235.29.9/FacialAge/BNav_EC2/DepthDuration/MX_fS_VE_MTurk/MX_fS_HTML.html#296,296,1440,779,1440,900,0-31-2024,19-11-36,56,VR_target_stimuli/s39_1x_1_207.png,250,1x,1.0,0.0,2554,254,meters,jsons/MX_seq33_2_VE250_flipped.json,235422,507905,46,Woman
56,255794,final-intermixed-textured,v2,jsons/MX_seq33_2_VE250_flipped.json,http://54.235.29.9/FacialAge/BNav_EC2/DepthDuration/MX_fS_VE_MTurk/MX_fS_HTML.html#296,296,1440,779,1440,900,0-31-2024,19-11-36,57,VR_target_stimuli/s51_0.75x_3.64_460.png,250,0.75x,3.64,2.5,4619,253,meters,jsons/MX_seq33_2_VE250_flipped.json,235422,507905,46,Woman
57,255794,final-intermixed-textured,v2,jsons/MX_seq33_2_VE250_flipped.json,http://54.235.29.9/FacialAge/BNav_EC2/DepthDuration/MX_fS_VE_MTurk/MX_fS_HTML.html#296,296,1440,779,1440,900,0-31-2024,19-11-36,58,VR_target_stimuli/s43_0.75x_2.2_348_BC.png,250,0.75x,2.2,3.0,4158,249,meters,jsons/MX_seq33_2_VE250_flipped.json,235422,507905,46,Woman
58,255794,final-intermixed-textured,v2,jsons/MX_seq33_2_VE250_flipped.json,http://54.235.29.9/FacialAge/BNav_EC2/DepthDuration/MX_fS_VE_MTurk/MX_fS_HTML.html#296,296,1440,779,1440,900,0-31-2024,19-11-36,59,VR_target_stimuli/s24_1.3x_3.3_352_BC.png,250,1.3x,3.3,0.0,2920,250,meters,jsons/MX_seq33_2_VE250_flipped.json,235422,507905,46,Woman
59,255794,final-intermixed-textured,v2,jsons/MX_seq33_2_VE250_flipped.json,http://54.235.29.9/FacialAge/BNav_EC2/DepthDuration/MX_fS_VE_MTurk/MX_fS_HTML.html#296,296,1440,779,1440,900,0-31-2024,19-11-36,60,VR_target_stimuli/s10_1x_2.7_324_BC.png,250,1x,2.7,3.0,3064,253,meters,jsons/MX_seq33_2_VE250_flipped.json,235422,507905,46,Woman
