,subjID,experimentName,versionName,sequenceName,url,selected_row,windowWidth,windowHeight,screenWidth,screenHeight,startDate,startTime,trial,stimulus,duration,scale,actual_depth,depth_estimate,trial_RT,log_sceneDuration,unitSelection,seq_filepath,experimentTime,totalTime,age,gender
0,271654,final-intermixed-textured,v2,jsons/MX_seq45_1_VE250_flipped.json,http://54.235.29.9/FacialAge/BNav_EC2/DepthDuration/MX_fS_VE_MTurk/MX_fS_HTML.html#257,257,1920,1000,1920,1080,1-1-2024,14-58-50,1,VR_target_stimuli/s46_1.3x_2.42_354.png,250,1.3x,2.42,3,6213,249,meters,jsons/MX_seq45_1_VE250_flipped.json,162922,311317,31,Woman
1,271654,final-intermixed-textured,v2,jsons/MX_seq45_1_VE250_flipped.json,http://54.235.29.9/FacialAge/BNav_EC2/DepthDuration/MX_fS_VE_MTurk/MX_fS_HTML.html#257,257,1920,1000,1920,1080,1-1-2024,14-58-50,2,VR_target_stimuli/s22_0.75x_4.29_348_BC.png,250,0.75x,4.29,4,3334,249,meters,jsons/MX_seq45_1_VE250_flipped.json,162922,311317,31,Woman
2,271654,final-intermixed-textured,v2,jsons/MX_seq45_1_VE250_flipped.json,http://54.235.29.9/FacialAge/BNav_EC2/DepthDuration/MX_fS_VE_MTurk/MX_fS_HTML.html#257,257,1920,1000,1920,1080,1-1-2024,14-58-50,3,VR_target_stimuli/s42_1x_3.2_303.png,250,1x,3.2,3,2680,250,meters,jsons/MX_seq45_1_VE250_flipped.json,162922,311317,31,Woman
3,271654,final-intermixed-textured,v2,jsons/MX_seq45_1_VE250_flipped.json,http://54.235.29.9/FacialAge/BNav_EC2/DepthDuration/MX_fS_VE_MTurk/MX_fS_HTML.html#257,257,1920,1000,1920,1080,1-1-2024,14-58-50,4,VR_target_stimuli/s25_0.75x_1.4_281.png,250,0.75x,1.4,2,2962,249,meters,jsons/MX_seq45_1_VE250_flipped.json,162922,311317,31,Woman
4,271654,final-intermixed-textured,v2,jsons/MX_seq45_1_VE250_flipped.json,http://54.235.29.9/FacialAge/BNav_EC2/DepthDuration/MX_fS_VE_MTurk/MX_fS_HTML.html#257,257,1920,1000,1920,1080,1-1-2024,14-58-50,5,VR_target_stimuli/s50_1.3x_4.53_518_BC.png,250,1.3x,4.53,3,3609,250,meters,jsons/MX_seq45_1_VE250_flipped.json,162922,311317,31,Woman
5,271654,final-intermixed-textured,v2,jsons/MX_seq45_1_VE250_flipped.json,http://54.235.29.9/FacialAge/BNav_EC2/DepthDuration/MX_fS_VE_MTurk/MX_fS_HTML.html#257,257,1920,1000,1920,1080,1-1-2024,14-58-50,6,VR_target_stimuli/s53_1x_1.6_387_BC.png,250,1x,1.6,1,2294,250,meters,jsons/MX_seq45_1_VE250_flipped.json,162922,311317,31,Woman
6,271654,final-intermixed-textured,v2,jsons/MX_seq45_1_VE250_flipped.json,http://54.235.29.9/FacialAge/BNav_EC2/DepthDuration/MX_fS_VE_MTurk/MX_fS_HTML.html#257,257,1920,1000,1920,1080,1-1-2024,14-58-50,7,catch_stimuli/c0_BC.png,250,,,0,2094,250,meters,jsons/MX_seq45_1_VE250_flipped.json,162922,311317,31,Woman
7,271654,final-intermixed-textured,v2,jsons/MX_seq45_1_VE250_flipped.json,http://54.235.29.9/FacialAge/BNav_EC2/DepthDuration/MX_fS_VE_MTurk/MX_fS_HTML.html#257,257,1920,1000,1920,1080,1-1-2024,14-58-50,8,VR_target_stimuli/s38_1x_3.55_353_BC.png,250,1x,3.55,3,2397,249,meters,jsons/MX_seq45_1_VE250_flipped.json,162922,311317,31,Woman
8,271654,final-intermixed-textured,v2,jsons/MX_seq45_1_VE250_flipped.json,http://54.235.29.9/FacialAge/BNav_EC2/DepthDuration/MX_fS_VE_MTurk/MX_fS_HTML.html#257,257,1920,1000,1920,1080,1-1-2024,14-58-50,9,VR_target_stimuli/s9_0.75x_1.2_260.png,250,0.75x,1.2,1,3161,249,meters,jsons/MX_seq45_1_VE250_flipped.json,162922,311317,31,Woman
9,271654,final-intermixed-textured,v2,jsons/MX_seq45_1_VE250_flipped.json,http://54.235.29.9/FacialAge/BNav_EC2/DepthDuration/MX_fS_VE_MTurk/MX_fS_HTML.html#257,257,1920,1000,1920,1080,1-1-2024,14-58-50,10,VR_target_stimuli/s44_1.3x_4.4_325_BC.png,250,1.3x,4.4,2,2776,250,meters,jsons/MX_seq45_1_VE250_flipped.json,162922,311317,31,Woman
10,271654,final-intermixed-textured,v2,jsons/MX_seq45_1_VE250_flipped.json,http://54.235.29.9/FacialAge/BNav_EC2/DepthDuration/MX_fS_VE_MTurk/MX_fS_HTML.html#257,257,1920,1000,1920,1080,1-1-2024,14-58-50,11,VR_target_stimuli/s3_0.75x_5_381_BC.png,250,0.75x,5.0,5,2396,250,meters,jsons/MX_seq45_1_VE250_flipped.json,162922,311317,31,Woman
11,271654,final-intermixed-textured,v2,jsons/MX_seq45_1_VE250_flipped.json,http://54.235.29.9/FacialAge/BNav_EC2/DepthDuration/MX_fS_VE_MTurk/MX_fS_HTML.html#257,257,1920,1000,1920,1080,1-1-2024,14-58-50,12,VR_target_stimuli/s1_1x_1.7_262.png,250,1x,1.7,2,2546,250,meters,jsons/MX_seq45_1_VE250_flipped.json,162922,311317,31,Woman
12,271654,final-intermixed-textured,v2,jsons/MX_seq45_1_VE250_flipped.json,http://54.235.29.9/FacialAge/BNav_EC2/DepthDuration/MX_fS_VE_MTurk/MX_fS_HTML.html#257,257,1920,1000,1920,1080,1-1-2024,14-58-50,13,VR_target_stimuli/s11_1.3x_5_363.png,250,1.3x,5.0,3,2210,249,meters,jsons/MX_seq45_1_VE250_flipped.json,162922,311317,31,Woman
13,271654,final-intermixed-textured,v2,jsons/MX_seq45_1_VE250_flipped.json,http://54.235.29.9/FacialAge/BNav_EC2/DepthDuration/MX_fS_VE_MTurk/MX_fS_HTML.html#257,257,1920,1000,1920,1080,1-1-2024,14-58-50,14,VR_target_stimuli/s2_1x_2.7_390.png,250,1x,2.7,2,2393,250,meters,jsons/MX_seq45_1_VE250_flipped.json,162922,311317,31,Woman
14,271654,final-intermixed-textured,v2,jsons/MX_seq45_1_VE250_flipped.json,http://54.235.29.9/FacialAge/BNav_EC2/DepthDuration/MX_fS_VE_MTurk/MX_fS_HTML.html#257,257,1920,1000,1920,1080,1-1-2024,14-58-50,15,VR_target_stimuli/s6_0.75x_2.1_290_BC.png,250,0.75x,2.1,2,2249,249,meters,jsons/MX_seq45_1_VE250_flipped.json,162922,311317,31,Woman
15,271654,final-intermixed-textured,v2,jsons/MX_seq45_1_VE250_flipped.json,http://54.235.29.9/FacialAge/BNav_EC2/DepthDuration/MX_fS_VE_MTurk/MX_fS_HTML.html#257,257,1920,1000,1920,1080,1-1-2024,14-58-50,16,VR_target_stimuli/s0_1.3x_2.6_356_BC.png,250,1.3x,2.6,2,2303,250,meters,jsons/MX_seq45_1_VE250_flipped.json,162922,311317,31,Woman
16,271654,final-intermixed-textured,v2,jsons/MX_seq45_1_VE250_flipped.json,http://54.235.29.9/FacialAge/BNav_EC2/DepthDuration/MX_fS_VE_MTurk/MX_fS_HTML.html#257,257,1920,1000,1920,1080,1-1-2024,14-58-50,17,catch_stimuli/c1_BC.png,250,,,0,1770,251,meters,jsons/MX_seq45_1_VE250_flipped.json,162922,311317,31,Woman
17,271654,final-intermixed-textured,v2,jsons/MX_seq45_1_VE250_flipped.json,http://54.235.29.9/FacialAge/BNav_EC2/DepthDuration/MX_fS_VE_MTurk/MX_fS_HTML.html#257,257,1920,1000,1920,1080,1-1-2024,14-58-50,18,VR_target_stimuli/s34_1.3x_2.8_294.png,250,1.3x,2.8,3,2021,249,meters,jsons/MX_seq45_1_VE250_flipped.json,162922,311317,31,Woman
18,271654,final-intermixed-textured,v2,jsons/MX_seq45_1_VE250_flipped.json,http://54.235.29.9/FacialAge/BNav_EC2/DepthDuration/MX_fS_VE_MTurk/MX_fS_HTML.html#257,257,1920,1000,1920,1080,1-1-2024,14-58-50,19,VR_target_stimuli/s13_1x_2.4_310_BC.png,250,1x,2.4,2,2127,250,meters,jsons/MX_seq45_1_VE250_flipped.json,162922,311317,31,Woman
19,271654,final-intermixed-textured,v2,jsons/MX_seq45_1_VE250_flipped.json,http://54.235.29.9/FacialAge/BNav_EC2/DepthDuration/MX_fS_VE_MTurk/MX_fS_HTML.html#257,257,1920,1000,1920,1080,1-1-2024,14-58-50,20,VR_target_stimuli/s14_0.75x_3.83_355.png,250,0.75x,3.83,4,2041,250,meters,jsons/MX_seq45_1_VE250_flipped.json,162922,311317,31,Woman
20,271654,final-intermixed-textured,v2,jsons/MX_seq45_1_VE250_flipped.json,http://54.235.29.9/FacialAge/BNav_EC2/DepthDuration/MX_fS_VE_MTurk/MX_fS_HTML.html#257,257,1920,1000,1920,1080,1-1-2024,14-58-50,21,VR_target_stimuli/s47_1x_3.45_370_BC.png,250,1x,3.45,2,2469,251,meters,jsons/MX_seq45_1_VE250_flipped.json,162922,311317,31,Woman
21,271654,final-intermixed-textured,v2,jsons/MX_seq45_1_VE250_flipped.json,http://54.235.29.9/FacialAge/BNav_EC2/DepthDuration/MX_fS_VE_MTurk/MX_fS_HTML.html#257,257,1920,1000,1920,1080,1-1-2024,14-58-50,22,VR_target_stimuli/s29_1.3x_1.3_253_BC.png,250,1.3x,1.3,1,2264,250,meters,jsons/MX_seq45_1_VE250_flipped.json,162922,311317,31,Woman
22,271654,final-intermixed-textured,v2,jsons/MX_seq45_1_VE250_flipped.json,http://54.235.29.9/FacialAge/BNav_EC2/DepthDuration/MX_fS_VE_MTurk/MX_fS_HTML.html#257,257,1920,1000,1920,1080,1-1-2024,14-58-50,23,VR_target_stimuli/s28_0.75x_3.2_357_BC.png,250,0.75x,3.2,3,1922,250,meters,jsons/MX_seq45_1_VE250_flipped.json,162922,311317,31,Woman
23,271654,final-intermixed-textured,v2,jsons/MX_seq45_1_VE250_flipped.json,http://54.235.29.9/FacialAge/BNav_EC2/DepthDuration/MX_fS_VE_MTurk/MX_fS_HTML.html#257,257,1920,1000,1920,1080,1-1-2024,14-58-50,24,VR_target_stimuli/s48_1.3x_2.55_255.png,250,1.3x,2.55,2,2079,249,meters,jsons/MX_seq45_1_VE250_flipped.json,162922,311317,31,Woman
24,271654,final-intermixed-textured,v2,jsons/MX_seq45_1_VE250_flipped.json,http://54.235.29.9/FacialAge/BNav_EC2/DepthDuration/MX_fS_VE_MTurk/MX_fS_HTML.html#257,257,1920,1000,1920,1080,1-1-2024,14-58-50,25,VR_target_stimuli/s19_1x_1.21_263.png,250,1x,1.21,2,2127,250,meters,jsons/MX_seq45_1_VE250_flipped.json,162922,311317,31,Woman
25,271654,final-intermixed-textured,v2,jsons/MX_seq45_1_VE250_flipped.json,http://54.235.29.9/FacialAge/BNav_EC2/DepthDuration/MX_fS_VE_MTurk/MX_fS_HTML.html#257,257,1920,1000,1920,1080,1-1-2024,14-58-50,26,catch_stimuli/c2_BC.png,250,,,0,1531,250,meters,jsons/MX_seq45_1_VE250_flipped.json,162922,311317,31,Woman
26,271654,final-intermixed-textured,v2,jsons/MX_seq45_1_VE250_flipped.json,http://54.235.29.9/FacialAge/BNav_EC2/DepthDuration/MX_fS_VE_MTurk/MX_fS_HTML.html#257,257,1920,1000,1920,1080,1-1-2024,14-58-50,27,VR_target_stimuli/s21_0.75x_4.22_374.png,250,0.75x,4.22,6,3460,250,meters,jsons/MX_seq45_1_VE250_flipped.json,162922,311317,31,Woman
27,271654,final-intermixed-textured,v2,jsons/MX_seq45_1_VE250_flipped.json,http://54.235.29.9/FacialAge/BNav_EC2/DepthDuration/MX_fS_VE_MTurk/MX_fS_HTML.html#257,257,1920,1000,1920,1080,1-1-2024,14-58-50,28,VR_target_stimuli/s8_0.75x_3.1_325_BC.png,250,0.75x,3.1,3,1758,250,meters,jsons/MX_seq45_1_VE250_flipped.json,162922,311317,31,Woman
28,271654,final-intermixed-textured,v2,jsons/MX_seq45_1_VE250_flipped.json,http://54.235.29.9/FacialAge/BNav_EC2/DepthDuration/MX_fS_VE_MTurk/MX_fS_HTML.html#257,257,1920,1000,1920,1080,1-1-2024,14-58-50,29,VR_target_stimuli/s27_1.3x_1.76_250_BC.png,250,1.3x,1.76,2,3943,250,meters,jsons/MX_seq45_1_VE250_flipped.json,162922,311317,31,Woman
29,271654,final-intermixed-textured,v2,jsons/MX_seq45_1_VE250_flipped.json,http://54.235.29.9/FacialAge/BNav_EC2/DepthDuration/MX_fS_VE_MTurk/MX_fS_HTML.html#257,257,1920,1000,1920,1080,1-1-2024,14-58-50,30,VR_target_stimuli/s15_1x_4.2_390_BC.png,250,1x,4.2,3,1913,249,meters,jsons/MX_seq45_1_VE250_flipped.json,162922,311317,31,Woman
30,271654,final-intermixed-textured,v2,jsons/MX_seq45_1_VE250_flipped.json,http://54.235.29.9/FacialAge/BNav_EC2/DepthDuration/MX_fS_VE_MTurk/MX_fS_HTML.html#257,257,1920,1000,1920,1080,1-1-2024,14-58-50,31,VR_target_stimuli/s4_0.75x_1.4_301.png,250,0.75x,1.4,2,1699,249,meters,jsons/MX_seq45_1_VE250_flipped.json,162922,311317,31,Woman
31,271654,final-intermixed-textured,v2,jsons/MX_seq45_1_VE250_flipped.json,http://54.235.29.9/FacialAge/BNav_EC2/DepthDuration/MX_fS_VE_MTurk/MX_fS_HTML.html#257,257,1920,1000,1920,1080,1-1-2024,14-58-50,32,VR_target_stimuli/s35_1x_2_331.png,250,1x,2.0,2,1938,250,meters,jsons/MX_seq45_1_VE250_flipped.json,162922,311317,31,Woman
32,271654,final-intermixed-textured,v2,jsons/MX_seq45_1_VE250_flipped.json,http://54.235.29.9/FacialAge/BNav_EC2/DepthDuration/MX_fS_VE_MTurk/MX_fS_HTML.html#257,257,1920,1000,1920,1080,1-1-2024,14-58-50,33,VR_target_stimuli/s49_1.3x_4.67_354.png,250,1.3x,4.67,4,1645,249,meters,jsons/MX_seq45_1_VE250_flipped.json,162922,311317,31,Woman
33,271654,final-intermixed-textured,v2,jsons/MX_seq45_1_VE250_flipped.json,http://54.235.29.9/FacialAge/BNav_EC2/DepthDuration/MX_fS_VE_MTurk/MX_fS_HTML.html#257,257,1920,1000,1920,1080,1-1-2024,14-58-50,34,catch_stimuli/c3_BC.png,250,,,9,1680,249,meters,jsons/MX_seq45_1_VE250_flipped.json,162922,311317,31,Woman
34,271654,final-intermixed-textured,v2,jsons/MX_seq45_1_VE250_flipped.json,http://54.235.29.9/FacialAge/BNav_EC2/DepthDuration/MX_fS_VE_MTurk/MX_fS_HTML.html#257,257,1920,1000,1920,1080,1-1-2024,14-58-50,35,VR_target_stimuli/s7_1x_1.5_255_BC.png,250,1x,1.5,2,2125,250,meters,jsons/MX_seq45_1_VE250_flipped.json,162922,311317,31,Woman
35,271654,final-intermixed-textured,v2,jsons/MX_seq45_1_VE250_flipped.json,http://54.235.29.9/FacialAge/BNav_EC2/DepthDuration/MX_fS_VE_MTurk/MX_fS_HTML.html#257,257,1920,1000,1920,1080,1-1-2024,14-58-50,36,VR_target_stimuli/s20_0.75x_4.99_390_BC.png,250,0.75x,4.99,3,1741,250,meters,jsons/MX_seq45_1_VE250_flipped.json,162922,311317,31,Woman
36,271654,final-intermixed-textured,v2,jsons/MX_seq45_1_VE250_flipped.json,http://54.235.29.9/FacialAge/BNav_EC2/DepthDuration/MX_fS_VE_MTurk/MX_fS_HTML.html#257,257,1920,1000,1920,1080,1-1-2024,14-58-50,37,VR_target_stimuli/s31_1.3x_4.96_342.png,250,1.3x,4.96,2,1631,250,meters,jsons/MX_seq45_1_VE250_flipped.json,162922,311317,31,Woman
37,271654,final-intermixed-textured,v2,jsons/MX_seq45_1_VE250_flipped.json,http://54.235.29.9/FacialAge/BNav_EC2/DepthDuration/MX_fS_VE_MTurk/MX_fS_HTML.html#257,257,1920,1000,1920,1080,1-1-2024,14-58-50,38,VR_target_stimuli/s33_1.3x_3.1_378_BC.png,250,1.3x,3.1,4,1682,251,meters,jsons/MX_seq45_1_VE250_flipped.json,162922,311317,31,Woman
38,271654,final-intermixed-textured,v2,jsons/MX_seq45_1_VE250_flipped.json,http://54.235.29.9/FacialAge/BNav_EC2/DepthDuration/MX_fS_VE_MTurk/MX_fS_HTML.html#257,257,1920,1000,1920,1080,1-1-2024,14-58-50,39,VR_target_stimuli/s52_1x_3.2_275.png,250,1x,3.2,3,1608,250,meters,jsons/MX_seq45_1_VE250_flipped.json,162922,311317,31,Woman
39,271654,final-intermixed-textured,v2,jsons/MX_seq45_1_VE250_flipped.json,http://54.235.29.9/FacialAge/BNav_EC2/DepthDuration/MX_fS_VE_MTurk/MX_fS_HTML.html#257,257,1920,1000,1920,1080,1-1-2024,14-58-50,40,VR_target_stimuli/s32_0.75x_1.5_213.png,250,0.75x,1.5,3,1957,249,meters,jsons/MX_seq45_1_VE250_flipped.json,162922,311317,31,Woman
40,271654,final-intermixed-textured,v2,jsons/MX_seq45_1_VE250_flipped.json,http://54.235.29.9/FacialAge/BNav_EC2/DepthDuration/MX_fS_VE_MTurk/MX_fS_HTML.html#257,257,1920,1000,1920,1080,1-1-2024,14-58-50,41,VR_target_stimuli/s18_1x_2.25_353_BC.png,250,1x,2.25,2,1850,250,meters,jsons/MX_seq45_1_VE250_flipped.json,162922,311317,31,Woman
41,271654,final-intermixed-textured,v2,jsons/MX_seq45_1_VE250_flipped.json,http://54.235.29.9/FacialAge/BNav_EC2/DepthDuration/MX_fS_VE_MTurk/MX_fS_HTML.html#257,257,1920,1000,1920,1080,1-1-2024,14-58-50,42,VR_target_stimuli/s39_1.3x_1_208.png,250,1.3x,1.0,1,1882,250,meters,jsons/MX_seq45_1_VE250_flipped.json,162922,311317,31,Woman
42,271654,final-intermixed-textured,v2,jsons/MX_seq45_1_VE250_flipped.json,http://54.235.29.9/FacialAge/BNav_EC2/DepthDuration/MX_fS_VE_MTurk/MX_fS_HTML.html#257,257,1920,1000,1920,1080,1-1-2024,14-58-50,43,VR_target_stimuli/s51_0.75x_3.64_460_BC.png,250,0.75x,3.64,3,2868,250,meters,jsons/MX_seq45_1_VE250_flipped.json,162922,311317,31,Woman
43,271654,final-intermixed-textured,v2,jsons/MX_seq45_1_VE250_flipped.json,http://54.235.29.9/FacialAge/BNav_EC2/DepthDuration/MX_fS_VE_MTurk/MX_fS_HTML.html#257,257,1920,1000,1920,1080,1-1-2024,14-58-50,44,VR_target_stimuli/s43_1.3x_2.2_363_BC.png,250,1.3x,2.2,3,1750,250,meters,jsons/MX_seq45_1_VE250_flipped.json,162922,311317,31,Woman
44,271654,final-intermixed-textured,v2,jsons/MX_seq45_1_VE250_flipped.json,http://54.235.29.9/FacialAge/BNav_EC2/DepthDuration/MX_fS_VE_MTurk/MX_fS_HTML.html#257,257,1920,1000,1920,1080,1-1-2024,14-58-50,45,catch_stimuli/c4_BC.png,250,,,0,2047,250,meters,jsons/MX_seq45_1_VE250_flipped.json,162922,311317,31,Woman
45,271654,final-intermixed-textured,v2,jsons/MX_seq45_1_VE250_flipped.json,http://54.235.29.9/FacialAge/BNav_EC2/DepthDuration/MX_fS_VE_MTurk/MX_fS_HTML.html#257,257,1920,1000,1920,1080,1-1-2024,14-58-50,46,VR_target_stimuli/s24_1x_3.3_349.png,250,1x,3.3,4,1788,249,meters,jsons/MX_seq45_1_VE250_flipped.json,162922,311317,31,Woman
46,271654,final-intermixed-textured,v2,jsons/MX_seq45_1_VE250_flipped.json,http://54.235.29.9/FacialAge/BNav_EC2/DepthDuration/MX_fS_VE_MTurk/MX_fS_HTML.html#257,257,1920,1000,1920,1080,1-1-2024,14-58-50,47,VR_target_stimuli/s10_0.75x_2.7_321.png,250,0.75x,2.7,4,1650,250,meters,jsons/MX_seq45_1_VE250_flipped.json,162922,311317,31,Woman
47,271654,final-intermixed-textured,v2,jsons/MX_seq45_1_VE250_flipped.json,http://54.235.29.9/FacialAge/BNav_EC2/DepthDuration/MX_fS_VE_MTurk/MX_fS_HTML.html#257,257,1920,1000,1920,1080,1-1-2024,14-58-50,48,VR_target_stimuli/s36_0.75x_4.1_407.png,250,0.75x,4.1,5,1745,248,meters,jsons/MX_seq45_1_VE250_flipped.json,162922,311317,31,Woman
48,271654,final-intermixed-textured,v2,jsons/MX_seq45_1_VE250_flipped.json,http://54.235.29.9/FacialAge/BNav_EC2/DepthDuration/MX_fS_VE_MTurk/MX_fS_HTML.html#257,257,1920,1000,1920,1080,1-1-2024,14-58-50,49,VR_target_stimuli/s40_1.3x_1.2_332.png,250,1.3x,1.2,1,2013,250,meters,jsons/MX_seq45_1_VE250_flipped.json,162922,311317,31,Woman
49,271654,final-intermixed-textured,v2,jsons/MX_seq45_1_VE250_flipped.json,http://54.235.29.9/FacialAge/BNav_EC2/DepthDuration/MX_fS_VE_MTurk/MX_fS_HTML.html#257,257,1920,1000,1920,1080,1-1-2024,14-58-50,50,VR_target_stimuli/s41_1x_2.1_286_BC.png,250,1x,2.1,2,1637,250,meters,jsons/MX_seq45_1_VE250_flipped.json,162922,311317,31,Woman
50,271654,final-intermixed-textured,v2,jsons/MX_seq45_1_VE250_flipped.json,http://54.235.29.9/FacialAge/BNav_EC2/DepthDuration/MX_fS_VE_MTurk/MX_fS_HTML.html#257,257,1920,1000,1920,1080,1-1-2024,14-58-50,51,VR_target_stimuli/s45_1.3x_3.5_377_BC.png,250,1.3x,3.5,3,1588,250,meters,jsons/MX_seq45_1_VE250_flipped.json,162922,311317,31,Woman
51,271654,final-intermixed-textured,v2,jsons/MX_seq45_1_VE250_flipped.json,http://54.235.29.9/FacialAge/BNav_EC2/DepthDuration/MX_fS_VE_MTurk/MX_fS_HTML.html#257,257,1920,1000,1920,1080,1-1-2024,14-58-50,52,VR_target_stimuli/s23_0.75x_3.65_351_BC.png,250,0.75x,3.65,4,1675,250,meters,jsons/MX_seq45_1_VE250_flipped.json,162922,311317,31,Woman
52,271654,final-intermixed-textured,v2,jsons/MX_seq45_1_VE250_flipped.json,http://54.235.29.9/FacialAge/BNav_EC2/DepthDuration/MX_fS_VE_MTurk/MX_fS_HTML.html#257,257,1920,1000,1920,1080,1-1-2024,14-58-50,53,catch_stimuli/c5_BC.png,250,,,0,1680,249,meters,jsons/MX_seq45_1_VE250_flipped.json,162922,311317,31,Woman
53,271654,final-intermixed-textured,v2,jsons/MX_seq45_1_VE250_flipped.json,http://54.235.29.9/FacialAge/BNav_EC2/DepthDuration/MX_fS_VE_MTurk/MX_fS_HTML.html#257,257,1920,1000,1920,1080,1-1-2024,14-58-50,54,VR_target_stimuli/s26_1x_4_433.png,250,1x,4.0,3,1903,250,meters,jsons/MX_seq45_1_VE250_flipped.json,162922,311317,31,Woman
54,271654,final-intermixed-textured,v2,jsons/MX_seq45_1_VE250_flipped.json,http://54.235.29.9/FacialAge/BNav_EC2/DepthDuration/MX_fS_VE_MTurk/MX_fS_HTML.html#257,257,1920,1000,1920,1080,1-1-2024,14-58-50,55,VR_target_stimuli/s12_0.75x_3.1_364.png,250,0.75x,3.1,3,1801,249,meters,jsons/MX_seq45_1_VE250_flipped.json,162922,311317,31,Woman
55,271654,final-intermixed-textured,v2,jsons/MX_seq45_1_VE250_flipped.json,http://54.235.29.9/FacialAge/BNav_EC2/DepthDuration/MX_fS_VE_MTurk/MX_fS_HTML.html#257,257,1920,1000,1920,1080,1-1-2024,14-58-50,56,VR_target_stimuli/s30_1.3x_2.3_337_BC.png,250,1.3x,2.3,4,1676,249,meters,jsons/MX_seq45_1_VE250_flipped.json,162922,311317,31,Woman
56,271654,final-intermixed-textured,v2,jsons/MX_seq45_1_VE250_flipped.json,http://54.235.29.9/FacialAge/BNav_EC2/DepthDuration/MX_fS_VE_MTurk/MX_fS_HTML.html#257,257,1920,1000,1920,1080,1-1-2024,14-58-50,57,VR_target_stimuli/s16_1x_1_219_BC.png,250,1x,1.0,2,1971,249,meters,jsons/MX_seq45_1_VE250_flipped.json,162922,311317,31,Woman
57,271654,final-intermixed-textured,v2,jsons/MX_seq45_1_VE250_flipped.json,http://54.235.29.9/FacialAge/BNav_EC2/DepthDuration/MX_fS_VE_MTurk/MX_fS_HTML.html#257,257,1920,1000,1920,1080,1-1-2024,14-58-50,58,VR_target_stimuli/s17_1x_1.8_291.png,250,1x,1.8,2,2136,249,meters,jsons/MX_seq45_1_VE250_flipped.json,162922,311317,31,Woman
58,271654,final-intermixed-textured,v2,jsons/MX_seq45_1_VE250_flipped.json,http://54.235.29.9/FacialAge/BNav_EC2/DepthDuration/MX_fS_VE_MTurk/MX_fS_HTML.html#257,257,1920,1000,1920,1080,1-1-2024,14-58-50,59,VR_target_stimuli/s5_0.75x_4_375_BC.png,250,0.75x,4.0,3,1810,250,meters,jsons/MX_seq45_1_VE250_flipped.json,162922,311317,31,Woman
59,271654,final-intermixed-textured,v2,jsons/MX_seq45_1_VE250_flipped.json,http://54.235.29.9/FacialAge/BNav_EC2/DepthDuration/MX_fS_VE_MTurk/MX_fS_HTML.html#257,257,1920,1000,1920,1080,1-1-2024,14-58-50,60,VR_target_stimuli/s37_1.3x_3.3_555.png,250,1.3x,3.3,2,2609,250,meters,jsons/MX_seq45_1_VE250_flipped.json,162922,311317,31,Woman
