,subjID,experimentName,versionName,sequenceName,url,selected_row,windowWidth,windowHeight,screenWidth,screenHeight,startDate,startTime,trial,stimulus,duration,scale,actual_depth,depth_estimate,trial_RT,log_sceneDuration,unitSelection,seq_filepath,experimentTime,totalTime,age,gender
0,300392,final-intermixed-textured,v2,jsons/MX_seq52_2_VE250.json,http://54.235.29.9/FacialAge/BNav_EC2/DepthDuration/MX_fS_VE_MTurk/MX_fS_HTML.html#54,54,1536,695,1536,864,0-31-2024,13-37-32,1,VR_target_stimuli/s9_1x_1.2_263.png,250,1x,1.2,0.0,2600,239,meters,jsons/MX_seq52_2_VE250.json,212428,403765,21,Woman
1,300392,final-intermixed-textured,v2,jsons/MX_seq52_2_VE250.json,http://54.235.29.9/FacialAge/BNav_EC2/DepthDuration/MX_fS_VE_MTurk/MX_fS_HTML.html#54,54,1536,695,1536,864,0-31-2024,13-37-32,2,VR_target_stimuli/s44_1.3x_4.4_325.png,250,1.3x,4.4,0.0,4074,238,meters,jsons/MX_seq52_2_VE250.json,212428,403765,21,Woman
2,300392,final-intermixed-textured,v2,jsons/MX_seq52_2_VE250.json,http://54.235.29.9/FacialAge/BNav_EC2/DepthDuration/MX_fS_VE_MTurk/MX_fS_HTML.html#54,54,1536,695,1536,864,0-31-2024,13-37-32,3,VR_target_stimuli/s3_0.75x_5_381_BC.png,250,0.75x,5.0,0.0,16759,261,meters,jsons/MX_seq52_2_VE250.json,212428,403765,21,Woman
3,300392,final-intermixed-textured,v2,jsons/MX_seq52_2_VE250.json,http://54.235.29.9/FacialAge/BNav_EC2/DepthDuration/MX_fS_VE_MTurk/MX_fS_HTML.html#54,54,1536,695,1536,864,0-31-2024,13-37-32,4,VR_target_stimuli/s1_1.3x_1.7_261_BC.png,250,1.3x,1.7,0.0,2518,250,meters,jsons/MX_seq52_2_VE250.json,212428,403765,21,Woman
4,300392,final-intermixed-textured,v2,jsons/MX_seq52_2_VE250.json,http://54.235.29.9/FacialAge/BNav_EC2/DepthDuration/MX_fS_VE_MTurk/MX_fS_HTML.html#54,54,1536,695,1536,864,0-31-2024,13-37-32,5,VR_target_stimuli/s11_1x_5_361_BC.png,250,1x,5.0,0.0,7430,262,meters,jsons/MX_seq52_2_VE250.json,212428,403765,21,Woman
5,300392,final-intermixed-textured,v2,jsons/MX_seq52_2_VE250.json,http://54.235.29.9/FacialAge/BNav_EC2/DepthDuration/MX_fS_VE_MTurk/MX_fS_HTML.html#54,54,1536,695,1536,864,0-31-2024,13-37-32,6,VR_target_stimuli/s2_0.75x_2.7_384.png,250,0.75x,2.7,0.0,2520,245,meters,jsons/MX_seq52_2_VE250.json,212428,403765,21,Woman
6,300392,final-intermixed-textured,v2,jsons/MX_seq52_2_VE250.json,http://54.235.29.9/FacialAge/BNav_EC2/DepthDuration/MX_fS_VE_MTurk/MX_fS_HTML.html#54,54,1536,695,1536,864,0-31-2024,13-37-32,7,catch_stimuli/c0.png,250,,,0.0,3794,246,meters,jsons/MX_seq52_2_VE250.json,212428,403765,21,Woman
7,300392,final-intermixed-textured,v2,jsons/MX_seq52_2_VE250.json,http://54.235.29.9/FacialAge/BNav_EC2/DepthDuration/MX_fS_VE_MTurk/MX_fS_HTML.html#54,54,1536,695,1536,864,0-31-2024,13-37-32,8,VR_target_stimuli/s6_0.75x_2.1_290_BC.png,250,0.75x,2.1,3.0,7295,247,meters,jsons/MX_seq52_2_VE250.json,212428,403765,21,Woman
8,300392,final-intermixed-textured,v2,jsons/MX_seq52_2_VE250.json,http://54.235.29.9/FacialAge/BNav_EC2/DepthDuration/MX_fS_VE_MTurk/MX_fS_HTML.html#54,54,1536,695,1536,864,0-31-2024,13-37-32,9,VR_target_stimuli/s0_1.3x_2.6_356.png,250,1.3x,2.6,3.0,3498,246,meters,jsons/MX_seq52_2_VE250.json,212428,403765,21,Woman
9,300392,final-intermixed-textured,v2,jsons/MX_seq52_2_VE250.json,http://54.235.29.9/FacialAge/BNav_EC2/DepthDuration/MX_fS_VE_MTurk/MX_fS_HTML.html#54,54,1536,695,1536,864,0-31-2024,13-37-32,10,VR_target_stimuli/s34_1x_2.8_283.png,250,1x,2.8,4.0,5193,247,meters,jsons/MX_seq52_2_VE250.json,212428,403765,21,Woman
10,300392,final-intermixed-textured,v2,jsons/MX_seq52_2_VE250.json,http://54.235.29.9/FacialAge/BNav_EC2/DepthDuration/MX_fS_VE_MTurk/MX_fS_HTML.html#54,54,1536,695,1536,864,0-31-2024,13-37-32,11,VR_target_stimuli/s13_1.3x_2.4_313_BC.png,250,1.3x,2.4,0.0,2542,246,meters,jsons/MX_seq52_2_VE250.json,212428,403765,21,Woman
11,300392,final-intermixed-textured,v2,jsons/MX_seq52_2_VE250.json,http://54.235.29.9/FacialAge/BNav_EC2/DepthDuration/MX_fS_VE_MTurk/MX_fS_HTML.html#54,54,1536,695,1536,864,0-31-2024,13-37-32,12,VR_target_stimuli/s14_0.75x_3.83_355.png,250,0.75x,3.83,3.0,7039,248,meters,jsons/MX_seq52_2_VE250.json,212428,403765,21,Woman
12,300392,final-intermixed-textured,v2,jsons/MX_seq52_2_VE250.json,http://54.235.29.9/FacialAge/BNav_EC2/DepthDuration/MX_fS_VE_MTurk/MX_fS_HTML.html#54,54,1536,695,1536,864,0-31-2024,13-37-32,13,VR_target_stimuli/s47_1x_3.45_370_BC.png,250,1x,3.45,0.0,2259,241,meters,jsons/MX_seq52_2_VE250.json,212428,403765,21,Woman
13,300392,final-intermixed-textured,v2,jsons/MX_seq52_2_VE250.json,http://54.235.29.9/FacialAge/BNav_EC2/DepthDuration/MX_fS_VE_MTurk/MX_fS_HTML.html#54,54,1536,695,1536,864,0-31-2024,13-37-32,14,VR_target_stimuli/s29_0.75x_1.3_246_BC.png,250,0.75x,1.3,0.0,2028,238,meters,jsons/MX_seq52_2_VE250.json,212428,403765,21,Woman
14,300392,final-intermixed-textured,v2,jsons/MX_seq52_2_VE250.json,http://54.235.29.9/FacialAge/BNav_EC2/DepthDuration/MX_fS_VE_MTurk/MX_fS_HTML.html#54,54,1536,695,1536,864,0-31-2024,13-37-32,15,VR_target_stimuli/s28_1.3x_3.2_365.png,250,1.3x,3.2,0.0,2083,247,meters,jsons/MX_seq52_2_VE250.json,212428,403765,21,Woman
15,300392,final-intermixed-textured,v2,jsons/MX_seq52_2_VE250.json,http://54.235.29.9/FacialAge/BNav_EC2/DepthDuration/MX_fS_VE_MTurk/MX_fS_HTML.html#54,54,1536,695,1536,864,0-31-2024,13-37-32,16,VR_target_stimuli/s48_1x_2.55_256.png,250,1x,2.55,2.0,5298,246,meters,jsons/MX_seq52_2_VE250.json,212428,403765,21,Woman
16,300392,final-intermixed-textured,v2,jsons/MX_seq52_2_VE250.json,http://54.235.29.9/FacialAge/BNav_EC2/DepthDuration/MX_fS_VE_MTurk/MX_fS_HTML.html#54,54,1536,695,1536,864,0-31-2024,13-37-32,17,catch_stimuli/c1.png,250,,,0.0,2772,242,meters,jsons/MX_seq52_2_VE250.json,212428,403765,21,Woman
17,300392,final-intermixed-textured,v2,jsons/MX_seq52_2_VE250.json,http://54.235.29.9/FacialAge/BNav_EC2/DepthDuration/MX_fS_VE_MTurk/MX_fS_HTML.html#54,54,1536,695,1536,864,0-31-2024,13-37-32,18,VR_target_stimuli/s19_1x_1.21_263_BC.png,250,1x,1.21,0.0,2123,248,meters,jsons/MX_seq52_2_VE250.json,212428,403765,21,Woman
18,300392,final-intermixed-textured,v2,jsons/MX_seq52_2_VE250.json,http://54.235.29.9/FacialAge/BNav_EC2/DepthDuration/MX_fS_VE_MTurk/MX_fS_HTML.html#54,54,1536,695,1536,864,0-31-2024,13-37-32,19,VR_target_stimuli/s21_0.75x_4.22_374.png,250,0.75x,4.22,0.0,2121,239,meters,jsons/MX_seq52_2_VE250.json,212428,403765,21,Woman
19,300392,final-intermixed-textured,v2,jsons/MX_seq52_2_VE250.json,http://54.235.29.9/FacialAge/BNav_EC2/DepthDuration/MX_fS_VE_MTurk/MX_fS_HTML.html#54,54,1536,695,1536,864,0-31-2024,13-37-32,20,VR_target_stimuli/s8_1.3x_3.1_345_BC.png,250,1.3x,3.1,0.0,2012,250,meters,jsons/MX_seq52_2_VE250.json,212428,403765,21,Woman
20,300392,final-intermixed-textured,v2,jsons/MX_seq52_2_VE250.json,http://54.235.29.9/FacialAge/BNav_EC2/DepthDuration/MX_fS_VE_MTurk/MX_fS_HTML.html#54,54,1536,695,1536,864,0-31-2024,13-37-32,21,VR_target_stimuli/s27_0.75x_1.76_243_BC.png,250,0.75x,1.76,0.0,2116,263,meters,jsons/MX_seq52_2_VE250.json,212428,403765,21,Woman
21,300392,final-intermixed-textured,v2,jsons/MX_seq52_2_VE250.json,http://54.235.29.9/FacialAge/BNav_EC2/DepthDuration/MX_fS_VE_MTurk/MX_fS_HTML.html#54,54,1536,695,1536,864,0-31-2024,13-37-32,22,VR_target_stimuli/s15_1x_4.2_390_BC.png,250,1x,4.2,0.0,1911,239,meters,jsons/MX_seq52_2_VE250.json,212428,403765,21,Woman
22,300392,final-intermixed-textured,v2,jsons/MX_seq52_2_VE250.json,http://54.235.29.9/FacialAge/BNav_EC2/DepthDuration/MX_fS_VE_MTurk/MX_fS_HTML.html#54,54,1536,695,1536,864,0-31-2024,13-37-32,23,VR_target_stimuli/s4_1.3x_1.4_328.png,250,1.3x,1.4,1.5,4651,260,meters,jsons/MX_seq52_2_VE250.json,212428,403765,21,Woman
23,300392,final-intermixed-textured,v2,jsons/MX_seq52_2_VE250.json,http://54.235.29.9/FacialAge/BNav_EC2/DepthDuration/MX_fS_VE_MTurk/MX_fS_HTML.html#54,54,1536,695,1536,864,0-31-2024,13-37-32,24,VR_target_stimuli/s35_1x_2_331.png,250,1x,2.0,0.0,2396,241,meters,jsons/MX_seq52_2_VE250.json,212428,403765,21,Woman
24,300392,final-intermixed-textured,v2,jsons/MX_seq52_2_VE250.json,http://54.235.29.9/FacialAge/BNav_EC2/DepthDuration/MX_fS_VE_MTurk/MX_fS_HTML.html#54,54,1536,695,1536,864,0-31-2024,13-37-32,25,VR_target_stimuli/s49_0.75x_4.67_328.png,250,0.75x,4.67,0.0,1905,261,meters,jsons/MX_seq52_2_VE250.json,212428,403765,21,Woman
25,300392,final-intermixed-textured,v2,jsons/MX_seq52_2_VE250.json,http://54.235.29.9/FacialAge/BNav_EC2/DepthDuration/MX_fS_VE_MTurk/MX_fS_HTML.html#54,54,1536,695,1536,864,0-31-2024,13-37-32,26,catch_stimuli/c2.png,250,,,0.0,1940,243,meters,jsons/MX_seq52_2_VE250.json,212428,403765,21,Woman
26,300392,final-intermixed-textured,v2,jsons/MX_seq52_2_VE250.json,http://54.235.29.9/FacialAge/BNav_EC2/DepthDuration/MX_fS_VE_MTurk/MX_fS_HTML.html#54,54,1536,695,1536,864,0-31-2024,13-37-32,27,VR_target_stimuli/s7_1.3x_1.5_256_BC.png,250,1.3x,1.5,1.0,2302,245,meters,jsons/MX_seq52_2_VE250.json,212428,403765,21,Woman
27,300392,final-intermixed-textured,v2,jsons/MX_seq52_2_VE250.json,http://54.235.29.9/FacialAge/BNav_EC2/DepthDuration/MX_fS_VE_MTurk/MX_fS_HTML.html#54,54,1536,695,1536,864,0-31-2024,13-37-32,28,VR_target_stimuli/s20_1.3x_4.99_412.png,250,1.3x,4.99,0.0,2357,248,meters,jsons/MX_seq52_2_VE250.json,212428,403765,21,Woman
28,300392,final-intermixed-textured,v2,jsons/MX_seq52_2_VE250.json,http://54.235.29.9/FacialAge/BNav_EC2/DepthDuration/MX_fS_VE_MTurk/MX_fS_HTML.html#54,54,1536,695,1536,864,0-31-2024,13-37-32,29,VR_target_stimuli/s31_1x_4.96_333.png,250,1x,4.96,0.0,4074,246,meters,jsons/MX_seq52_2_VE250.json,212428,403765,21,Woman
29,300392,final-intermixed-textured,v2,jsons/MX_seq52_2_VE250.json,http://54.235.29.9/FacialAge/BNav_EC2/DepthDuration/MX_fS_VE_MTurk/MX_fS_HTML.html#54,54,1536,695,1536,864,0-31-2024,13-37-32,30,VR_target_stimuli/s33_0.75x_3.1_361_BC.png,250,0.75x,3.1,0.0,2458,242,meters,jsons/MX_seq52_2_VE250.json,212428,403765,21,Woman
30,300392,final-intermixed-textured,v2,jsons/MX_seq52_2_VE250.json,http://54.235.29.9/FacialAge/BNav_EC2/DepthDuration/MX_fS_VE_MTurk/MX_fS_HTML.html#54,54,1536,695,1536,864,0-31-2024,13-37-32,31,VR_target_stimuli/s52_1.3x_3.2_280_BC.png,250,1.3x,3.2,1.0,2430,263,meters,jsons/MX_seq52_2_VE250.json,212428,403765,21,Woman
31,300392,final-intermixed-textured,v2,jsons/MX_seq52_2_VE250.json,http://54.235.29.9/FacialAge/BNav_EC2/DepthDuration/MX_fS_VE_MTurk/MX_fS_HTML.html#54,54,1536,695,1536,864,0-31-2024,13-37-32,32,VR_target_stimuli/s32_0.75x_1.5_213.png,250,0.75x,1.5,0.0,2343,259,meters,jsons/MX_seq52_2_VE250.json,212428,403765,21,Woman
32,300392,final-intermixed-textured,v2,jsons/MX_seq52_2_VE250.json,http://54.235.29.9/FacialAge/BNav_EC2/DepthDuration/MX_fS_VE_MTurk/MX_fS_HTML.html#54,54,1536,695,1536,864,0-31-2024,13-37-32,33,VR_target_stimuli/s18_1x_2.25_353_BC.png,250,1x,2.25,0.0,2188,239,meters,jsons/MX_seq52_2_VE250.json,212428,403765,21,Woman
33,300392,final-intermixed-textured,v2,jsons/MX_seq52_2_VE250.json,http://54.235.29.9/FacialAge/BNav_EC2/DepthDuration/MX_fS_VE_MTurk/MX_fS_HTML.html#54,54,1536,695,1536,864,0-31-2024,13-37-32,34,catch_stimuli/c3.png,250,,,0.0,1773,238,meters,jsons/MX_seq52_2_VE250.json,212428,403765,21,Woman
34,300392,final-intermixed-textured,v2,jsons/MX_seq52_2_VE250.json,http://54.235.29.9/FacialAge/BNav_EC2/DepthDuration/MX_fS_VE_MTurk/MX_fS_HTML.html#54,54,1536,695,1536,864,0-31-2024,13-37-32,35,VR_target_stimuli/s39_0.75x_1_205_BC.png,250,0.75x,1.0,0.0,2080,238,meters,jsons/MX_seq52_2_VE250.json,212428,403765,21,Woman
35,300392,final-intermixed-textured,v2,jsons/MX_seq52_2_VE250.json,http://54.235.29.9/FacialAge/BNav_EC2/DepthDuration/MX_fS_VE_MTurk/MX_fS_HTML.html#54,54,1536,695,1536,864,0-31-2024,13-37-32,36,VR_target_stimuli/s51_1.3x_3.64_479.png,250,1.3x,3.64,1.0,13648,248,meters,jsons/MX_seq52_2_VE250.json,212428,403765,21,Woman
36,300392,final-intermixed-textured,v2,jsons/MX_seq52_2_VE250.json,http://54.235.29.9/FacialAge/BNav_EC2/DepthDuration/MX_fS_VE_MTurk/MX_fS_HTML.html#54,54,1536,695,1536,864,0-31-2024,13-37-32,37,VR_target_stimuli/s43_1x_2.2_354_BC.png,250,1x,2.2,0.0,2826,247,meters,jsons/MX_seq52_2_VE250.json,212428,403765,21,Woman
37,300392,final-intermixed-textured,v2,jsons/MX_seq52_2_VE250.json,http://54.235.29.9/FacialAge/BNav_EC2/DepthDuration/MX_fS_VE_MTurk/MX_fS_HTML.html#54,54,1536,695,1536,864,0-31-2024,13-37-32,38,VR_target_stimuli/s24_1x_3.3_349.png,250,1x,3.3,0.0,1957,239,meters,jsons/MX_seq52_2_VE250.json,212428,403765,21,Woman
38,300392,final-intermixed-textured,v2,jsons/MX_seq52_2_VE250.json,http://54.235.29.9/FacialAge/BNav_EC2/DepthDuration/MX_fS_VE_MTurk/MX_fS_HTML.html#54,54,1536,695,1536,864,0-31-2024,13-37-32,39,VR_target_stimuli/s10_0.75x_2.7_321.png,250,0.75x,2.7,0.0,1746,264,meters,jsons/MX_seq52_2_VE250.json,212428,403765,21,Woman
39,300392,final-intermixed-textured,v2,jsons/MX_seq52_2_VE250.json,http://54.235.29.9/FacialAge/BNav_EC2/DepthDuration/MX_fS_VE_MTurk/MX_fS_HTML.html#54,54,1536,695,1536,864,0-31-2024,13-37-32,40,VR_target_stimuli/s36_1.3x_4.1_442_BC.png,250,1.3x,4.1,0.0,1710,251,meters,jsons/MX_seq52_2_VE250.json,212428,403765,21,Woman
40,300392,final-intermixed-textured,v2,jsons/MX_seq52_2_VE250.json,http://54.235.29.9/FacialAge/BNav_EC2/DepthDuration/MX_fS_VE_MTurk/MX_fS_HTML.html#54,54,1536,695,1536,864,0-31-2024,13-37-32,41,VR_target_stimuli/s40_0.75x_1.2_308.png,250,0.75x,1.2,0.0,2083,247,meters,jsons/MX_seq52_2_VE250.json,212428,403765,21,Woman
41,300392,final-intermixed-textured,v2,jsons/MX_seq52_2_VE250.json,http://54.235.29.9/FacialAge/BNav_EC2/DepthDuration/MX_fS_VE_MTurk/MX_fS_HTML.html#54,54,1536,695,1536,864,0-31-2024,13-37-32,42,VR_target_stimuli/s41_1x_2.1_286_BC.png,250,1x,2.1,0.0,1738,264,meters,jsons/MX_seq52_2_VE250.json,212428,403765,21,Woman
42,300392,final-intermixed-textured,v2,jsons/MX_seq52_2_VE250.json,http://54.235.29.9/FacialAge/BNav_EC2/DepthDuration/MX_fS_VE_MTurk/MX_fS_HTML.html#54,54,1536,695,1536,864,0-31-2024,13-37-32,43,VR_target_stimuli/s45_1.3x_3.5_377.png,250,1.3x,3.5,0.0,1683,250,meters,jsons/MX_seq52_2_VE250.json,212428,403765,21,Woman
43,300392,final-intermixed-textured,v2,jsons/MX_seq52_2_VE250.json,http://54.235.29.9/FacialAge/BNav_EC2/DepthDuration/MX_fS_VE_MTurk/MX_fS_HTML.html#54,54,1536,695,1536,864,0-31-2024,13-37-32,44,VR_target_stimuli/s23_1x_3.65_353.png,250,1x,3.65,0.0,1583,237,meters,jsons/MX_seq52_2_VE250.json,212428,403765,21,Woman
44,300392,final-intermixed-textured,v2,jsons/MX_seq52_2_VE250.json,http://54.235.29.9/FacialAge/BNav_EC2/DepthDuration/MX_fS_VE_MTurk/MX_fS_HTML.html#54,54,1536,695,1536,864,0-31-2024,13-37-32,45,catch_stimuli/c4.png,250,,,0.0,1759,238,meters,jsons/MX_seq52_2_VE250.json,212428,403765,21,Woman
45,300392,final-intermixed-textured,v2,jsons/MX_seq52_2_VE250.json,http://54.235.29.9/FacialAge/BNav_EC2/DepthDuration/MX_fS_VE_MTurk/MX_fS_HTML.html#54,54,1536,695,1536,864,0-31-2024,13-37-32,46,VR_target_stimuli/s26_0.75x_4_430_BC.png,250,0.75x,4.0,0.0,1751,236,meters,jsons/MX_seq52_2_VE250.json,212428,403765,21,Woman
46,300392,final-intermixed-textured,v2,jsons/MX_seq52_2_VE250.json,http://54.235.29.9/FacialAge/BNav_EC2/DepthDuration/MX_fS_VE_MTurk/MX_fS_HTML.html#54,54,1536,695,1536,864,0-31-2024,13-37-32,47,VR_target_stimuli/s12_1.3x_3.1_375_BC.png,250,1.3x,3.1,0.0,1713,240,meters,jsons/MX_seq52_2_VE250.json,212428,403765,21,Woman
47,300392,final-intermixed-textured,v2,jsons/MX_seq52_2_VE250.json,http://54.235.29.9/FacialAge/BNav_EC2/DepthDuration/MX_fS_VE_MTurk/MX_fS_HTML.html#54,54,1536,695,1536,864,0-31-2024,13-37-32,48,VR_target_stimuli/s30_1.3x_2.3_337.png,250,1.3x,2.3,0.0,1710,239,meters,jsons/MX_seq52_2_VE250.json,212428,403765,21,Woman
48,300392,final-intermixed-textured,v2,jsons/MX_seq52_2_VE250.json,http://54.235.29.9/FacialAge/BNav_EC2/DepthDuration/MX_fS_VE_MTurk/MX_fS_HTML.html#54,54,1536,695,1536,864,0-31-2024,13-37-32,49,VR_target_stimuli/s16_1x_1_219_BC.png,250,1x,1.0,0.0,1708,245,meters,jsons/MX_seq52_2_VE250.json,212428,403765,21,Woman
49,300392,final-intermixed-textured,v2,jsons/MX_seq52_2_VE250.json,http://54.235.29.9/FacialAge/BNav_EC2/DepthDuration/MX_fS_VE_MTurk/MX_fS_HTML.html#54,54,1536,695,1536,864,0-31-2024,13-37-32,50,VR_target_stimuli/s17_0.75x_1.8_285.png,250,0.75x,1.8,0.0,1801,238,meters,jsons/MX_seq52_2_VE250.json,212428,403765,21,Woman
50,300392,final-intermixed-textured,v2,jsons/MX_seq52_2_VE250.json,http://54.235.29.9/FacialAge/BNav_EC2/DepthDuration/MX_fS_VE_MTurk/MX_fS_HTML.html#54,54,1536,695,1536,864,0-31-2024,13-37-32,51,VR_target_stimuli/s5_1x_4_378.png,250,1x,4.0,0.0,1953,239,meters,jsons/MX_seq52_2_VE250.json,212428,403765,21,Woman
51,300392,final-intermixed-textured,v2,jsons/MX_seq52_2_VE250.json,http://54.235.29.9/FacialAge/BNav_EC2/DepthDuration/MX_fS_VE_MTurk/MX_fS_HTML.html#54,54,1536,695,1536,864,0-31-2024,13-37-32,52,VR_target_stimuli/s37_1.3x_3.3_555_BC.png,250,1.3x,3.3,0.0,1787,247,meters,jsons/MX_seq52_2_VE250.json,212428,403765,21,Woman
52,300392,final-intermixed-textured,v2,jsons/MX_seq52_2_VE250.json,http://54.235.29.9/FacialAge/BNav_EC2/DepthDuration/MX_fS_VE_MTurk/MX_fS_HTML.html#54,54,1536,695,1536,864,0-31-2024,13-37-32,53,catch_stimuli/c5.png,250,,,0.0,1728,248,meters,jsons/MX_seq52_2_VE250.json,212428,403765,21,Woman
53,300392,final-intermixed-textured,v2,jsons/MX_seq52_2_VE250.json,http://54.235.29.9/FacialAge/BNav_EC2/DepthDuration/MX_fS_VE_MTurk/MX_fS_HTML.html#54,54,1536,695,1536,864,0-31-2024,13-37-32,54,VR_target_stimuli/s46_0.75x_2.42_343_BC.png,250,0.75x,2.42,0.0,1678,237,meters,jsons/MX_seq52_2_VE250.json,212428,403765,21,Woman
54,300392,final-intermixed-textured,v2,jsons/MX_seq52_2_VE250.json,http://54.235.29.9/FacialAge/BNav_EC2/DepthDuration/MX_fS_VE_MTurk/MX_fS_HTML.html#54,54,1536,695,1536,864,0-31-2024,13-37-32,55,VR_target_stimuli/s22_1.3x_4.29_364.png,250,1.3x,4.29,0.0,1815,242,meters,jsons/MX_seq52_2_VE250.json,212428,403765,21,Woman
55,300392,final-intermixed-textured,v2,jsons/MX_seq52_2_VE250.json,http://54.235.29.9/FacialAge/BNav_EC2/DepthDuration/MX_fS_VE_MTurk/MX_fS_HTML.html#54,54,1536,695,1536,864,0-31-2024,13-37-32,56,VR_target_stimuli/s42_1x_3.2_303.png,250,1x,3.2,0.0,1801,243,meters,jsons/MX_seq52_2_VE250.json,212428,403765,21,Woman
56,300392,final-intermixed-textured,v2,jsons/MX_seq52_2_VE250.json,http://54.235.29.9/FacialAge/BNav_EC2/DepthDuration/MX_fS_VE_MTurk/MX_fS_HTML.html#54,54,1536,695,1536,864,0-31-2024,13-37-32,57,VR_target_stimuli/s25_0.75x_1.4_281.png,250,0.75x,1.4,1.0,3226,261,meters,jsons/MX_seq52_2_VE250.json,212428,403765,21,Woman
57,300392,final-intermixed-textured,v2,jsons/MX_seq52_2_VE250.json,http://54.235.29.9/FacialAge/BNav_EC2/DepthDuration/MX_fS_VE_MTurk/MX_fS_HTML.html#54,54,1536,695,1536,864,0-31-2024,13-37-32,58,VR_target_stimuli/s50_0.75x_4.53_517_BC.png,250,0.75x,4.53,0.0,2038,255,meters,jsons/MX_seq52_2_VE250.json,212428,403765,21,Woman
58,300392,final-intermixed-textured,v2,jsons/MX_seq52_2_VE250.json,http://54.235.29.9/FacialAge/BNav_EC2/DepthDuration/MX_fS_VE_MTurk/MX_fS_HTML.html#54,54,1536,695,1536,864,0-31-2024,13-37-32,59,VR_target_stimuli/s53_1.3x_1.6_355_BC.png,250,1.3x,1.6,0.0,1749,240,meters,jsons/MX_seq52_2_VE250.json,212428,403765,21,Woman
59,300392,final-intermixed-textured,v2,jsons/MX_seq52_2_VE250.json,http://54.235.29.9/FacialAge/BNav_EC2/DepthDuration/MX_fS_VE_MTurk/MX_fS_HTML.html#54,54,1536,695,1536,864,0-31-2024,13-37-32,60,VR_target_stimuli/s38_1x_3.55_353_BC.png,250,1x,3.55,0.0,1796,250,meters,jsons/MX_seq52_2_VE250.json,212428,403765,21,Woman
