,subjID,experimentName,versionName,sequenceName,url,selected_row,windowWidth,windowHeight,screenWidth,screenHeight,startDate,startTime,trial,stimulus,duration,scale,actual_depth,depth_estimate,trial_RT,log_sceneDuration,unitSelection,seq_filepath,experimentTime,totalTime,age,gender
0,301219,final-intermixed-textured,v2,jsons/MX_seq26_1_VE250.json,http://54.235.29.9/FacialAge/BNav_EC2/DepthDuration/MX_fS_VE_MTurk/MX_fS_HTML.html#88,88,1365,767,1366,768,0-31-2024,20-14-30,1,VR_target_stimuli/s32_1.3x_1.5_224.png,250,1.3x,1.5,2,7318,249,meters,jsons/MX_seq26_1_VE250.json,279113,553856,48,Man
1,301219,final-intermixed-textured,v2,jsons/MX_seq26_1_VE250.json,http://54.235.29.9/FacialAge/BNav_EC2/DepthDuration/MX_fS_VE_MTurk/MX_fS_HTML.html#88,88,1365,767,1366,768,0-31-2024,20-14-30,2,VR_target_stimuli/s18_0.75x_2.25_341_BC.png,250,0.75x,2.25,1,7633,249,meters,jsons/MX_seq26_1_VE250.json,279113,553856,48,Man
2,301219,final-intermixed-textured,v2,jsons/MX_seq26_1_VE250.json,http://54.235.29.9/FacialAge/BNav_EC2/DepthDuration/MX_fS_VE_MTurk/MX_fS_HTML.html#88,88,1365,767,1366,768,0-31-2024,20-14-30,3,VR_target_stimuli/s39_1x_1_207.png,250,1x,1.0,1,4365,249,meters,jsons/MX_seq26_1_VE250.json,279113,553856,48,Man
3,301219,final-intermixed-textured,v2,jsons/MX_seq26_1_VE250.json,http://54.235.29.9/FacialAge/BNav_EC2/DepthDuration/MX_fS_VE_MTurk/MX_fS_HTML.html#88,88,1365,767,1366,768,0-31-2024,20-14-30,4,VR_target_stimuli/s51_0.75x_3.64_460.png,250,0.75x,3.64,2,5281,249,meters,jsons/MX_seq26_1_VE250.json,279113,553856,48,Man
4,301219,final-intermixed-textured,v2,jsons/MX_seq26_1_VE250.json,http://54.235.29.9/FacialAge/BNav_EC2/DepthDuration/MX_fS_VE_MTurk/MX_fS_HTML.html#88,88,1365,767,1366,768,0-31-2024,20-14-30,5,VR_target_stimuli/s43_1.3x_2.2_363_BC.png,250,1.3x,2.2,1,3835,249,meters,jsons/MX_seq26_1_VE250.json,279113,553856,48,Man
5,301219,final-intermixed-textured,v2,jsons/MX_seq26_1_VE250.json,http://54.235.29.9/FacialAge/BNav_EC2/DepthDuration/MX_fS_VE_MTurk/MX_fS_HTML.html#88,88,1365,767,1366,768,0-31-2024,20-14-30,6,VR_target_stimuli/s24_1x_3.3_349_BC.png,250,1x,3.3,3,4080,250,meters,jsons/MX_seq26_1_VE250.json,279113,553856,48,Man
6,301219,final-intermixed-textured,v2,jsons/MX_seq26_1_VE250.json,http://54.235.29.9/FacialAge/BNav_EC2/DepthDuration/MX_fS_VE_MTurk/MX_fS_HTML.html#88,88,1365,767,1366,768,0-31-2024,20-14-30,7,catch_stimuli/c0.png,250,,,1,3970,249,meters,jsons/MX_seq26_1_VE250.json,279113,553856,48,Man
7,301219,final-intermixed-textured,v2,jsons/MX_seq26_1_VE250.json,http://54.235.29.9/FacialAge/BNav_EC2/DepthDuration/MX_fS_VE_MTurk/MX_fS_HTML.html#88,88,1365,767,1366,768,0-31-2024,20-14-30,8,VR_target_stimuli/s10_1x_2.7_324_BC.png,250,1x,2.7,3,4301,250,meters,jsons/MX_seq26_1_VE250.json,279113,553856,48,Man
8,301219,final-intermixed-textured,v2,jsons/MX_seq26_1_VE250.json,http://54.235.29.9/FacialAge/BNav_EC2/DepthDuration/MX_fS_VE_MTurk/MX_fS_HTML.html#88,88,1365,767,1366,768,0-31-2024,20-14-30,9,VR_target_stimuli/s36_0.75x_4.1_407_BC.png,250,0.75x,4.1,3,4560,249,meters,jsons/MX_seq26_1_VE250.json,279113,553856,48,Man
9,301219,final-intermixed-textured,v2,jsons/MX_seq26_1_VE250.json,http://54.235.29.9/FacialAge/BNav_EC2/DepthDuration/MX_fS_VE_MTurk/MX_fS_HTML.html#88,88,1365,767,1366,768,0-31-2024,20-14-30,10,VR_target_stimuli/s40_1.3x_1.2_332_BC.png,250,1.3x,1.2,2,3732,250,meters,jsons/MX_seq26_1_VE250.json,279113,553856,48,Man
10,301219,final-intermixed-textured,v2,jsons/MX_seq26_1_VE250.json,http://54.235.29.9/FacialAge/BNav_EC2/DepthDuration/MX_fS_VE_MTurk/MX_fS_HTML.html#88,88,1365,767,1366,768,0-31-2024,20-14-30,11,VR_target_stimuli/s41_0.75x_2.1_281.png,250,0.75x,2.1,1,3652,250,meters,jsons/MX_seq26_1_VE250.json,279113,553856,48,Man
11,301219,final-intermixed-textured,v2,jsons/MX_seq26_1_VE250.json,http://54.235.29.9/FacialAge/BNav_EC2/DepthDuration/MX_fS_VE_MTurk/MX_fS_HTML.html#88,88,1365,767,1366,768,0-31-2024,20-14-30,12,VR_target_stimuli/s45_1x_3.5_368.png,250,1x,3.5,3,3764,250,meters,jsons/MX_seq26_1_VE250.json,279113,553856,48,Man
12,301219,final-intermixed-textured,v2,jsons/MX_seq26_1_VE250.json,http://54.235.29.9/FacialAge/BNav_EC2/DepthDuration/MX_fS_VE_MTurk/MX_fS_HTML.html#88,88,1365,767,1366,768,0-31-2024,20-14-30,13,VR_target_stimuli/s23_1.3x_3.65_354.png,250,1.3x,3.65,1,4620,250,meters,jsons/MX_seq26_1_VE250.json,279113,553856,48,Man
13,301219,final-intermixed-textured,v2,jsons/MX_seq26_1_VE250.json,http://54.235.29.9/FacialAge/BNav_EC2/DepthDuration/MX_fS_VE_MTurk/MX_fS_HTML.html#88,88,1365,767,1366,768,0-31-2024,20-14-30,14,VR_target_stimuli/s26_1x_4_433_BC.png,250,1x,4.0,1,3713,250,meters,jsons/MX_seq26_1_VE250.json,279113,553856,48,Man
14,301219,final-intermixed-textured,v2,jsons/MX_seq26_1_VE250.json,http://54.235.29.9/FacialAge/BNav_EC2/DepthDuration/MX_fS_VE_MTurk/MX_fS_HTML.html#88,88,1365,767,1366,768,0-31-2024,20-14-30,15,VR_target_stimuli/s12_0.75x_3.1_364.png,250,0.75x,3.1,1,4172,250,meters,jsons/MX_seq26_1_VE250.json,279113,553856,48,Man
15,301219,final-intermixed-textured,v2,jsons/MX_seq26_1_VE250.json,http://54.235.29.9/FacialAge/BNav_EC2/DepthDuration/MX_fS_VE_MTurk/MX_fS_HTML.html#88,88,1365,767,1366,768,0-31-2024,20-14-30,16,VR_target_stimuli/s30_1.3x_2.3_337.png,250,1.3x,2.3,1,3357,249,meters,jsons/MX_seq26_1_VE250.json,279113,553856,48,Man
16,301219,final-intermixed-textured,v2,jsons/MX_seq26_1_VE250.json,http://54.235.29.9/FacialAge/BNav_EC2/DepthDuration/MX_fS_VE_MTurk/MX_fS_HTML.html#88,88,1365,767,1366,768,0-31-2024,20-14-30,17,catch_stimuli/c1.png,250,,,3,4437,250,meters,jsons/MX_seq26_1_VE250.json,279113,553856,48,Man
17,301219,final-intermixed-textured,v2,jsons/MX_seq26_1_VE250.json,http://54.235.29.9/FacialAge/BNav_EC2/DepthDuration/MX_fS_VE_MTurk/MX_fS_HTML.html#88,88,1365,767,1366,768,0-31-2024,20-14-30,18,VR_target_stimuli/s16_1.3x_1_223_BC.png,250,1.3x,1.0,1,3950,250,meters,jsons/MX_seq26_1_VE250.json,279113,553856,48,Man
18,301219,final-intermixed-textured,v2,jsons/MX_seq26_1_VE250.json,http://54.235.29.9/FacialAge/BNav_EC2/DepthDuration/MX_fS_VE_MTurk/MX_fS_HTML.html#88,88,1365,767,1366,768,0-31-2024,20-14-30,19,VR_target_stimuli/s17_1x_1.8_291.png,250,1x,1.8,1,6531,250,meters,jsons/MX_seq26_1_VE250.json,279113,553856,48,Man
19,301219,final-intermixed-textured,v2,jsons/MX_seq26_1_VE250.json,http://54.235.29.9/FacialAge/BNav_EC2/DepthDuration/MX_fS_VE_MTurk/MX_fS_HTML.html#88,88,1365,767,1366,768,0-31-2024,20-14-30,20,VR_target_stimuli/s5_0.75x_4_375_BC.png,250,0.75x,4.0,2,3987,250,meters,jsons/MX_seq26_1_VE250.json,279113,553856,48,Man
20,301219,final-intermixed-textured,v2,jsons/MX_seq26_1_VE250.json,http://54.235.29.9/FacialAge/BNav_EC2/DepthDuration/MX_fS_VE_MTurk/MX_fS_HTML.html#88,88,1365,767,1366,768,0-31-2024,20-14-30,21,VR_target_stimuli/s37_1x_3.3_563_BC.png,250,1x,3.3,2,4935,249,meters,jsons/MX_seq26_1_VE250.json,279113,553856,48,Man
21,301219,final-intermixed-textured,v2,jsons/MX_seq26_1_VE250.json,http://54.235.29.9/FacialAge/BNav_EC2/DepthDuration/MX_fS_VE_MTurk/MX_fS_HTML.html#88,88,1365,767,1366,768,0-31-2024,20-14-30,22,VR_target_stimuli/s46_1.3x_2.42_354.png,250,1.3x,2.42,3,3846,249,meters,jsons/MX_seq26_1_VE250.json,279113,553856,48,Man
22,301219,final-intermixed-textured,v2,jsons/MX_seq26_1_VE250.json,http://54.235.29.9/FacialAge/BNav_EC2/DepthDuration/MX_fS_VE_MTurk/MX_fS_HTML.html#88,88,1365,767,1366,768,0-31-2024,20-14-30,23,VR_target_stimuli/s22_0.75x_4.29_348_BC.png,250,0.75x,4.29,2,4273,249,meters,jsons/MX_seq26_1_VE250.json,279113,553856,48,Man
23,301219,final-intermixed-textured,v2,jsons/MX_seq26_1_VE250.json,http://54.235.29.9/FacialAge/BNav_EC2/DepthDuration/MX_fS_VE_MTurk/MX_fS_HTML.html#88,88,1365,767,1366,768,0-31-2024,20-14-30,24,VR_target_stimuli/s42_1.3x_3.2_305_BC.png,250,1.3x,3.2,3,3703,249,meters,jsons/MX_seq26_1_VE250.json,279113,553856,48,Man
24,301219,final-intermixed-textured,v2,jsons/MX_seq26_1_VE250.json,http://54.235.29.9/FacialAge/BNav_EC2/DepthDuration/MX_fS_VE_MTurk/MX_fS_HTML.html#88,88,1365,767,1366,768,0-31-2024,20-14-30,25,VR_target_stimuli/s25_1x_1.4_290.png,250,1x,1.4,1,3521,249,meters,jsons/MX_seq26_1_VE250.json,279113,553856,48,Man
25,301219,final-intermixed-textured,v2,jsons/MX_seq26_1_VE250.json,http://54.235.29.9/FacialAge/BNav_EC2/DepthDuration/MX_fS_VE_MTurk/MX_fS_HTML.html#88,88,1365,767,1366,768,0-31-2024,20-14-30,26,catch_stimuli/c2.png,250,,,2,3795,249,meters,jsons/MX_seq26_1_VE250.json,279113,553856,48,Man
26,301219,final-intermixed-textured,v2,jsons/MX_seq26_1_VE250.json,http://54.235.29.9/FacialAge/BNav_EC2/DepthDuration/MX_fS_VE_MTurk/MX_fS_HTML.html#88,88,1365,767,1366,768,0-31-2024,20-14-30,27,VR_target_stimuli/s50_0.75x_4.53_517.png,250,0.75x,4.53,1,3674,249,meters,jsons/MX_seq26_1_VE250.json,279113,553856,48,Man
27,301219,final-intermixed-textured,v2,jsons/MX_seq26_1_VE250.json,http://54.235.29.9/FacialAge/BNav_EC2/DepthDuration/MX_fS_VE_MTurk/MX_fS_HTML.html#88,88,1365,767,1366,768,0-31-2024,20-14-30,28,VR_target_stimuli/s53_0.75x_1.6_403_BC.png,250,0.75x,1.6,1,3610,249,meters,jsons/MX_seq26_1_VE250.json,279113,553856,48,Man
28,301219,final-intermixed-textured,v2,jsons/MX_seq26_1_VE250.json,http://54.235.29.9/FacialAge/BNav_EC2/DepthDuration/MX_fS_VE_MTurk/MX_fS_HTML.html#88,88,1365,767,1366,768,0-31-2024,20-14-30,29,VR_target_stimuli/s38_1.3x_3.55_358_BC.png,250,1.3x,3.55,2,3856,249,meters,jsons/MX_seq26_1_VE250.json,279113,553856,48,Man
29,301219,final-intermixed-textured,v2,jsons/MX_seq26_1_VE250.json,http://54.235.29.9/FacialAge/BNav_EC2/DepthDuration/MX_fS_VE_MTurk/MX_fS_HTML.html#88,88,1365,767,1366,768,0-31-2024,20-14-30,30,VR_target_stimuli/s9_1x_1.2_263_BC.png,250,1x,1.2,1,3775,249,meters,jsons/MX_seq26_1_VE250.json,279113,553856,48,Man
30,301219,final-intermixed-textured,v2,jsons/MX_seq26_1_VE250.json,http://54.235.29.9/FacialAge/BNav_EC2/DepthDuration/MX_fS_VE_MTurk/MX_fS_HTML.html#88,88,1365,767,1366,768,0-31-2024,20-14-30,31,VR_target_stimuli/s44_0.75x_4.4_314.png,250,0.75x,4.4,2,9260,249,meters,jsons/MX_seq26_1_VE250.json,279113,553856,48,Man
31,301219,final-intermixed-textured,v2,jsons/MX_seq26_1_VE250.json,http://54.235.29.9/FacialAge/BNav_EC2/DepthDuration/MX_fS_VE_MTurk/MX_fS_HTML.html#88,88,1365,767,1366,768,0-31-2024,20-14-30,32,VR_target_stimuli/s3_1x_5_385.png,250,1x,5.0,4,4357,249,meters,jsons/MX_seq26_1_VE250.json,279113,553856,48,Man
32,301219,final-intermixed-textured,v2,jsons/MX_seq26_1_VE250.json,http://54.235.29.9/FacialAge/BNav_EC2/DepthDuration/MX_fS_VE_MTurk/MX_fS_HTML.html#88,88,1365,767,1366,768,0-31-2024,20-14-30,33,VR_target_stimuli/s1_1.3x_1.7_261.png,250,1.3x,1.7,1,3854,249,meters,jsons/MX_seq26_1_VE250.json,279113,553856,48,Man
33,301219,final-intermixed-textured,v2,jsons/MX_seq26_1_VE250.json,http://54.235.29.9/FacialAge/BNav_EC2/DepthDuration/MX_fS_VE_MTurk/MX_fS_HTML.html#88,88,1365,767,1366,768,0-31-2024,20-14-30,34,catch_stimuli/c3.png,250,,,0,5108,250,meters,jsons/MX_seq26_1_VE250.json,279113,553856,48,Man
34,301219,final-intermixed-textured,v2,jsons/MX_seq26_1_VE250.json,http://54.235.29.9/FacialAge/BNav_EC2/DepthDuration/MX_fS_VE_MTurk/MX_fS_HTML.html#88,88,1365,767,1366,768,0-31-2024,20-14-30,35,VR_target_stimuli/s11_1x_5_361.png,250,1x,5.0,3,3764,250,meters,jsons/MX_seq26_1_VE250.json,279113,553856,48,Man
35,301219,final-intermixed-textured,v2,jsons/MX_seq26_1_VE250.json,http://54.235.29.9/FacialAge/BNav_EC2/DepthDuration/MX_fS_VE_MTurk/MX_fS_HTML.html#88,88,1365,767,1366,768,0-31-2024,20-14-30,36,VR_target_stimuli/s2_0.75x_2.7_384_BC.png,250,0.75x,2.7,1,5169,249,meters,jsons/MX_seq26_1_VE250.json,279113,553856,48,Man
36,301219,final-intermixed-textured,v2,jsons/MX_seq26_1_VE250.json,http://54.235.29.9/FacialAge/BNav_EC2/DepthDuration/MX_fS_VE_MTurk/MX_fS_HTML.html#88,88,1365,767,1366,768,0-31-2024,20-14-30,37,VR_target_stimuli/s6_1.3x_2.1_298_BC.png,250,1.3x,2.1,1,3356,249,meters,jsons/MX_seq26_1_VE250.json,279113,553856,48,Man
37,301219,final-intermixed-textured,v2,jsons/MX_seq26_1_VE250.json,http://54.235.29.9/FacialAge/BNav_EC2/DepthDuration/MX_fS_VE_MTurk/MX_fS_HTML.html#88,88,1365,767,1366,768,0-31-2024,20-14-30,38,VR_target_stimuli/s0_1.3x_2.6_356.png,250,1.3x,2.6,2,3387,249,meters,jsons/MX_seq26_1_VE250.json,279113,553856,48,Man
38,301219,final-intermixed-textured,v2,jsons/MX_seq26_1_VE250.json,http://54.235.29.9/FacialAge/BNav_EC2/DepthDuration/MX_fS_VE_MTurk/MX_fS_HTML.html#88,88,1365,767,1366,768,0-31-2024,20-14-30,39,VR_target_stimuli/s34_1x_2.8_283_BC.png,250,1x,2.8,3,3295,249,meters,jsons/MX_seq26_1_VE250.json,279113,553856,48,Man
39,301219,final-intermixed-textured,v2,jsons/MX_seq26_1_VE250.json,http://54.235.29.9/FacialAge/BNav_EC2/DepthDuration/MX_fS_VE_MTurk/MX_fS_HTML.html#88,88,1365,767,1366,768,0-31-2024,20-14-30,40,VR_target_stimuli/s13_0.75x_2.4_308.png,250,0.75x,2.4,2,4813,250,meters,jsons/MX_seq26_1_VE250.json,279113,553856,48,Man
40,301219,final-intermixed-textured,v2,jsons/MX_seq26_1_VE250.json,http://54.235.29.9/FacialAge/BNav_EC2/DepthDuration/MX_fS_VE_MTurk/MX_fS_HTML.html#88,88,1365,767,1366,768,0-31-2024,20-14-30,41,VR_target_stimuli/s14_1x_ 3.83_357.png,250,1x,3.83,3,3568,249,meters,jsons/MX_seq26_1_VE250.json,279113,553856,48,Man
41,301219,final-intermixed-textured,v2,jsons/MX_seq26_1_VE250.json,http://54.235.29.9/FacialAge/BNav_EC2/DepthDuration/MX_fS_VE_MTurk/MX_fS_HTML.html#88,88,1365,767,1366,768,0-31-2024,20-14-30,42,VR_target_stimuli/s47_1.3x_3.45_373.png,250,1.3x,3.45,1,3388,249,meters,jsons/MX_seq26_1_VE250.json,279113,553856,48,Man
42,301219,final-intermixed-textured,v2,jsons/MX_seq26_1_VE250.json,http://54.235.29.9/FacialAge/BNav_EC2/DepthDuration/MX_fS_VE_MTurk/MX_fS_HTML.html#88,88,1365,767,1366,768,0-31-2024,20-14-30,43,VR_target_stimuli/s29_0.75x_1.3_246.png,250,0.75x,1.3,1,3152,250,meters,jsons/MX_seq26_1_VE250.json,279113,553856,48,Man
43,301219,final-intermixed-textured,v2,jsons/MX_seq26_1_VE250.json,http://54.235.29.9/FacialAge/BNav_EC2/DepthDuration/MX_fS_VE_MTurk/MX_fS_HTML.html#88,88,1365,767,1366,768,0-31-2024,20-14-30,44,VR_target_stimuli/s28_1.3x_3.2_365_BC.png,250,1.3x,3.2,2,3357,249,meters,jsons/MX_seq26_1_VE250.json,279113,553856,48,Man
44,301219,final-intermixed-textured,v2,jsons/MX_seq26_1_VE250.json,http://54.235.29.9/FacialAge/BNav_EC2/DepthDuration/MX_fS_VE_MTurk/MX_fS_HTML.html#88,88,1365,767,1366,768,0-31-2024,20-14-30,45,catch_stimuli/c4.png,250,,,2,4060,249,meters,jsons/MX_seq26_1_VE250.json,279113,553856,48,Man
45,301219,final-intermixed-textured,v2,jsons/MX_seq26_1_VE250.json,http://54.235.29.9/FacialAge/BNav_EC2/DepthDuration/MX_fS_VE_MTurk/MX_fS_HTML.html#88,88,1365,767,1366,768,0-31-2024,20-14-30,46,VR_target_stimuli/s48_1x_2.55_256_BC.png,250,1x,2.55,2,3468,249,meters,jsons/MX_seq26_1_VE250.json,279113,553856,48,Man
46,301219,final-intermixed-textured,v2,jsons/MX_seq26_1_VE250.json,http://54.235.29.9/FacialAge/BNav_EC2/DepthDuration/MX_fS_VE_MTurk/MX_fS_HTML.html#88,88,1365,767,1366,768,0-31-2024,20-14-30,47,VR_target_stimuli/s19_0.75x_1.21_257_BC.png,250,0.75x,1.21,1,3234,249,meters,jsons/MX_seq26_1_VE250.json,279113,553856,48,Man
47,301219,final-intermixed-textured,v2,jsons/MX_seq26_1_VE250.json,http://54.235.29.9/FacialAge/BNav_EC2/DepthDuration/MX_fS_VE_MTurk/MX_fS_HTML.html#88,88,1365,767,1366,768,0-31-2024,20-14-30,48,VR_target_stimuli/s21_0.75x_4.22_374_BC.png,250,0.75x,4.22,3,3622,249,meters,jsons/MX_seq26_1_VE250.json,279113,553856,48,Man
48,301219,final-intermixed-textured,v2,jsons/MX_seq26_1_VE250.json,http://54.235.29.9/FacialAge/BNav_EC2/DepthDuration/MX_fS_VE_MTurk/MX_fS_HTML.html#88,88,1365,767,1366,768,0-31-2024,20-14-30,49,VR_target_stimuli/s8_1.3x_3.1_345.png,250,1.3x,3.1,4,3673,249,meters,jsons/MX_seq26_1_VE250.json,279113,553856,48,Man
49,301219,final-intermixed-textured,v2,jsons/MX_seq26_1_VE250.json,http://54.235.29.9/FacialAge/BNav_EC2/DepthDuration/MX_fS_VE_MTurk/MX_fS_HTML.html#88,88,1365,767,1366,768,0-31-2024,20-14-30,50,VR_target_stimuli/s27_1x_1.76_248_BC.png,250,1x,1.76,3,4151,249,meters,jsons/MX_seq26_1_VE250.json,279113,553856,48,Man
50,301219,final-intermixed-textured,v2,jsons/MX_seq26_1_VE250.json,http://54.235.29.9/FacialAge/BNav_EC2/DepthDuration/MX_fS_VE_MTurk/MX_fS_HTML.html#88,88,1365,767,1366,768,0-31-2024,20-14-30,51,VR_target_stimuli/s15_1.3x_4.2_389_BC.png,250,1.3x,4.2,3,3123,250,meters,jsons/MX_seq26_1_VE250.json,279113,553856,48,Man
51,301219,final-intermixed-textured,v2,jsons/MX_seq26_1_VE250.json,http://54.235.29.9/FacialAge/BNav_EC2/DepthDuration/MX_fS_VE_MTurk/MX_fS_HTML.html#88,88,1365,767,1366,768,0-31-2024,20-14-30,52,VR_target_stimuli/s4_0.75x_1.4_301.png,250,0.75x,1.4,1,3386,249,meters,jsons/MX_seq26_1_VE250.json,279113,553856,48,Man
52,301219,final-intermixed-textured,v2,jsons/MX_seq26_1_VE250.json,http://54.235.29.9/FacialAge/BNav_EC2/DepthDuration/MX_fS_VE_MTurk/MX_fS_HTML.html#88,88,1365,767,1366,768,0-31-2024,20-14-30,53,catch_stimuli/c5.png,250,,,1,3663,249,meters,jsons/MX_seq26_1_VE250.json,279113,553856,48,Man
53,301219,final-intermixed-textured,v2,jsons/MX_seq26_1_VE250.json,http://54.235.29.9/FacialAge/BNav_EC2/DepthDuration/MX_fS_VE_MTurk/MX_fS_HTML.html#88,88,1365,767,1366,768,0-31-2024,20-14-30,54,VR_target_stimuli/s35_1x_2_331.png,250,1x,2.0,2,3071,250,meters,jsons/MX_seq26_1_VE250.json,279113,553856,48,Man
54,301219,final-intermixed-textured,v2,jsons/MX_seq26_1_VE250.json,http://54.235.29.9/FacialAge/BNav_EC2/DepthDuration/MX_fS_VE_MTurk/MX_fS_HTML.html#88,88,1365,767,1366,768,0-31-2024,20-14-30,55,VR_target_stimuli/s49_0.75x_4.67_328_BC.png,250,0.75x,4.67,5,4640,249,meters,jsons/MX_seq26_1_VE250.json,279113,553856,48,Man
55,301219,final-intermixed-textured,v2,jsons/MX_seq26_1_VE250.json,http://54.235.29.9/FacialAge/BNav_EC2/DepthDuration/MX_fS_VE_MTurk/MX_fS_HTML.html#88,88,1365,767,1366,768,0-31-2024,20-14-30,56,VR_target_stimuli/s7_1.3x_1.5_256.png,250,1.3x,1.5,1,3326,249,meters,jsons/MX_seq26_1_VE250.json,279113,553856,48,Man
56,301219,final-intermixed-textured,v2,jsons/MX_seq26_1_VE250.json,http://54.235.29.9/FacialAge/BNav_EC2/DepthDuration/MX_fS_VE_MTurk/MX_fS_HTML.html#88,88,1365,767,1366,768,0-31-2024,20-14-30,57,VR_target_stimuli/s20_1x_4.99_398_BC.png,250,1x,4.99,3,3571,249,meters,jsons/MX_seq26_1_VE250.json,279113,553856,48,Man
57,301219,final-intermixed-textured,v2,jsons/MX_seq26_1_VE250.json,http://54.235.29.9/FacialAge/BNav_EC2/DepthDuration/MX_fS_VE_MTurk/MX_fS_HTML.html#88,88,1365,767,1366,768,0-31-2024,20-14-30,58,VR_target_stimuli/s31_1x_4.96_333.png,250,1x,4.96,3,4029,249,meters,jsons/MX_seq26_1_VE250.json,279113,553856,48,Man
58,301219,final-intermixed-textured,v2,jsons/MX_seq26_1_VE250.json,http://54.235.29.9/FacialAge/BNav_EC2/DepthDuration/MX_fS_VE_MTurk/MX_fS_HTML.html#88,88,1365,767,1366,768,0-31-2024,20-14-30,59,VR_target_stimuli/s33_0.75x_3.1_361.png,250,0.75x,3.1,3,3723,250,meters,jsons/MX_seq26_1_VE250.json,279113,553856,48,Man
59,301219,final-intermixed-textured,v2,jsons/MX_seq26_1_VE250.json,http://54.235.29.9/FacialAge/BNav_EC2/DepthDuration/MX_fS_VE_MTurk/MX_fS_HTML.html#88,88,1365,767,1366,768,0-31-2024,20-14-30,60,VR_target_stimuli/s52_1.3x_3.2_280_BC.png,250,1.3x,3.2,3,4243,249,meters,jsons/MX_seq26_1_VE250.json,279113,553856,48,Man
