,subjID,experimentName,versionName,sequenceName,url,selected_row,windowWidth,windowHeight,screenWidth,screenHeight,startDate,startTime,trial,stimulus,duration,scale,actual_depth,depth_estimate,trial_RT,log_sceneDuration,unitSelection,seq_filepath,experimentTime,totalTime,age,gender
0,356537,final-intermixed-textured,v2,jsons/MX_seq15_1_VE250.json,http://54.235.29.9/FacialAge/BNav_EC2/DepthDuration/MX_fS_VE_MTurk/MX_fS_HTML.html#237,237,1280,559,1280,720,0-31-2024,17-33-1,1,VR_target_stimuli/s8_1.3x_3.1_345.png,250,1.3x,3.1,0.0,5340,262,meters,jsons/MX_seq15_1_VE250.json,548449,870451,24,Woman
1,356537,final-intermixed-textured,v2,jsons/MX_seq15_1_VE250.json,http://54.235.29.9/FacialAge/BNav_EC2/DepthDuration/MX_fS_VE_MTurk/MX_fS_HTML.html#237,237,1280,559,1280,720,0-31-2024,17-33-1,2,VR_target_stimuli/s27_0.75x_1.76_243.png,250,0.75x,1.76,1.5,10759,247,meters,jsons/MX_seq15_1_VE250.json,548449,870451,24,Woman
2,356537,final-intermixed-textured,v2,jsons/MX_seq15_1_VE250.json,http://54.235.29.9/FacialAge/BNav_EC2/DepthDuration/MX_fS_VE_MTurk/MX_fS_HTML.html#237,237,1280,559,1280,720,0-31-2024,17-33-1,3,VR_target_stimuli/s15_1x_4.2_390.png,250,1x,4.2,1.5,14547,260,meters,jsons/MX_seq15_1_VE250.json,548449,870451,24,Woman
3,356537,final-intermixed-textured,v2,jsons/MX_seq15_1_VE250.json,http://54.235.29.9/FacialAge/BNav_EC2/DepthDuration/MX_fS_VE_MTurk/MX_fS_HTML.html#237,237,1280,559,1280,720,0-31-2024,17-33-1,4,VR_target_stimuli/s4_0.75x_1.4_301_BC.png,250,0.75x,1.4,0.0,11418,247,meters,jsons/MX_seq15_1_VE250.json,548449,870451,24,Woman
4,356537,final-intermixed-textured,v2,jsons/MX_seq15_1_VE250.json,http://54.235.29.9/FacialAge/BNav_EC2/DepthDuration/MX_fS_VE_MTurk/MX_fS_HTML.html#237,237,1280,559,1280,720,0-31-2024,17-33-1,5,VR_target_stimuli/s35_1.3x_2_338_BC.png,250,1.3x,2.0,1.0,11857,248,meters,jsons/MX_seq15_1_VE250.json,548449,870451,24,Woman
5,356537,final-intermixed-textured,v2,jsons/MX_seq15_1_VE250.json,http://54.235.29.9/FacialAge/BNav_EC2/DepthDuration/MX_fS_VE_MTurk/MX_fS_HTML.html#237,237,1280,559,1280,720,0-31-2024,17-33-1,6,VR_target_stimuli/s49_1x_4.67_341_BC.png,250,1x,4.67,0.0,9781,245,meters,jsons/MX_seq15_1_VE250.json,548449,870451,24,Woman
6,356537,final-intermixed-textured,v2,jsons/MX_seq15_1_VE250.json,http://54.235.29.9/FacialAge/BNav_EC2/DepthDuration/MX_fS_VE_MTurk/MX_fS_HTML.html#237,237,1280,559,1280,720,0-31-2024,17-33-1,7,catch_stimuli/c0.png,250,,,1.0,6974,246,meters,jsons/MX_seq15_1_VE250.json,548449,870451,24,Woman
7,356537,final-intermixed-textured,v2,jsons/MX_seq15_1_VE250.json,http://54.235.29.9/FacialAge/BNav_EC2/DepthDuration/MX_fS_VE_MTurk/MX_fS_HTML.html#237,237,1280,559,1280,720,0-31-2024,17-33-1,8,VR_target_stimuli/s7_1x_1.5_255.png,250,1x,1.5,1.5,8810,247,meters,jsons/MX_seq15_1_VE250.json,548449,870451,24,Woman
8,356537,final-intermixed-textured,v2,jsons/MX_seq15_1_VE250.json,http://54.235.29.9/FacialAge/BNav_EC2/DepthDuration/MX_fS_VE_MTurk/MX_fS_HTML.html#237,237,1280,559,1280,720,0-31-2024,17-33-1,9,VR_target_stimuli/s20_0.75x_4.99_390.png,250,0.75x,4.99,1.7,15602,247,meters,jsons/MX_seq15_1_VE250.json,548449,870451,24,Woman
9,356537,final-intermixed-textured,v2,jsons/MX_seq15_1_VE250.json,http://54.235.29.9/FacialAge/BNav_EC2/DepthDuration/MX_fS_VE_MTurk/MX_fS_HTML.html#237,237,1280,559,1280,720,0-31-2024,17-33-1,10,VR_target_stimuli/s31_1.3x_4.96_342.png,250,1.3x,4.96,0.0,7534,248,meters,jsons/MX_seq15_1_VE250.json,548449,870451,24,Woman
10,356537,final-intermixed-textured,v2,jsons/MX_seq15_1_VE250.json,http://54.235.29.9/FacialAge/BNav_EC2/DepthDuration/MX_fS_VE_MTurk/MX_fS_HTML.html#237,237,1280,559,1280,720,0-31-2024,17-33-1,11,VR_target_stimuli/s33_0.75x_3.1_361_BC.png,250,0.75x,3.1,0.0,11383,262,meters,jsons/MX_seq15_1_VE250.json,548449,870451,24,Woman
11,356537,final-intermixed-textured,v2,jsons/MX_seq15_1_VE250.json,http://54.235.29.9/FacialAge/BNav_EC2/DepthDuration/MX_fS_VE_MTurk/MX_fS_HTML.html#237,237,1280,559,1280,720,0-31-2024,17-33-1,12,VR_target_stimuli/s52_1x_3.2_275_BC.png,250,1x,3.2,0.2,8126,248,meters,jsons/MX_seq15_1_VE250.json,548449,870451,24,Woman
12,356537,final-intermixed-textured,v2,jsons/MX_seq15_1_VE250.json,http://54.235.29.9/FacialAge/BNav_EC2/DepthDuration/MX_fS_VE_MTurk/MX_fS_HTML.html#237,237,1280,559,1280,720,0-31-2024,17-33-1,13,VR_target_stimuli/s32_1.3x_1.5_224_BC.png,250,1.3x,1.5,0.0,4144,248,meters,jsons/MX_seq15_1_VE250.json,548449,870451,24,Woman
13,356537,final-intermixed-textured,v2,jsons/MX_seq15_1_VE250.json,http://54.235.29.9/FacialAge/BNav_EC2/DepthDuration/MX_fS_VE_MTurk/MX_fS_HTML.html#237,237,1280,559,1280,720,0-31-2024,17-33-1,14,VR_target_stimuli/s18_1x_2.25_353_BC.png,250,1x,2.25,1.0,10371,249,meters,jsons/MX_seq15_1_VE250.json,548449,870451,24,Woman
14,356537,final-intermixed-textured,v2,jsons/MX_seq15_1_VE250.json,http://54.235.29.9/FacialAge/BNav_EC2/DepthDuration/MX_fS_VE_MTurk/MX_fS_HTML.html#237,237,1280,559,1280,720,0-31-2024,17-33-1,15,VR_target_stimuli/s39_0.75x_1_205_BC.png,250,0.75x,1.0,1.5,8803,249,meters,jsons/MX_seq15_1_VE250.json,548449,870451,24,Woman
15,356537,final-intermixed-textured,v2,jsons/MX_seq15_1_VE250.json,http://54.235.29.9/FacialAge/BNav_EC2/DepthDuration/MX_fS_VE_MTurk/MX_fS_HTML.html#237,237,1280,559,1280,720,0-31-2024,17-33-1,16,VR_target_stimuli/s51_1.3x_3.64_479.png,250,1.3x,3.64,1.6,9706,250,meters,jsons/MX_seq15_1_VE250.json,548449,870451,24,Woman
16,356537,final-intermixed-textured,v2,jsons/MX_seq15_1_VE250.json,http://54.235.29.9/FacialAge/BNav_EC2/DepthDuration/MX_fS_VE_MTurk/MX_fS_HTML.html#237,237,1280,559,1280,720,0-31-2024,17-33-1,17,catch_stimuli/c1.png,250,,,1.5,11830,248,meters,jsons/MX_seq15_1_VE250.json,548449,870451,24,Woman
17,356537,final-intermixed-textured,v2,jsons/MX_seq15_1_VE250.json,http://54.235.29.9/FacialAge/BNav_EC2/DepthDuration/MX_fS_VE_MTurk/MX_fS_HTML.html#237,237,1280,559,1280,720,0-31-2024,17-33-1,18,VR_target_stimuli/s43_1.3x_2.2_363_BC.png,250,1.3x,2.2,1.5,13885,247,meters,jsons/MX_seq15_1_VE250.json,548449,870451,24,Woman
18,356537,final-intermixed-textured,v2,jsons/MX_seq15_1_VE250.json,http://54.235.29.9/FacialAge/BNav_EC2/DepthDuration/MX_fS_VE_MTurk/MX_fS_HTML.html#237,237,1280,559,1280,720,0-31-2024,17-33-1,19,VR_target_stimuli/s24_1x_3.3_349.png,250,1x,3.3,0.75,13675,247,meters,jsons/MX_seq15_1_VE250.json,548449,870451,24,Woman
19,356537,final-intermixed-textured,v2,jsons/MX_seq15_1_VE250.json,http://54.235.29.9/FacialAge/BNav_EC2/DepthDuration/MX_fS_VE_MTurk/MX_fS_HTML.html#237,237,1280,559,1280,720,0-31-2024,17-33-1,20,VR_target_stimuli/s10_0.75x_2.7_321.png,250,0.75x,2.7,1.5,7244,252,meters,jsons/MX_seq15_1_VE250.json,548449,870451,24,Woman
20,356537,final-intermixed-textured,v2,jsons/MX_seq15_1_VE250.json,http://54.235.29.9/FacialAge/BNav_EC2/DepthDuration/MX_fS_VE_MTurk/MX_fS_HTML.html#237,237,1280,559,1280,720,0-31-2024,17-33-1,21,VR_target_stimuli/s36_1x_4.1_423_BC.png,250,1x,4.1,1.5,9402,246,meters,jsons/MX_seq15_1_VE250.json,548449,870451,24,Woman
21,356537,final-intermixed-textured,v2,jsons/MX_seq15_1_VE250.json,http://54.235.29.9/FacialAge/BNav_EC2/DepthDuration/MX_fS_VE_MTurk/MX_fS_HTML.html#237,237,1280,559,1280,720,0-31-2024,17-33-1,22,VR_target_stimuli/s40_1.3x_1.2_332_BC.png,250,1.3x,1.2,0.75,16827,248,meters,jsons/MX_seq15_1_VE250.json,548449,870451,24,Woman
22,356537,final-intermixed-textured,v2,jsons/MX_seq15_1_VE250.json,http://54.235.29.9/FacialAge/BNav_EC2/DepthDuration/MX_fS_VE_MTurk/MX_fS_HTML.html#237,237,1280,559,1280,720,0-31-2024,17-33-1,23,VR_target_stimuli/s41_0.75x_2.1_281.png,250,0.75x,2.1,0.75,14263,249,meters,jsons/MX_seq15_1_VE250.json,548449,870451,24,Woman
23,356537,final-intermixed-textured,v2,jsons/MX_seq15_1_VE250.json,http://54.235.29.9/FacialAge/BNav_EC2/DepthDuration/MX_fS_VE_MTurk/MX_fS_HTML.html#237,237,1280,559,1280,720,0-31-2024,17-33-1,24,VR_target_stimuli/s45_1.3x_3.5_377.png,250,1.3x,3.5,1.2,12084,249,meters,jsons/MX_seq15_1_VE250.json,548449,870451,24,Woman
24,356537,final-intermixed-textured,v2,jsons/MX_seq15_1_VE250.json,http://54.235.29.9/FacialAge/BNav_EC2/DepthDuration/MX_fS_VE_MTurk/MX_fS_HTML.html#237,237,1280,559,1280,720,0-31-2024,17-33-1,25,VR_target_stimuli/s23_1x_3.65_353.png,250,1x,3.65,1.2,7927,187,meters,jsons/MX_seq15_1_VE250.json,548449,870451,24,Woman
25,356537,final-intermixed-textured,v2,jsons/MX_seq15_1_VE250.json,http://54.235.29.9/FacialAge/BNav_EC2/DepthDuration/MX_fS_VE_MTurk/MX_fS_HTML.html#237,237,1280,559,1280,720,0-31-2024,17-33-1,26,catch_stimuli/c2.png,250,,,0.0,6677,249,meters,jsons/MX_seq15_1_VE250.json,548449,870451,24,Woman
26,356537,final-intermixed-textured,v2,jsons/MX_seq15_1_VE250.json,http://54.235.29.9/FacialAge/BNav_EC2/DepthDuration/MX_fS_VE_MTurk/MX_fS_HTML.html#237,237,1280,559,1280,720,0-31-2024,17-33-1,27,VR_target_stimuli/s26_0.75x_4_430_BC.png,250,0.75x,4.0,1.5,11682,250,meters,jsons/MX_seq15_1_VE250.json,548449,870451,24,Woman
27,356537,final-intermixed-textured,v2,jsons/MX_seq15_1_VE250.json,http://54.235.29.9/FacialAge/BNav_EC2/DepthDuration/MX_fS_VE_MTurk/MX_fS_HTML.html#237,237,1280,559,1280,720,0-31-2024,17-33-1,28,VR_target_stimuli/s12_0.75x_3.1_364.png,250,0.75x,3.1,1.5,7075,247,meters,jsons/MX_seq15_1_VE250.json,548449,870451,24,Woman
28,356537,final-intermixed-textured,v2,jsons/MX_seq15_1_VE250.json,http://54.235.29.9/FacialAge/BNav_EC2/DepthDuration/MX_fS_VE_MTurk/MX_fS_HTML.html#237,237,1280,559,1280,720,0-31-2024,17-33-1,29,VR_target_stimuli/s30_1.3x_2.3_337.png,250,1.3x,2.3,1.2,7886,251,meters,jsons/MX_seq15_1_VE250.json,548449,870451,24,Woman
29,356537,final-intermixed-textured,v2,jsons/MX_seq15_1_VE250.json,http://54.235.29.9/FacialAge/BNav_EC2/DepthDuration/MX_fS_VE_MTurk/MX_fS_HTML.html#237,237,1280,559,1280,720,0-31-2024,17-33-1,30,VR_target_stimuli/s16_1x_1_219_BC.png,250,1x,1.0,1.2,14555,262,meters,jsons/MX_seq15_1_VE250.json,548449,870451,24,Woman
30,356537,final-intermixed-textured,v2,jsons/MX_seq15_1_VE250.json,http://54.235.29.9/FacialAge/BNav_EC2/DepthDuration/MX_fS_VE_MTurk/MX_fS_HTML.html#237,237,1280,559,1280,720,0-31-2024,17-33-1,31,VR_target_stimuli/s17_0.75x_1.8_285_BC.png,250,0.75x,1.8,1.5,9599,246,meters,jsons/MX_seq15_1_VE250.json,548449,870451,24,Woman
31,356537,final-intermixed-textured,v2,jsons/MX_seq15_1_VE250.json,http://54.235.29.9/FacialAge/BNav_EC2/DepthDuration/MX_fS_VE_MTurk/MX_fS_HTML.html#237,237,1280,559,1280,720,0-31-2024,17-33-1,32,VR_target_stimuli/s5_1x_4_378.png,250,1x,4.0,1.5,6351,250,meters,jsons/MX_seq15_1_VE250.json,548449,870451,24,Woman
32,356537,final-intermixed-textured,v2,jsons/MX_seq15_1_VE250.json,http://54.235.29.9/FacialAge/BNav_EC2/DepthDuration/MX_fS_VE_MTurk/MX_fS_HTML.html#237,237,1280,559,1280,720,0-31-2024,17-33-1,33,VR_target_stimuli/s37_1.3x_3.3_555_BC.png,250,1.3x,3.3,2.5,9087,250,meters,jsons/MX_seq15_1_VE250.json,548449,870451,24,Woman
33,356537,final-intermixed-textured,v2,jsons/MX_seq15_1_VE250.json,http://54.235.29.9/FacialAge/BNav_EC2/DepthDuration/MX_fS_VE_MTurk/MX_fS_HTML.html#237,237,1280,559,1280,720,0-31-2024,17-33-1,34,catch_stimuli/c3.png,250,,,0.0,6708,250,meters,jsons/MX_seq15_1_VE250.json,548449,870451,24,Woman
34,356537,final-intermixed-textured,v2,jsons/MX_seq15_1_VE250.json,http://54.235.29.9/FacialAge/BNav_EC2/DepthDuration/MX_fS_VE_MTurk/MX_fS_HTML.html#237,237,1280,559,1280,720,0-31-2024,17-33-1,35,VR_target_stimuli/s46_1x_2.42_348.png,250,1x,2.42,1.2,9390,249,meters,jsons/MX_seq15_1_VE250.json,548449,870451,24,Woman
35,356537,final-intermixed-textured,v2,jsons/MX_seq15_1_VE250.json,http://54.235.29.9/FacialAge/BNav_EC2/DepthDuration/MX_fS_VE_MTurk/MX_fS_HTML.html#237,237,1280,559,1280,720,0-31-2024,17-33-1,36,VR_target_stimuli/s22_0.75x_4.29_348.png,250,0.75x,4.29,0.5,7897,249,meters,jsons/MX_seq15_1_VE250.json,548449,870451,24,Woman
36,356537,final-intermixed-textured,v2,jsons/MX_seq15_1_VE250.json,http://54.235.29.9/FacialAge/BNav_EC2/DepthDuration/MX_fS_VE_MTurk/MX_fS_HTML.html#237,237,1280,559,1280,720,0-31-2024,17-33-1,37,VR_target_stimuli/s42_1.3x_3.2_305_BC.png,250,1.3x,3.2,0.5,6742,244,meters,jsons/MX_seq15_1_VE250.json,548449,870451,24,Woman
37,356537,final-intermixed-textured,v2,jsons/MX_seq15_1_VE250.json,http://54.235.29.9/FacialAge/BNav_EC2/DepthDuration/MX_fS_VE_MTurk/MX_fS_HTML.html#237,237,1280,559,1280,720,0-31-2024,17-33-1,38,VR_target_stimuli/s25_1.3x_1.4_299.png,250,1.3x,1.4,1.0,5137,248,meters,jsons/MX_seq15_1_VE250.json,548449,870451,24,Woman
38,356537,final-intermixed-textured,v2,jsons/MX_seq15_1_VE250.json,http://54.235.29.9/FacialAge/BNav_EC2/DepthDuration/MX_fS_VE_MTurk/MX_fS_HTML.html#237,237,1280,559,1280,720,0-31-2024,17-33-1,39,VR_target_stimuli/s50_1x_4.53_518_BC.png,250,1x,4.53,1.7,7923,247,meters,jsons/MX_seq15_1_VE250.json,548449,870451,24,Woman
39,356537,final-intermixed-textured,v2,jsons/MX_seq15_1_VE250.json,http://54.235.29.9/FacialAge/BNav_EC2/DepthDuration/MX_fS_VE_MTurk/MX_fS_HTML.html#237,237,1280,559,1280,720,0-31-2024,17-33-1,40,VR_target_stimuli/s53_0.75x_1.6_403_BC.png,250,0.75x,1.6,1.7,6605,251,meters,jsons/MX_seq15_1_VE250.json,548449,870451,24,Woman
40,356537,final-intermixed-textured,v2,jsons/MX_seq15_1_VE250.json,http://54.235.29.9/FacialAge/BNav_EC2/DepthDuration/MX_fS_VE_MTurk/MX_fS_HTML.html#237,237,1280,559,1280,720,0-31-2024,17-33-1,41,VR_target_stimuli/s38_1x_3.55_353.png,250,1x,3.55,0.5,15605,260,meters,jsons/MX_seq15_1_VE250.json,548449,870451,24,Woman
41,356537,final-intermixed-textured,v2,jsons/MX_seq15_1_VE250.json,http://54.235.29.9/FacialAge/BNav_EC2/DepthDuration/MX_fS_VE_MTurk/MX_fS_HTML.html#237,237,1280,559,1280,720,0-31-2024,17-33-1,42,VR_target_stimuli/s9_1.3x_1.2_276_BC.png,250,1.3x,1.2,1.2,8003,248,meters,jsons/MX_seq15_1_VE250.json,548449,870451,24,Woman
42,356537,final-intermixed-textured,v2,jsons/MX_seq15_1_VE250.json,http://54.235.29.9/FacialAge/BNav_EC2/DepthDuration/MX_fS_VE_MTurk/MX_fS_HTML.html#237,237,1280,559,1280,720,0-31-2024,17-33-1,43,VR_target_stimuli/s44_0.75x_4.4_314.png,250,0.75x,4.4,0.0,4298,246,meters,jsons/MX_seq15_1_VE250.json,548449,870451,24,Woman
43,356537,final-intermixed-textured,v2,jsons/MX_seq15_1_VE250.json,http://54.235.29.9/FacialAge/BNav_EC2/DepthDuration/MX_fS_VE_MTurk/MX_fS_HTML.html#237,237,1280,559,1280,720,0-31-2024,17-33-1,44,VR_target_stimuli/s3_1.3x_5_390.png,250,1.3x,5.0,1.0,4924,246,meters,jsons/MX_seq15_1_VE250.json,548449,870451,24,Woman
44,356537,final-intermixed-textured,v2,jsons/MX_seq15_1_VE250.json,http://54.235.29.9/FacialAge/BNav_EC2/DepthDuration/MX_fS_VE_MTurk/MX_fS_HTML.html#237,237,1280,559,1280,720,0-31-2024,17-33-1,45,catch_stimuli/c4.png,250,,,0.0,5988,245,meters,jsons/MX_seq15_1_VE250.json,548449,870451,24,Woman
45,356537,final-intermixed-textured,v2,jsons/MX_seq15_1_VE250.json,http://54.235.29.9/FacialAge/BNav_EC2/DepthDuration/MX_fS_VE_MTurk/MX_fS_HTML.html#237,237,1280,559,1280,720,0-31-2024,17-33-1,46,VR_target_stimuli/s1_1x_1.7_262_BC.png,250,1x,1.7,0.5,9615,244,meters,jsons/MX_seq15_1_VE250.json,548449,870451,24,Woman
46,356537,final-intermixed-textured,v2,jsons/MX_seq15_1_VE250.json,http://54.235.29.9/FacialAge/BNav_EC2/DepthDuration/MX_fS_VE_MTurk/MX_fS_HTML.html#237,237,1280,559,1280,720,0-31-2024,17-33-1,47,VR_target_stimuli/s11_0.75x_5_359_BC.png,250,0.75x,5.0,1.0,10086,249,meters,jsons/MX_seq15_1_VE250.json,548449,870451,24,Woman
47,356537,final-intermixed-textured,v2,jsons/MX_seq15_1_VE250.json,http://54.235.29.9/FacialAge/BNav_EC2/DepthDuration/MX_fS_VE_MTurk/MX_fS_HTML.html#237,237,1280,559,1280,720,0-31-2024,17-33-1,48,VR_target_stimuli/s2_0.75x_2.7_384_BC.png,250,0.75x,2.7,1.2,5447,248,meters,jsons/MX_seq15_1_VE250.json,548449,870451,24,Woman
48,356537,final-intermixed-textured,v2,jsons/MX_seq15_1_VE250.json,http://54.235.29.9/FacialAge/BNav_EC2/DepthDuration/MX_fS_VE_MTurk/MX_fS_HTML.html#237,237,1280,559,1280,720,0-31-2024,17-33-1,49,VR_target_stimuli/s6_1.3x_2.1_298_BC.png,250,1.3x,2.1,1.5,6361,248,meters,jsons/MX_seq15_1_VE250.json,548449,870451,24,Woman
49,356537,final-intermixed-textured,v2,jsons/MX_seq15_1_VE250.json,http://54.235.29.9/FacialAge/BNav_EC2/DepthDuration/MX_fS_VE_MTurk/MX_fS_HTML.html#237,237,1280,559,1280,720,0-31-2024,17-33-1,50,VR_target_stimuli/s0_1x_2.6_351.png,250,1x,2.6,1.5,6105,248,meters,jsons/MX_seq15_1_VE250.json,548449,870451,24,Woman
50,356537,final-intermixed-textured,v2,jsons/MX_seq15_1_VE250.json,http://54.235.29.9/FacialAge/BNav_EC2/DepthDuration/MX_fS_VE_MTurk/MX_fS_HTML.html#237,237,1280,559,1280,720,0-31-2024,17-33-1,51,VR_target_stimuli/s34_1.3x_2.8_294.png,250,1.3x,2.8,0.0,5778,246,meters,jsons/MX_seq15_1_VE250.json,548449,870451,24,Woman
51,356537,final-intermixed-textured,v2,jsons/MX_seq15_1_VE250.json,http://54.235.29.9/FacialAge/BNav_EC2/DepthDuration/MX_fS_VE_MTurk/MX_fS_HTML.html#237,237,1280,559,1280,720,0-31-2024,17-33-1,52,VR_target_stimuli/s13_0.75x_2.4_308.png,250,0.75x,2.4,1.5,5891,247,meters,jsons/MX_seq15_1_VE250.json,548449,870451,24,Woman
52,356537,final-intermixed-textured,v2,jsons/MX_seq15_1_VE250.json,http://54.235.29.9/FacialAge/BNav_EC2/DepthDuration/MX_fS_VE_MTurk/MX_fS_HTML.html#237,237,1280,559,1280,720,0-31-2024,17-33-1,53,catch_stimuli/c5.png,250,,,0.0,4436,247,meters,jsons/MX_seq15_1_VE250.json,548449,870451,24,Woman
53,356537,final-intermixed-textured,v2,jsons/MX_seq15_1_VE250.json,http://54.235.29.9/FacialAge/BNav_EC2/DepthDuration/MX_fS_VE_MTurk/MX_fS_HTML.html#237,237,1280,559,1280,720,0-31-2024,17-33-1,54,VR_target_stimuli/s14_1x_ 3.83_357_BC.png,250,1x,3.83,1.2,6587,248,meters,jsons/MX_seq15_1_VE250.json,548449,870451,24,Woman
54,356537,final-intermixed-textured,v2,jsons/MX_seq15_1_VE250.json,http://54.235.29.9/FacialAge/BNav_EC2/DepthDuration/MX_fS_VE_MTurk/MX_fS_HTML.html#237,237,1280,559,1280,720,0-31-2024,17-33-1,55,VR_target_stimuli/s47_0.75x_3.45_366.png,250,0.75x,3.45,1.0,5579,251,meters,jsons/MX_seq15_1_VE250.json,548449,870451,24,Woman
55,356537,final-intermixed-textured,v2,jsons/MX_seq15_1_VE250.json,http://54.235.29.9/FacialAge/BNav_EC2/DepthDuration/MX_fS_VE_MTurk/MX_fS_HTML.html#237,237,1280,559,1280,720,0-31-2024,17-33-1,56,VR_target_stimuli/s29_1.3x_1.3_253_BC.png,250,1.3x,1.3,1.0,3795,245,meters,jsons/MX_seq15_1_VE250.json,548449,870451,24,Woman
56,356537,final-intermixed-textured,v2,jsons/MX_seq15_1_VE250.json,http://54.235.29.9/FacialAge/BNav_EC2/DepthDuration/MX_fS_VE_MTurk/MX_fS_HTML.html#237,237,1280,559,1280,720,0-31-2024,17-33-1,57,VR_target_stimuli/s28_1x_3.2_362_BC.png,250,1x,3.2,1.2,5712,251,meters,jsons/MX_seq15_1_VE250.json,548449,870451,24,Woman
57,356537,final-intermixed-textured,v2,jsons/MX_seq15_1_VE250.json,http://54.235.29.9/FacialAge/BNav_EC2/DepthDuration/MX_fS_VE_MTurk/MX_fS_HTML.html#237,237,1280,559,1280,720,0-31-2024,17-33-1,58,VR_target_stimuli/s48_1x_2.55_256.png,250,1x,2.55,0.0,4339,249,meters,jsons/MX_seq15_1_VE250.json,548449,870451,24,Woman
58,356537,final-intermixed-textured,v2,jsons/MX_seq15_1_VE250.json,http://54.235.29.9/FacialAge/BNav_EC2/DepthDuration/MX_fS_VE_MTurk/MX_fS_HTML.html#237,237,1280,559,1280,720,0-31-2024,17-33-1,59,VR_target_stimuli/s19_0.75x_1.21_257_BC.png,250,0.75x,1.21,1.2,7606,248,meters,jsons/MX_seq15_1_VE250.json,548449,870451,24,Woman
59,356537,final-intermixed-textured,v2,jsons/MX_seq15_1_VE250.json,http://54.235.29.9/FacialAge/BNav_EC2/DepthDuration/MX_fS_VE_MTurk/MX_fS_HTML.html#237,237,1280,559,1280,720,0-31-2024,17-33-1,60,VR_target_stimuli/s21_1.3x_4.22_384.png,250,1.3x,4.22,1.2,6039,247,meters,jsons/MX_seq15_1_VE250.json,548449,870451,24,Woman
