,subjID,experimentName,versionName,sequenceName,url,selected_row,windowWidth,windowHeight,screenWidth,screenHeight,startDate,startTime,trial,stimulus,duration,scale,actual_depth,depth_estimate,trial_RT,log_sceneDuration,unitSelection,seq_filepath,experimentTime,totalTime,age,gender
0,361367,final-intermixed-textured,v2,jsons/MX_seq35_0_VE250_flipped.json,http://54.235.29.9/FacialAge/BNav_EC2/DepthDuration/MX_fS_VE_MTurk/MX_fS_HTML.html#256,256,1366,768,1366,768,0-31-2024,20-10-37,1,VR_target_stimuli/s41_0.75x_2.1_281.png,250,0.75x,2.1,10,6128,248,meters,jsons/MX_seq35_0_VE250_flipped.json,342583,734093,22,Woman
1,361367,final-intermixed-textured,v2,jsons/MX_seq35_0_VE250_flipped.json,http://54.235.29.9/FacialAge/BNav_EC2/DepthDuration/MX_fS_VE_MTurk/MX_fS_HTML.html#256,256,1366,768,1366,768,0-31-2024,20-10-37,2,VR_target_stimuli/s45_1x_3.5_368_BC.png,250,1x,3.5,15,6336,252,meters,jsons/MX_seq35_0_VE250_flipped.json,342583,734093,22,Woman
2,361367,final-intermixed-textured,v2,jsons/MX_seq35_0_VE250_flipped.json,http://54.235.29.9/FacialAge/BNav_EC2/DepthDuration/MX_fS_VE_MTurk/MX_fS_HTML.html#256,256,1366,768,1366,768,0-31-2024,20-10-37,3,VR_target_stimuli/s23_1.3x_3.65_354_BC.png,250,1.3x,3.65,15,4407,252,meters,jsons/MX_seq35_0_VE250_flipped.json,342583,734093,22,Woman
3,361367,final-intermixed-textured,v2,jsons/MX_seq35_0_VE250_flipped.json,http://54.235.29.9/FacialAge/BNav_EC2/DepthDuration/MX_fS_VE_MTurk/MX_fS_HTML.html#256,256,1366,768,1366,768,0-31-2024,20-10-37,4,VR_target_stimuli/s26_1x_4_433.png,250,1x,4.0,14,4741,249,meters,jsons/MX_seq35_0_VE250_flipped.json,342583,734093,22,Woman
4,361367,final-intermixed-textured,v2,jsons/MX_seq35_0_VE250_flipped.json,http://54.235.29.9/FacialAge/BNav_EC2/DepthDuration/MX_fS_VE_MTurk/MX_fS_HTML.html#256,256,1366,768,1366,768,0-31-2024,20-10-37,5,VR_target_stimuli/s12_0.75x_3.1_364_BC.png,250,0.75x,3.1,20,3995,252,meters,jsons/MX_seq35_0_VE250_flipped.json,342583,734093,22,Woman
5,361367,final-intermixed-textured,v2,jsons/MX_seq35_0_VE250_flipped.json,http://54.235.29.9/FacialAge/BNav_EC2/DepthDuration/MX_fS_VE_MTurk/MX_fS_HTML.html#256,256,1366,768,1366,768,0-31-2024,20-10-37,6,VR_target_stimuli/s30_1.3x_2.3_337.png,250,1.3x,2.3,15,4459,254,meters,jsons/MX_seq35_0_VE250_flipped.json,342583,734093,22,Woman
6,361367,final-intermixed-textured,v2,jsons/MX_seq35_0_VE250_flipped.json,http://54.235.29.9/FacialAge/BNav_EC2/DepthDuration/MX_fS_VE_MTurk/MX_fS_HTML.html#256,256,1366,768,1366,768,0-31-2024,20-10-37,7,catch_stimuli/c0_BC.png,250,,,0,3664,250,meters,jsons/MX_seq35_0_VE250_flipped.json,342583,734093,22,Woman
7,361367,final-intermixed-textured,v2,jsons/MX_seq35_0_VE250_flipped.json,http://54.235.29.9/FacialAge/BNav_EC2/DepthDuration/MX_fS_VE_MTurk/MX_fS_HTML.html#256,256,1366,768,1366,768,0-31-2024,20-10-37,8,VR_target_stimuli/s16_1.3x_1_223_BC.png,250,1.3x,1.0,10,5254,274,meters,jsons/MX_seq35_0_VE250_flipped.json,342583,734093,22,Woman
8,361367,final-intermixed-textured,v2,jsons/MX_seq35_0_VE250_flipped.json,http://54.235.29.9/FacialAge/BNav_EC2/DepthDuration/MX_fS_VE_MTurk/MX_fS_HTML.html#256,256,1366,768,1366,768,0-31-2024,20-10-37,9,VR_target_stimuli/s17_1x_1.8_291_BC.png,250,1x,1.8,15,5246,244,meters,jsons/MX_seq35_0_VE250_flipped.json,342583,734093,22,Woman
9,361367,final-intermixed-textured,v2,jsons/MX_seq35_0_VE250_flipped.json,http://54.235.29.9/FacialAge/BNav_EC2/DepthDuration/MX_fS_VE_MTurk/MX_fS_HTML.html#256,256,1366,768,1366,768,0-31-2024,20-10-37,10,VR_target_stimuli/s5_0.75x_4_375_BC.png,250,0.75x,4.0,15,3907,244,meters,jsons/MX_seq35_0_VE250_flipped.json,342583,734093,22,Woman
10,361367,final-intermixed-textured,v2,jsons/MX_seq35_0_VE250_flipped.json,http://54.235.29.9/FacialAge/BNav_EC2/DepthDuration/MX_fS_VE_MTurk/MX_fS_HTML.html#256,256,1366,768,1366,768,0-31-2024,20-10-37,11,VR_target_stimuli/s37_1x_3.3_563.png,250,1x,3.3,10,4088,251,meters,jsons/MX_seq35_0_VE250_flipped.json,342583,734093,22,Woman
11,361367,final-intermixed-textured,v2,jsons/MX_seq35_0_VE250_flipped.json,http://54.235.29.9/FacialAge/BNav_EC2/DepthDuration/MX_fS_VE_MTurk/MX_fS_HTML.html#256,256,1366,768,1366,768,0-31-2024,20-10-37,12,VR_target_stimuli/s46_1.3x_2.42_354.png,250,1.3x,2.42,30,5857,244,meters,jsons/MX_seq35_0_VE250_flipped.json,342583,734093,22,Woman
12,361367,final-intermixed-textured,v2,jsons/MX_seq35_0_VE250_flipped.json,http://54.235.29.9/FacialAge/BNav_EC2/DepthDuration/MX_fS_VE_MTurk/MX_fS_HTML.html#256,256,1366,768,1366,768,0-31-2024,20-10-37,13,VR_target_stimuli/s22_0.75x_4.29_348.png,250,0.75x,4.29,50,3829,244,meters,jsons/MX_seq35_0_VE250_flipped.json,342583,734093,22,Woman
13,361367,final-intermixed-textured,v2,jsons/MX_seq35_0_VE250_flipped.json,http://54.235.29.9/FacialAge/BNav_EC2/DepthDuration/MX_fS_VE_MTurk/MX_fS_HTML.html#256,256,1366,768,1366,768,0-31-2024,20-10-37,14,VR_target_stimuli/s42_1.3x_3.2_305.png,250,1.3x,3.2,50,4867,252,meters,jsons/MX_seq35_0_VE250_flipped.json,342583,734093,22,Woman
14,361367,final-intermixed-textured,v2,jsons/MX_seq35_0_VE250_flipped.json,http://54.235.29.9/FacialAge/BNav_EC2/DepthDuration/MX_fS_VE_MTurk/MX_fS_HTML.html#256,256,1366,768,1366,768,0-31-2024,20-10-37,15,VR_target_stimuli/s25_1x_1.4_290_BC.png,250,1x,1.4,20,4906,259,meters,jsons/MX_seq35_0_VE250_flipped.json,342583,734093,22,Woman
15,361367,final-intermixed-textured,v2,jsons/MX_seq35_0_VE250_flipped.json,http://54.235.29.9/FacialAge/BNav_EC2/DepthDuration/MX_fS_VE_MTurk/MX_fS_HTML.html#256,256,1366,768,1366,768,0-31-2024,20-10-37,16,VR_target_stimuli/s50_0.75x_4.53_517_BC.png,250,0.75x,4.53,35,5205,245,meters,jsons/MX_seq35_0_VE250_flipped.json,342583,734093,22,Woman
16,361367,final-intermixed-textured,v2,jsons/MX_seq35_0_VE250_flipped.json,http://54.235.29.9/FacialAge/BNav_EC2/DepthDuration/MX_fS_VE_MTurk/MX_fS_HTML.html#256,256,1366,768,1366,768,0-31-2024,20-10-37,17,catch_stimuli/c1_BC.png,250,,,0,3728,237,meters,jsons/MX_seq35_0_VE250_flipped.json,342583,734093,22,Woman
17,361367,final-intermixed-textured,v2,jsons/MX_seq35_0_VE250_flipped.json,http://54.235.29.9/FacialAge/BNav_EC2/DepthDuration/MX_fS_VE_MTurk/MX_fS_HTML.html#256,256,1366,768,1366,768,0-31-2024,20-10-37,18,VR_target_stimuli/s53_0.75x_1.6_403.png,250,0.75x,1.6,10,5631,259,meters,jsons/MX_seq35_0_VE250_flipped.json,342583,734093,22,Woman
18,361367,final-intermixed-textured,v2,jsons/MX_seq35_0_VE250_flipped.json,http://54.235.29.9/FacialAge/BNav_EC2/DepthDuration/MX_fS_VE_MTurk/MX_fS_HTML.html#256,256,1366,768,1366,768,0-31-2024,20-10-37,19,VR_target_stimuli/s38_1.3x_3.55_358_BC.png,250,1.3x,3.55,15,4948,255,meters,jsons/MX_seq35_0_VE250_flipped.json,342583,734093,22,Woman
19,361367,final-intermixed-textured,v2,jsons/MX_seq35_0_VE250_flipped.json,http://54.235.29.9/FacialAge/BNav_EC2/DepthDuration/MX_fS_VE_MTurk/MX_fS_HTML.html#256,256,1366,768,1366,768,0-31-2024,20-10-37,20,VR_target_stimuli/s9_1x_1.2_263.png,250,1x,1.2,20,3805,255,meters,jsons/MX_seq35_0_VE250_flipped.json,342583,734093,22,Woman
20,361367,final-intermixed-textured,v2,jsons/MX_seq35_0_VE250_flipped.json,http://54.235.29.9/FacialAge/BNav_EC2/DepthDuration/MX_fS_VE_MTurk/MX_fS_HTML.html#256,256,1366,768,1366,768,0-31-2024,20-10-37,21,VR_target_stimuli/s44_1.3x_4.4_325_BC.png,250,1.3x,4.4,20,5113,252,meters,jsons/MX_seq35_0_VE250_flipped.json,342583,734093,22,Woman
21,361367,final-intermixed-textured,v2,jsons/MX_seq35_0_VE250_flipped.json,http://54.235.29.9/FacialAge/BNav_EC2/DepthDuration/MX_fS_VE_MTurk/MX_fS_HTML.html#256,256,1366,768,1366,768,0-31-2024,20-10-37,22,VR_target_stimuli/s3_0.75x_5_381.png,250,0.75x,5.0,50,10044,259,meters,jsons/MX_seq35_0_VE250_flipped.json,342583,734093,22,Woman
22,361367,final-intermixed-textured,v2,jsons/MX_seq35_0_VE250_flipped.json,http://54.235.29.9/FacialAge/BNav_EC2/DepthDuration/MX_fS_VE_MTurk/MX_fS_HTML.html#256,256,1366,768,1366,768,0-31-2024,20-10-37,23,VR_target_stimuli/s1_1x_1.7_262.png,250,1x,1.7,20,6826,245,meters,jsons/MX_seq35_0_VE250_flipped.json,342583,734093,22,Woman
23,361367,final-intermixed-textured,v2,jsons/MX_seq35_0_VE250_flipped.json,http://54.235.29.9/FacialAge/BNav_EC2/DepthDuration/MX_fS_VE_MTurk/MX_fS_HTML.html#256,256,1366,768,1366,768,0-31-2024,20-10-37,24,VR_target_stimuli/s11_0.75x_5_359_BC.png,250,0.75x,5.0,30,5872,252,meters,jsons/MX_seq35_0_VE250_flipped.json,342583,734093,22,Woman
24,361367,final-intermixed-textured,v2,jsons/MX_seq35_0_VE250_flipped.json,http://54.235.29.9/FacialAge/BNav_EC2/DepthDuration/MX_fS_VE_MTurk/MX_fS_HTML.html#256,256,1366,768,1366,768,0-31-2024,20-10-37,25,VR_target_stimuli/s2_1.3x_2.7_397.png,250,1.3x,2.7,15,4600,248,meters,jsons/MX_seq35_0_VE250_flipped.json,342583,734093,22,Woman
25,361367,final-intermixed-textured,v2,jsons/MX_seq35_0_VE250_flipped.json,http://54.235.29.9/FacialAge/BNav_EC2/DepthDuration/MX_fS_VE_MTurk/MX_fS_HTML.html#256,256,1366,768,1366,768,0-31-2024,20-10-37,26,catch_stimuli/c2_BC.png,250,,,0,3452,251,meters,jsons/MX_seq35_0_VE250_flipped.json,342583,734093,22,Woman
26,361367,final-intermixed-textured,v2,jsons/MX_seq35_0_VE250_flipped.json,http://54.235.29.9/FacialAge/BNav_EC2/DepthDuration/MX_fS_VE_MTurk/MX_fS_HTML.html#256,256,1366,768,1366,768,0-31-2024,20-10-37,27,VR_target_stimuli/s6_1x_2.1_293_BC.png,250,1x,2.1,16,8520,243,meters,jsons/MX_seq35_0_VE250_flipped.json,342583,734093,22,Woman
27,361367,final-intermixed-textured,v2,jsons/MX_seq35_0_VE250_flipped.json,http://54.235.29.9/FacialAge/BNav_EC2/DepthDuration/MX_fS_VE_MTurk/MX_fS_HTML.html#256,256,1366,768,1366,768,0-31-2024,20-10-37,28,VR_target_stimuli/s0_1x_2.6_351_BC.png,250,1x,2.6,15,4773,258,meters,jsons/MX_seq35_0_VE250_flipped.json,342583,734093,22,Woman
28,361367,final-intermixed-textured,v2,jsons/MX_seq35_0_VE250_flipped.json,http://54.235.29.9/FacialAge/BNav_EC2/DepthDuration/MX_fS_VE_MTurk/MX_fS_HTML.html#256,256,1366,768,1366,768,0-31-2024,20-10-37,29,VR_target_stimuli/s34_0.75x_2.8_269_BC.png,250,0.75x,2.8,20,6047,242,meters,jsons/MX_seq35_0_VE250_flipped.json,342583,734093,22,Woman
29,361367,final-intermixed-textured,v2,jsons/MX_seq35_0_VE250_flipped.json,http://54.235.29.9/FacialAge/BNav_EC2/DepthDuration/MX_fS_VE_MTurk/MX_fS_HTML.html#256,256,1366,768,1366,768,0-31-2024,20-10-37,30,VR_target_stimuli/s13_1.3x_2.4_313.png,250,1.3x,2.4,21,6090,257,meters,jsons/MX_seq35_0_VE250_flipped.json,342583,734093,22,Woman
30,361367,final-intermixed-textured,v2,jsons/MX_seq35_0_VE250_flipped.json,http://54.235.29.9/FacialAge/BNav_EC2/DepthDuration/MX_fS_VE_MTurk/MX_fS_HTML.html#256,256,1366,768,1366,768,0-31-2024,20-10-37,31,VR_target_stimuli/s14_1x_ 3.83_357.png,250,1x,3.83,40,3759,244,meters,jsons/MX_seq35_0_VE250_flipped.json,342583,734093,22,Woman
31,361367,final-intermixed-textured,v2,jsons/MX_seq35_0_VE250_flipped.json,http://54.235.29.9/FacialAge/BNav_EC2/DepthDuration/MX_fS_VE_MTurk/MX_fS_HTML.html#256,256,1366,768,1366,768,0-31-2024,20-10-37,32,VR_target_stimuli/s47_1.3x_3.45_373_BC.png,250,1.3x,3.45,35,3441,252,meters,jsons/MX_seq35_0_VE250_flipped.json,342583,734093,22,Woman
32,361367,final-intermixed-textured,v2,jsons/MX_seq35_0_VE250_flipped.json,http://54.235.29.9/FacialAge/BNav_EC2/DepthDuration/MX_fS_VE_MTurk/MX_fS_HTML.html#256,256,1366,768,1366,768,0-31-2024,20-10-37,33,VR_target_stimuli/s29_0.75x_1.3_246.png,250,0.75x,1.3,30,4522,244,meters,jsons/MX_seq35_0_VE250_flipped.json,342583,734093,22,Woman
33,361367,final-intermixed-textured,v2,jsons/MX_seq35_0_VE250_flipped.json,http://54.235.29.9/FacialAge/BNav_EC2/DepthDuration/MX_fS_VE_MTurk/MX_fS_HTML.html#256,256,1366,768,1366,768,0-31-2024,20-10-37,34,catch_stimuli/c3_BC.png,250,,,0,2554,249,meters,jsons/MX_seq35_0_VE250_flipped.json,342583,734093,22,Woman
34,361367,final-intermixed-textured,v2,jsons/MX_seq35_0_VE250_flipped.json,http://54.235.29.9/FacialAge/BNav_EC2/DepthDuration/MX_fS_VE_MTurk/MX_fS_HTML.html#256,256,1366,768,1366,768,0-31-2024,20-10-37,35,VR_target_stimuli/s28_1.3x_3.2_365.png,250,1.3x,3.2,30,4706,244,meters,jsons/MX_seq35_0_VE250_flipped.json,342583,734093,22,Woman
35,361367,final-intermixed-textured,v2,jsons/MX_seq35_0_VE250_flipped.json,http://54.235.29.9/FacialAge/BNav_EC2/DepthDuration/MX_fS_VE_MTurk/MX_fS_HTML.html#256,256,1366,768,1366,768,0-31-2024,20-10-37,36,VR_target_stimuli/s48_1x_2.55_256.png,250,1x,2.55,20,4171,252,meters,jsons/MX_seq35_0_VE250_flipped.json,342583,734093,22,Woman
36,361367,final-intermixed-textured,v2,jsons/MX_seq35_0_VE250_flipped.json,http://54.235.29.9/FacialAge/BNav_EC2/DepthDuration/MX_fS_VE_MTurk/MX_fS_HTML.html#256,256,1366,768,1366,768,0-31-2024,20-10-37,37,VR_target_stimuli/s19_0.75x_1.21_257.png,250,0.75x,1.21,20,4597,243,meters,jsons/MX_seq35_0_VE250_flipped.json,342583,734093,22,Woman
37,361367,final-intermixed-textured,v2,jsons/MX_seq35_0_VE250_flipped.json,http://54.235.29.9/FacialAge/BNav_EC2/DepthDuration/MX_fS_VE_MTurk/MX_fS_HTML.html#256,256,1366,768,1366,768,0-31-2024,20-10-37,38,VR_target_stimuli/s21_0.75x_4.22_374_BC.png,250,0.75x,4.22,40,4179,259,meters,jsons/MX_seq35_0_VE250_flipped.json,342583,734093,22,Woman
38,361367,final-intermixed-textured,v2,jsons/MX_seq35_0_VE250_flipped.json,http://54.235.29.9/FacialAge/BNav_EC2/DepthDuration/MX_fS_VE_MTurk/MX_fS_HTML.html#256,256,1366,768,1366,768,0-31-2024,20-10-37,39,VR_target_stimuli/s8_1.3x_3.1_345_BC.png,250,1.3x,3.1,22,19721,258,meters,jsons/MX_seq35_0_VE250_flipped.json,342583,734093,22,Woman
39,361367,final-intermixed-textured,v2,jsons/MX_seq35_0_VE250_flipped.json,http://54.235.29.9/FacialAge/BNav_EC2/DepthDuration/MX_fS_VE_MTurk/MX_fS_HTML.html#256,256,1366,768,1366,768,0-31-2024,20-10-37,40,VR_target_stimuli/s27_1x_1.76_248_BC.png,250,1x,1.76,15,4405,246,meters,jsons/MX_seq35_0_VE250_flipped.json,342583,734093,22,Woman
40,361367,final-intermixed-textured,v2,jsons/MX_seq35_0_VE250_flipped.json,http://54.235.29.9/FacialAge/BNav_EC2/DepthDuration/MX_fS_VE_MTurk/MX_fS_HTML.html#256,256,1366,768,1366,768,0-31-2024,20-10-37,41,VR_target_stimuli/s15_1.3x_4.2_389.png,250,1.3x,4.2,40,5706,242,meters,jsons/MX_seq35_0_VE250_flipped.json,342583,734093,22,Woman
41,361367,final-intermixed-textured,v2,jsons/MX_seq35_0_VE250_flipped.json,http://54.235.29.9/FacialAge/BNav_EC2/DepthDuration/MX_fS_VE_MTurk/MX_fS_HTML.html#256,256,1366,768,1366,768,0-31-2024,20-10-37,42,VR_target_stimuli/s4_0.75x_1.4_301.png,250,0.75x,1.4,15,7303,244,meters,jsons/MX_seq35_0_VE250_flipped.json,342583,734093,22,Woman
42,361367,final-intermixed-textured,v2,jsons/MX_seq35_0_VE250_flipped.json,http://54.235.29.9/FacialAge/BNav_EC2/DepthDuration/MX_fS_VE_MTurk/MX_fS_HTML.html#256,256,1366,768,1366,768,0-31-2024,20-10-37,43,VR_target_stimuli/s35_1x_2_331.png,250,1x,2.0,15,3747,258,meters,jsons/MX_seq35_0_VE250_flipped.json,342583,734093,22,Woman
43,361367,final-intermixed-textured,v2,jsons/MX_seq35_0_VE250_flipped.json,http://54.235.29.9/FacialAge/BNav_EC2/DepthDuration/MX_fS_VE_MTurk/MX_fS_HTML.html#256,256,1366,768,1366,768,0-31-2024,20-10-37,44,VR_target_stimuli/s49_0.75x_4.67_328_BC.png,250,0.75x,4.67,30,5045,259,meters,jsons/MX_seq35_0_VE250_flipped.json,342583,734093,22,Woman
44,361367,final-intermixed-textured,v2,jsons/MX_seq35_0_VE250_flipped.json,http://54.235.29.9/FacialAge/BNav_EC2/DepthDuration/MX_fS_VE_MTurk/MX_fS_HTML.html#256,256,1366,768,1366,768,0-31-2024,20-10-37,45,catch_stimuli/c4_BC.png,250,,,0,3849,252,meters,jsons/MX_seq35_0_VE250_flipped.json,342583,734093,22,Woman
45,361367,final-intermixed-textured,v2,jsons/MX_seq35_0_VE250_flipped.json,http://54.235.29.9/FacialAge/BNav_EC2/DepthDuration/MX_fS_VE_MTurk/MX_fS_HTML.html#256,256,1366,768,1366,768,0-31-2024,20-10-37,46,VR_target_stimuli/s7_1.3x_1.5_256_BC.png,250,1.3x,1.5,10,3859,251,meters,jsons/MX_seq35_0_VE250_flipped.json,342583,734093,22,Woman
46,361367,final-intermixed-textured,v2,jsons/MX_seq35_0_VE250_flipped.json,http://54.235.29.9/FacialAge/BNav_EC2/DepthDuration/MX_fS_VE_MTurk/MX_fS_HTML.html#256,256,1366,768,1366,768,0-31-2024,20-10-37,47,VR_target_stimuli/s20_1x_4.99_398_BC.png,250,1x,4.99,40,4758,250,meters,jsons/MX_seq35_0_VE250_flipped.json,342583,734093,22,Woman
47,361367,final-intermixed-textured,v2,jsons/MX_seq35_0_VE250_flipped.json,http://54.235.29.9/FacialAge/BNav_EC2/DepthDuration/MX_fS_VE_MTurk/MX_fS_HTML.html#256,256,1366,768,1366,768,0-31-2024,20-10-37,48,VR_target_stimuli/s31_1x_4.96_333_BC.png,250,1x,4.96,30,4052,243,meters,jsons/MX_seq35_0_VE250_flipped.json,342583,734093,22,Woman
48,361367,final-intermixed-textured,v2,jsons/MX_seq35_0_VE250_flipped.json,http://54.235.29.9/FacialAge/BNav_EC2/DepthDuration/MX_fS_VE_MTurk/MX_fS_HTML.html#256,256,1366,768,1366,768,0-31-2024,20-10-37,49,VR_target_stimuli/s33_0.75x_3.1_361.png,250,0.75x,3.1,40,3748,259,meters,jsons/MX_seq35_0_VE250_flipped.json,342583,734093,22,Woman
49,361367,final-intermixed-textured,v2,jsons/MX_seq35_0_VE250_flipped.json,http://54.235.29.9/FacialAge/BNav_EC2/DepthDuration/MX_fS_VE_MTurk/MX_fS_HTML.html#256,256,1366,768,1366,768,0-31-2024,20-10-37,50,VR_target_stimuli/s52_1.3x_3.2_280.png,250,1.3x,3.2,20,4634,258,meters,jsons/MX_seq35_0_VE250_flipped.json,342583,734093,22,Woman
50,361367,final-intermixed-textured,v2,jsons/MX_seq35_0_VE250_flipped.json,http://54.235.29.9/FacialAge/BNav_EC2/DepthDuration/MX_fS_VE_MTurk/MX_fS_HTML.html#256,256,1366,768,1366,768,0-31-2024,20-10-37,51,VR_target_stimuli/s32_0.75x_1.5_213_BC.png,250,0.75x,1.5,20,4061,252,meters,jsons/MX_seq35_0_VE250_flipped.json,342583,734093,22,Woman
51,361367,final-intermixed-textured,v2,jsons/MX_seq35_0_VE250_flipped.json,http://54.235.29.9/FacialAge/BNav_EC2/DepthDuration/MX_fS_VE_MTurk/MX_fS_HTML.html#256,256,1366,768,1366,768,0-31-2024,20-10-37,52,VR_target_stimuli/s18_1x_2.25_353.png,250,1x,2.25,30,3768,258,meters,jsons/MX_seq35_0_VE250_flipped.json,342583,734093,22,Woman
52,361367,final-intermixed-textured,v2,jsons/MX_seq35_0_VE250_flipped.json,http://54.235.29.9/FacialAge/BNav_EC2/DepthDuration/MX_fS_VE_MTurk/MX_fS_HTML.html#256,256,1366,768,1366,768,0-31-2024,20-10-37,53,catch_stimuli/c5_BC.png,250,,,0,3808,248,meters,jsons/MX_seq35_0_VE250_flipped.json,342583,734093,22,Woman
53,361367,final-intermixed-textured,v2,jsons/MX_seq35_0_VE250_flipped.json,http://54.235.29.9/FacialAge/BNav_EC2/DepthDuration/MX_fS_VE_MTurk/MX_fS_HTML.html#256,256,1366,768,1366,768,0-31-2024,20-10-37,54,VR_target_stimuli/s39_1.3x_1_208_BC.png,250,1.3x,1.0,12,3850,245,meters,jsons/MX_seq35_0_VE250_flipped.json,342583,734093,22,Woman
54,361367,final-intermixed-textured,v2,jsons/MX_seq35_0_VE250_flipped.json,http://54.235.29.9/FacialAge/BNav_EC2/DepthDuration/MX_fS_VE_MTurk/MX_fS_HTML.html#256,256,1366,768,1366,768,0-31-2024,20-10-37,55,VR_target_stimuli/s51_1x_3.64_461.png,250,1x,3.64,15,7354,255,meters,jsons/MX_seq35_0_VE250_flipped.json,342583,734093,22,Woman
55,361367,final-intermixed-textured,v2,jsons/MX_seq35_0_VE250_flipped.json,http://54.235.29.9/FacialAge/BNav_EC2/DepthDuration/MX_fS_VE_MTurk/MX_fS_HTML.html#256,256,1366,768,1366,768,0-31-2024,20-10-37,56,VR_target_stimuli/s43_0.75x_2.2_348_BC.png,250,0.75x,2.2,15,4020,239,meters,jsons/MX_seq35_0_VE250_flipped.json,342583,734093,22,Woman
56,361367,final-intermixed-textured,v2,jsons/MX_seq35_0_VE250_flipped.json,http://54.235.29.9/FacialAge/BNav_EC2/DepthDuration/MX_fS_VE_MTurk/MX_fS_HTML.html#256,256,1366,768,1366,768,0-31-2024,20-10-37,57,VR_target_stimuli/s24_1.3x_3.3_352_BC.png,250,1.3x,3.3,20,5080,250,meters,jsons/MX_seq35_0_VE250_flipped.json,342583,734093,22,Woman
57,361367,final-intermixed-textured,v2,jsons/MX_seq35_0_VE250_flipped.json,http://54.235.29.9/FacialAge/BNav_EC2/DepthDuration/MX_fS_VE_MTurk/MX_fS_HTML.html#256,256,1366,768,1366,768,0-31-2024,20-10-37,58,VR_target_stimuli/s10_1.3x_2.7_325.png,250,1.3x,2.7,20,4394,261,meters,jsons/MX_seq35_0_VE250_flipped.json,342583,734093,22,Woman
58,361367,final-intermixed-textured,v2,jsons/MX_seq35_0_VE250_flipped.json,http://54.235.29.9/FacialAge/BNav_EC2/DepthDuration/MX_fS_VE_MTurk/MX_fS_HTML.html#256,256,1366,768,1366,768,0-31-2024,20-10-37,59,VR_target_stimuli/s36_1x_4.1_423_BC.png,250,1x,4.1,20,4727,244,meters,jsons/MX_seq35_0_VE250_flipped.json,342583,734093,22,Woman
59,361367,final-intermixed-textured,v2,jsons/MX_seq35_0_VE250_flipped.json,http://54.235.29.9/FacialAge/BNav_EC2/DepthDuration/MX_fS_VE_MTurk/MX_fS_HTML.html#256,256,1366,768,1366,768,0-31-2024,20-10-37,60,VR_target_stimuli/s40_0.75x_1.2_308.png,250,0.75x,1.2,17,11925,244,meters,jsons/MX_seq35_0_VE250_flipped.json,342583,734093,22,Woman
