,subjID,experimentName,versionName,sequenceName,url,selected_row,windowWidth,windowHeight,screenWidth,screenHeight,startDate,startTime,trial,stimulus,duration,scale,actual_depth,depth_estimate,trial_RT,log_sceneDuration,unitSelection,seq_filepath,experimentTime,totalTime,age,gender
0,363418,final-intermixed-textured,v2,jsons/MX_seq11_2_VE250_flipped.json,http://54.235.29.9/FacialAge/BNav_EC2/DepthDuration/MX_fS_VE_MTurk/MX_fS_HTML.html#141,141,1440,813,1440,900,0-31-2024,14-8-29,1,VR_target_stimuli/s28_1x_3.2_362_BC.png,250,1x,3.2,4.0,5677,250,meters,jsons/MX_seq11_2_VE250_flipped.json,200522,391830,21,Woman
1,363418,final-intermixed-textured,v2,jsons/MX_seq11_2_VE250_flipped.json,http://54.235.29.9/FacialAge/BNav_EC2/DepthDuration/MX_fS_VE_MTurk/MX_fS_HTML.html#141,141,1440,813,1440,900,0-31-2024,14-8-29,2,VR_target_stimuli/s48_1.3x_2.55_255_BC.png,250,1.3x,2.55,3.0,3450,248,meters,jsons/MX_seq11_2_VE250_flipped.json,200522,391830,21,Woman
2,363418,final-intermixed-textured,v2,jsons/MX_seq11_2_VE250_flipped.json,http://54.235.29.9/FacialAge/BNav_EC2/DepthDuration/MX_fS_VE_MTurk/MX_fS_HTML.html#141,141,1440,813,1440,900,0-31-2024,14-8-29,3,VR_target_stimuli/s19_0.75x_1.21_257.png,250,0.75x,1.21,2.0,2540,251,meters,jsons/MX_seq11_2_VE250_flipped.json,200522,391830,21,Woman
3,363418,final-intermixed-textured,v2,jsons/MX_seq11_2_VE250_flipped.json,http://54.235.29.9/FacialAge/BNav_EC2/DepthDuration/MX_fS_VE_MTurk/MX_fS_HTML.html#141,141,1440,813,1440,900,0-31-2024,14-8-29,4,VR_target_stimuli/s21_1.3x_4.22_384.png,250,1.3x,4.22,4.0,2706,255,meters,jsons/MX_seq11_2_VE250_flipped.json,200522,391830,21,Woman
4,363418,final-intermixed-textured,v2,jsons/MX_seq11_2_VE250_flipped.json,http://54.235.29.9/FacialAge/BNav_EC2/DepthDuration/MX_fS_VE_MTurk/MX_fS_HTML.html#141,141,1440,813,1440,900,0-31-2024,14-8-29,5,VR_target_stimuli/s8_1x_3.1_332.png,250,1x,3.1,2.0,3150,248,meters,jsons/MX_seq11_2_VE250_flipped.json,200522,391830,21,Woman
5,363418,final-intermixed-textured,v2,jsons/MX_seq11_2_VE250_flipped.json,http://54.235.29.9/FacialAge/BNav_EC2/DepthDuration/MX_fS_VE_MTurk/MX_fS_HTML.html#141,141,1440,813,1440,900,0-31-2024,14-8-29,6,VR_target_stimuli/s27_0.75x_1.76_243_BC.png,250,0.75x,1.76,2.0,2105,251,meters,jsons/MX_seq11_2_VE250_flipped.json,200522,391830,21,Woman
6,363418,final-intermixed-textured,v2,jsons/MX_seq11_2_VE250_flipped.json,http://54.235.29.9/FacialAge/BNav_EC2/DepthDuration/MX_fS_VE_MTurk/MX_fS_HTML.html#141,141,1440,813,1440,900,0-31-2024,14-8-29,7,catch_stimuli/c0_BC.png,250,,,0.0,2851,254,meters,jsons/MX_seq11_2_VE250_flipped.json,200522,391830,21,Woman
7,363418,final-intermixed-textured,v2,jsons/MX_seq11_2_VE250_flipped.json,http://54.235.29.9/FacialAge/BNav_EC2/DepthDuration/MX_fS_VE_MTurk/MX_fS_HTML.html#141,141,1440,813,1440,900,0-31-2024,14-8-29,8,VR_target_stimuli/s15_0.75x_4.2_388.png,250,0.75x,4.2,3.0,2916,248,meters,jsons/MX_seq11_2_VE250_flipped.json,200522,391830,21,Woman
8,363418,final-intermixed-textured,v2,jsons/MX_seq11_2_VE250_flipped.json,http://54.235.29.9/FacialAge/BNav_EC2/DepthDuration/MX_fS_VE_MTurk/MX_fS_HTML.html#141,141,1440,813,1440,900,0-31-2024,14-8-29,9,VR_target_stimuli/s4_1.3x_1.4_328.png,250,1.3x,1.4,1.0,3889,253,meters,jsons/MX_seq11_2_VE250_flipped.json,200522,391830,21,Woman
9,363418,final-intermixed-textured,v2,jsons/MX_seq11_2_VE250_flipped.json,http://54.235.29.9/FacialAge/BNav_EC2/DepthDuration/MX_fS_VE_MTurk/MX_fS_HTML.html#141,141,1440,813,1440,900,0-31-2024,14-8-29,10,VR_target_stimuli/s35_1x_2_331_BC.png,250,1x,2.0,1.0,5996,249,meters,jsons/MX_seq11_2_VE250_flipped.json,200522,391830,21,Woman
10,363418,final-intermixed-textured,v2,jsons/MX_seq11_2_VE250_flipped.json,http://54.235.29.9/FacialAge/BNav_EC2/DepthDuration/MX_fS_VE_MTurk/MX_fS_HTML.html#141,141,1440,813,1440,900,0-31-2024,14-8-29,11,VR_target_stimuli/s49_1.3x_4.67_354_BC.png,250,1.3x,4.67,3.0,3851,251,meters,jsons/MX_seq11_2_VE250_flipped.json,200522,391830,21,Woman
11,363418,final-intermixed-textured,v2,jsons/MX_seq11_2_VE250_flipped.json,http://54.235.29.9/FacialAge/BNav_EC2/DepthDuration/MX_fS_VE_MTurk/MX_fS_HTML.html#141,141,1440,813,1440,900,0-31-2024,14-8-29,12,VR_target_stimuli/s7_0.75x_1.5_253_BC.png,250,0.75x,1.5,1.0,3000,248,meters,jsons/MX_seq11_2_VE250_flipped.json,200522,391830,21,Woman
12,363418,final-intermixed-textured,v2,jsons/MX_seq11_2_VE250_flipped.json,http://54.235.29.9/FacialAge/BNav_EC2/DepthDuration/MX_fS_VE_MTurk/MX_fS_HTML.html#141,141,1440,813,1440,900,0-31-2024,14-8-29,13,VR_target_stimuli/s20_1x_4.99_398.png,250,1x,4.99,5.0,2416,252,meters,jsons/MX_seq11_2_VE250_flipped.json,200522,391830,21,Woman
13,363418,final-intermixed-textured,v2,jsons/MX_seq11_2_VE250_flipped.json,http://54.235.29.9/FacialAge/BNav_EC2/DepthDuration/MX_fS_VE_MTurk/MX_fS_HTML.html#141,141,1440,813,1440,900,0-31-2024,14-8-29,14,VR_target_stimuli/s31_0.75x_4.96_329.png,250,0.75x,4.96,2.0,2329,250,meters,jsons/MX_seq11_2_VE250_flipped.json,200522,391830,21,Woman
14,363418,final-intermixed-textured,v2,jsons/MX_seq11_2_VE250_flipped.json,http://54.235.29.9/FacialAge/BNav_EC2/DepthDuration/MX_fS_VE_MTurk/MX_fS_HTML.html#141,141,1440,813,1440,900,0-31-2024,14-8-29,15,VR_target_stimuli/s33_1.3x_3.1_378.png,250,1.3x,3.1,3.0,2082,253,meters,jsons/MX_seq11_2_VE250_flipped.json,200522,391830,21,Woman
15,363418,final-intermixed-textured,v2,jsons/MX_seq11_2_VE250_flipped.json,http://54.235.29.9/FacialAge/BNav_EC2/DepthDuration/MX_fS_VE_MTurk/MX_fS_HTML.html#141,141,1440,813,1440,900,0-31-2024,14-8-29,16,VR_target_stimuli/s52_1x_3.2_275.png,250,1x,3.2,3.0,3262,251,meters,jsons/MX_seq11_2_VE250_flipped.json,200522,391830,21,Woman
16,363418,final-intermixed-textured,v2,jsons/MX_seq11_2_VE250_flipped.json,http://54.235.29.9/FacialAge/BNav_EC2/DepthDuration/MX_fS_VE_MTurk/MX_fS_HTML.html#141,141,1440,813,1440,900,0-31-2024,14-8-29,17,catch_stimuli/c1_BC.png,250,,,0.0,2682,252,meters,jsons/MX_seq11_2_VE250_flipped.json,200522,391830,21,Woman
17,363418,final-intermixed-textured,v2,jsons/MX_seq11_2_VE250_flipped.json,http://54.235.29.9/FacialAge/BNav_EC2/DepthDuration/MX_fS_VE_MTurk/MX_fS_HTML.html#141,141,1440,813,1440,900,0-31-2024,14-8-29,18,VR_target_stimuli/s32_1x_1.5_218_BC.png,250,1x,1.5,1.0,2369,248,meters,jsons/MX_seq11_2_VE250_flipped.json,200522,391830,21,Woman
18,363418,final-intermixed-textured,v2,jsons/MX_seq11_2_VE250_flipped.json,http://54.235.29.9/FacialAge/BNav_EC2/DepthDuration/MX_fS_VE_MTurk/MX_fS_HTML.html#141,141,1440,813,1440,900,0-31-2024,14-8-29,19,VR_target_stimuli/s18_0.75x_2.25_341_BC.png,250,0.75x,2.25,1.0,3294,249,meters,jsons/MX_seq11_2_VE250_flipped.json,200522,391830,21,Woman
19,363418,final-intermixed-textured,v2,jsons/MX_seq11_2_VE250_flipped.json,http://54.235.29.9/FacialAge/BNav_EC2/DepthDuration/MX_fS_VE_MTurk/MX_fS_HTML.html#141,141,1440,813,1440,900,0-31-2024,14-8-29,20,VR_target_stimuli/s39_1.3x_1_208_BC.png,250,1.3x,1.0,1.0,4291,250,meters,jsons/MX_seq11_2_VE250_flipped.json,200522,391830,21,Woman
20,363418,final-intermixed-textured,v2,jsons/MX_seq11_2_VE250_flipped.json,http://54.235.29.9/FacialAge/BNav_EC2/DepthDuration/MX_fS_VE_MTurk/MX_fS_HTML.html#141,141,1440,813,1440,900,0-31-2024,14-8-29,21,VR_target_stimuli/s51_0.75x_3.64_460_BC.png,250,0.75x,3.64,2.0,4750,250,meters,jsons/MX_seq11_2_VE250_flipped.json,200522,391830,21,Woman
21,363418,final-intermixed-textured,v2,jsons/MX_seq11_2_VE250_flipped.json,http://54.235.29.9/FacialAge/BNav_EC2/DepthDuration/MX_fS_VE_MTurk/MX_fS_HTML.html#141,141,1440,813,1440,900,0-31-2024,14-8-29,22,VR_target_stimuli/s43_1x_2.2_354_BC.png,250,1x,2.2,2.0,2790,251,meters,jsons/MX_seq11_2_VE250_flipped.json,200522,391830,21,Woman
22,363418,final-intermixed-textured,v2,jsons/MX_seq11_2_VE250_flipped.json,http://54.235.29.9/FacialAge/BNav_EC2/DepthDuration/MX_fS_VE_MTurk/MX_fS_HTML.html#141,141,1440,813,1440,900,0-31-2024,14-8-29,23,VR_target_stimuli/s24_1.3x_3.3_352.png,250,1.3x,3.3,3.0,3185,249,meters,jsons/MX_seq11_2_VE250_flipped.json,200522,391830,21,Woman
23,363418,final-intermixed-textured,v2,jsons/MX_seq11_2_VE250_flipped.json,http://54.235.29.9/FacialAge/BNav_EC2/DepthDuration/MX_fS_VE_MTurk/MX_fS_HTML.html#141,141,1440,813,1440,900,0-31-2024,14-8-29,24,VR_target_stimuli/s10_1x_2.7_324.png,250,1x,2.7,2.0,2729,250,meters,jsons/MX_seq11_2_VE250_flipped.json,200522,391830,21,Woman
24,363418,final-intermixed-textured,v2,jsons/MX_seq11_2_VE250_flipped.json,http://54.235.29.9/FacialAge/BNav_EC2/DepthDuration/MX_fS_VE_MTurk/MX_fS_HTML.html#141,141,1440,813,1440,900,0-31-2024,14-8-29,25,VR_target_stimuli/s36_0.75x_4.1_407.png,250,0.75x,4.1,3.0,3032,250,meters,jsons/MX_seq11_2_VE250_flipped.json,200522,391830,21,Woman
25,363418,final-intermixed-textured,v2,jsons/MX_seq11_2_VE250_flipped.json,http://54.235.29.9/FacialAge/BNav_EC2/DepthDuration/MX_fS_VE_MTurk/MX_fS_HTML.html#141,141,1440,813,1440,900,0-31-2024,14-8-29,26,catch_stimuli/c2_BC.png,250,,,0.0,2497,249,meters,jsons/MX_seq11_2_VE250_flipped.json,200522,391830,21,Woman
26,363418,final-intermixed-textured,v2,jsons/MX_seq11_2_VE250_flipped.json,http://54.235.29.9/FacialAge/BNav_EC2/DepthDuration/MX_fS_VE_MTurk/MX_fS_HTML.html#141,141,1440,813,1440,900,0-31-2024,14-8-29,27,VR_target_stimuli/s40_1.3x_1.2_332_BC.png,250,1.3x,1.2,2.0,2322,249,meters,jsons/MX_seq11_2_VE250_flipped.json,200522,391830,21,Woman
27,363418,final-intermixed-textured,v2,jsons/MX_seq11_2_VE250_flipped.json,http://54.235.29.9/FacialAge/BNav_EC2/DepthDuration/MX_fS_VE_MTurk/MX_fS_HTML.html#141,141,1440,813,1440,900,0-31-2024,14-8-29,28,VR_target_stimuli/s41_1.3x_2.1_294.png,250,1.3x,2.1,1.0,1738,251,meters,jsons/MX_seq11_2_VE250_flipped.json,200522,391830,21,Woman
28,363418,final-intermixed-textured,v2,jsons/MX_seq11_2_VE250_flipped.json,http://54.235.29.9/FacialAge/BNav_EC2/DepthDuration/MX_fS_VE_MTurk/MX_fS_HTML.html#141,141,1440,813,1440,900,0-31-2024,14-8-29,29,VR_target_stimuli/s45_1x_3.5_368.png,250,1x,3.5,2.0,2355,253,meters,jsons/MX_seq11_2_VE250_flipped.json,200522,391830,21,Woman
29,363418,final-intermixed-textured,v2,jsons/MX_seq11_2_VE250_flipped.json,http://54.235.29.9/FacialAge/BNav_EC2/DepthDuration/MX_fS_VE_MTurk/MX_fS_HTML.html#141,141,1440,813,1440,900,0-31-2024,14-8-29,30,VR_target_stimuli/s23_0.75x_3.65_351_BC.png,250,0.75x,3.65,1.0,2477,252,meters,jsons/MX_seq11_2_VE250_flipped.json,200522,391830,21,Woman
30,363418,final-intermixed-textured,v2,jsons/MX_seq11_2_VE250_flipped.json,http://54.235.29.9/FacialAge/BNav_EC2/DepthDuration/MX_fS_VE_MTurk/MX_fS_HTML.html#141,141,1440,813,1440,900,0-31-2024,14-8-29,31,VR_target_stimuli/s26_1.3x_4_441_BC.png,250,1.3x,4.0,2.0,2007,249,meters,jsons/MX_seq11_2_VE250_flipped.json,200522,391830,21,Woman
31,363418,final-intermixed-textured,v2,jsons/MX_seq11_2_VE250_flipped.json,http://54.235.29.9/FacialAge/BNav_EC2/DepthDuration/MX_fS_VE_MTurk/MX_fS_HTML.html#141,141,1440,813,1440,900,0-31-2024,14-8-29,32,VR_target_stimuli/s12_0.75x_3.1_364.png,250,0.75x,3.1,2.0,2651,247,meters,jsons/MX_seq11_2_VE250_flipped.json,200522,391830,21,Woman
32,363418,final-intermixed-textured,v2,jsons/MX_seq11_2_VE250_flipped.json,http://54.235.29.9/FacialAge/BNav_EC2/DepthDuration/MX_fS_VE_MTurk/MX_fS_HTML.html#141,141,1440,813,1440,900,0-31-2024,14-8-29,33,VR_target_stimuli/s30_1x_2.3_334_BC.png,250,1x,2.3,1.0,1588,250,meters,jsons/MX_seq11_2_VE250_flipped.json,200522,391830,21,Woman
33,363418,final-intermixed-textured,v2,jsons/MX_seq11_2_VE250_flipped.json,http://54.235.29.9/FacialAge/BNav_EC2/DepthDuration/MX_fS_VE_MTurk/MX_fS_HTML.html#141,141,1440,813,1440,900,0-31-2024,14-8-29,34,catch_stimuli/c3_BC.png,250,,,0.0,2267,250,meters,jsons/MX_seq11_2_VE250_flipped.json,200522,391830,21,Woman
34,363418,final-intermixed-textured,v2,jsons/MX_seq11_2_VE250_flipped.json,http://54.235.29.9/FacialAge/BNav_EC2/DepthDuration/MX_fS_VE_MTurk/MX_fS_HTML.html#141,141,1440,813,1440,900,0-31-2024,14-8-29,35,VR_target_stimuli/s16_0.75x_1_217.png,250,0.75x,1.0,1.0,1633,253,meters,jsons/MX_seq11_2_VE250_flipped.json,200522,391830,21,Woman
35,363418,final-intermixed-textured,v2,jsons/MX_seq11_2_VE250_flipped.json,http://54.235.29.9/FacialAge/BNav_EC2/DepthDuration/MX_fS_VE_MTurk/MX_fS_HTML.html#141,141,1440,813,1440,900,0-31-2024,14-8-29,36,VR_target_stimuli/s17_1.3x_1.8_300.png,250,1.3x,1.8,1.0,1507,255,meters,jsons/MX_seq11_2_VE250_flipped.json,200522,391830,21,Woman
36,363418,final-intermixed-textured,v2,jsons/MX_seq11_2_VE250_flipped.json,http://54.235.29.9/FacialAge/BNav_EC2/DepthDuration/MX_fS_VE_MTurk/MX_fS_HTML.html#141,141,1440,813,1440,900,0-31-2024,14-8-29,37,VR_target_stimuli/s5_1x_4_378_BC.png,250,1x,4.0,2.0,1758,250,meters,jsons/MX_seq11_2_VE250_flipped.json,200522,391830,21,Woman
37,363418,final-intermixed-textured,v2,jsons/MX_seq11_2_VE250_flipped.json,http://54.235.29.9/FacialAge/BNav_EC2/DepthDuration/MX_fS_VE_MTurk/MX_fS_HTML.html#141,141,1440,813,1440,900,0-31-2024,14-8-29,38,VR_target_stimuli/s37_1x_3.3_563.png,250,1x,3.3,2.0,1860,253,meters,jsons/MX_seq11_2_VE250_flipped.json,200522,391830,21,Woman
38,363418,final-intermixed-textured,v2,jsons/MX_seq11_2_VE250_flipped.json,http://54.235.29.9/FacialAge/BNav_EC2/DepthDuration/MX_fS_VE_MTurk/MX_fS_HTML.html#141,141,1440,813,1440,900,0-31-2024,14-8-29,39,VR_target_stimuli/s46_0.75x_2.42_343_BC.png,250,0.75x,2.42,3.0,2863,249,meters,jsons/MX_seq11_2_VE250_flipped.json,200522,391830,21,Woman
39,363418,final-intermixed-textured,v2,jsons/MX_seq11_2_VE250_flipped.json,http://54.235.29.9/FacialAge/BNav_EC2/DepthDuration/MX_fS_VE_MTurk/MX_fS_HTML.html#141,141,1440,813,1440,900,0-31-2024,14-8-29,40,VR_target_stimuli/s22_1.3x_4.29_364_BC.png,250,1.3x,4.29,3.0,2477,248,meters,jsons/MX_seq11_2_VE250_flipped.json,200522,391830,21,Woman
40,363418,final-intermixed-textured,v2,jsons/MX_seq11_2_VE250_flipped.json,http://54.235.29.9/FacialAge/BNav_EC2/DepthDuration/MX_fS_VE_MTurk/MX_fS_HTML.html#141,141,1440,813,1440,900,0-31-2024,14-8-29,41,VR_target_stimuli/s42_0.75x_3.2_301_BC.png,250,0.75x,3.2,2.0,1978,252,meters,jsons/MX_seq11_2_VE250_flipped.json,200522,391830,21,Woman
41,363418,final-intermixed-textured,v2,jsons/MX_seq11_2_VE250_flipped.json,http://54.235.29.9/FacialAge/BNav_EC2/DepthDuration/MX_fS_VE_MTurk/MX_fS_HTML.html#141,141,1440,813,1440,900,0-31-2024,14-8-29,42,VR_target_stimuli/s25_1x_1.4_290_BC.png,250,1x,1.4,1.0,1618,249,meters,jsons/MX_seq11_2_VE250_flipped.json,200522,391830,21,Woman
42,363418,final-intermixed-textured,v2,jsons/MX_seq11_2_VE250_flipped.json,http://54.235.29.9/FacialAge/BNav_EC2/DepthDuration/MX_fS_VE_MTurk/MX_fS_HTML.html#141,141,1440,813,1440,900,0-31-2024,14-8-29,43,VR_target_stimuli/s50_1.3x_4.53_518_BC.png,250,1.3x,4.53,1.0,2163,250,meters,jsons/MX_seq11_2_VE250_flipped.json,200522,391830,21,Woman
43,363418,final-intermixed-textured,v2,jsons/MX_seq11_2_VE250_flipped.json,http://54.235.29.9/FacialAge/BNav_EC2/DepthDuration/MX_fS_VE_MTurk/MX_fS_HTML.html#141,141,1440,813,1440,900,0-31-2024,14-8-29,44,VR_target_stimuli/s53_1x_1.6_387.png,250,1x,1.6,0.5,6591,249,meters,jsons/MX_seq11_2_VE250_flipped.json,200522,391830,21,Woman
44,363418,final-intermixed-textured,v2,jsons/MX_seq11_2_VE250_flipped.json,http://54.235.29.9/FacialAge/BNav_EC2/DepthDuration/MX_fS_VE_MTurk/MX_fS_HTML.html#141,141,1440,813,1440,900,0-31-2024,14-8-29,45,catch_stimuli/c4_BC.png,250,,,0.0,4266,251,meters,jsons/MX_seq11_2_VE250_flipped.json,200522,391830,21,Woman
45,363418,final-intermixed-textured,v2,jsons/MX_seq11_2_VE250_flipped.json,http://54.235.29.9/FacialAge/BNav_EC2/DepthDuration/MX_fS_VE_MTurk/MX_fS_HTML.html#141,141,1440,813,1440,900,0-31-2024,14-8-29,46,VR_target_stimuli/s38_0.75x_3.55_346.png,250,0.75x,3.55,1.0,3788,250,meters,jsons/MX_seq11_2_VE250_flipped.json,200522,391830,21,Woman
46,363418,final-intermixed-textured,v2,jsons/MX_seq11_2_VE250_flipped.json,http://54.235.29.9/FacialAge/BNav_EC2/DepthDuration/MX_fS_VE_MTurk/MX_fS_HTML.html#141,141,1440,813,1440,900,0-31-2024,14-8-29,47,VR_target_stimuli/s9_1.3x_1.2_276.png,250,1.3x,1.2,0.5,3299,247,meters,jsons/MX_seq11_2_VE250_flipped.json,200522,391830,21,Woman
47,363418,final-intermixed-textured,v2,jsons/MX_seq11_2_VE250_flipped.json,http://54.235.29.9/FacialAge/BNav_EC2/DepthDuration/MX_fS_VE_MTurk/MX_fS_HTML.html#141,141,1440,813,1440,900,0-31-2024,14-8-29,48,VR_target_stimuli/s44_1.3x_4.4_325_BC.png,250,1.3x,4.4,1.0,3332,253,meters,jsons/MX_seq11_2_VE250_flipped.json,200522,391830,21,Woman
48,363418,final-intermixed-textured,v2,jsons/MX_seq11_2_VE250_flipped.json,http://54.235.29.9/FacialAge/BNav_EC2/DepthDuration/MX_fS_VE_MTurk/MX_fS_HTML.html#141,141,1440,813,1440,900,0-31-2024,14-8-29,49,VR_target_stimuli/s3_1x_5_385_BC.png,250,1x,5.0,4.0,2201,249,meters,jsons/MX_seq11_2_VE250_flipped.json,200522,391830,21,Woman
49,363418,final-intermixed-textured,v2,jsons/MX_seq11_2_VE250_flipped.json,http://54.235.29.9/FacialAge/BNav_EC2/DepthDuration/MX_fS_VE_MTurk/MX_fS_HTML.html#141,141,1440,813,1440,900,0-31-2024,14-8-29,50,VR_target_stimuli/s1_0.75x_1.7_265_BC.png,250,0.75x,1.7,2.0,3146,250,meters,jsons/MX_seq11_2_VE250_flipped.json,200522,391830,21,Woman
50,363418,final-intermixed-textured,v2,jsons/MX_seq11_2_VE250_flipped.json,http://54.235.29.9/FacialAge/BNav_EC2/DepthDuration/MX_fS_VE_MTurk/MX_fS_HTML.html#141,141,1440,813,1440,900,0-31-2024,14-8-29,51,VR_target_stimuli/s11_1x_5_361.png,250,1x,5.0,5.0,3257,253,meters,jsons/MX_seq11_2_VE250_flipped.json,200522,391830,21,Woman
51,363418,final-intermixed-textured,v2,jsons/MX_seq11_2_VE250_flipped.json,http://54.235.29.9/FacialAge/BNav_EC2/DepthDuration/MX_fS_VE_MTurk/MX_fS_HTML.html#141,141,1440,813,1440,900,0-31-2024,14-8-29,52,VR_target_stimuli/s2_1.3x_2.7_397.png,250,1.3x,2.7,2.0,2123,248,meters,jsons/MX_seq11_2_VE250_flipped.json,200522,391830,21,Woman
52,363418,final-intermixed-textured,v2,jsons/MX_seq11_2_VE250_flipped.json,http://54.235.29.9/FacialAge/BNav_EC2/DepthDuration/MX_fS_VE_MTurk/MX_fS_HTML.html#141,141,1440,813,1440,900,0-31-2024,14-8-29,53,catch_stimuli/c5_BC.png,250,,,0.0,2525,254,meters,jsons/MX_seq11_2_VE250_flipped.json,200522,391830,21,Woman
53,363418,final-intermixed-textured,v2,jsons/MX_seq11_2_VE250_flipped.json,http://54.235.29.9/FacialAge/BNav_EC2/DepthDuration/MX_fS_VE_MTurk/MX_fS_HTML.html#141,141,1440,813,1440,900,0-31-2024,14-8-29,54,VR_target_stimuli/s6_0.75x_2.1_290.png,250,0.75x,2.1,2.0,2409,252,meters,jsons/MX_seq11_2_VE250_flipped.json,200522,391830,21,Woman
54,363418,final-intermixed-textured,v2,jsons/MX_seq11_2_VE250_flipped.json,http://54.235.29.9/FacialAge/BNav_EC2/DepthDuration/MX_fS_VE_MTurk/MX_fS_HTML.html#141,141,1440,813,1440,900,0-31-2024,14-8-29,55,VR_target_stimuli/s0_1.3x_2.6_356_BC.png,250,1.3x,2.6,2.0,1473,249,meters,jsons/MX_seq11_2_VE250_flipped.json,200522,391830,21,Woman
55,363418,final-intermixed-textured,v2,jsons/MX_seq11_2_VE250_flipped.json,http://54.235.29.9/FacialAge/BNav_EC2/DepthDuration/MX_fS_VE_MTurk/MX_fS_HTML.html#141,141,1440,813,1440,900,0-31-2024,14-8-29,56,VR_target_stimuli/s34_1x_2.8_283_BC.png,250,1x,2.8,3.0,4256,251,meters,jsons/MX_seq11_2_VE250_flipped.json,200522,391830,21,Woman
56,363418,final-intermixed-textured,v2,jsons/MX_seq11_2_VE250_flipped.json,http://54.235.29.9/FacialAge/BNav_EC2/DepthDuration/MX_fS_VE_MTurk/MX_fS_HTML.html#141,141,1440,813,1440,900,0-31-2024,14-8-29,57,VR_target_stimuli/s13_0.75x_2.4_308_BC.png,250,0.75x,2.4,3.0,1818,250,meters,jsons/MX_seq11_2_VE250_flipped.json,200522,391830,21,Woman
57,363418,final-intermixed-textured,v2,jsons/MX_seq11_2_VE250_flipped.json,http://54.235.29.9/FacialAge/BNav_EC2/DepthDuration/MX_fS_VE_MTurk/MX_fS_HTML.html#141,141,1440,813,1440,900,0-31-2024,14-8-29,58,VR_target_stimuli/s14_0.75x_3.83_355.png,250,0.75x,3.83,3.0,3106,245,meters,jsons/MX_seq11_2_VE250_flipped.json,200522,391830,21,Woman
58,363418,final-intermixed-textured,v2,jsons/MX_seq11_2_VE250_flipped.json,http://54.235.29.9/FacialAge/BNav_EC2/DepthDuration/MX_fS_VE_MTurk/MX_fS_HTML.html#141,141,1440,813,1440,900,0-31-2024,14-8-29,59,VR_target_stimuli/s47_1.3x_3.45_373.png,250,1.3x,3.45,2.0,1689,255,meters,jsons/MX_seq11_2_VE250_flipped.json,200522,391830,21,Woman
59,363418,final-intermixed-textured,v2,jsons/MX_seq11_2_VE250_flipped.json,http://54.235.29.9/FacialAge/BNav_EC2/DepthDuration/MX_fS_VE_MTurk/MX_fS_HTML.html#141,141,1440,813,1440,900,0-31-2024,14-8-29,60,VR_target_stimuli/s29_1x_1.3_250.png,250,1x,1.3,1.0,1985,249,meters,jsons/MX_seq11_2_VE250_flipped.json,200522,391830,21,Woman
