,subjID,experimentName,versionName,sequenceName,url,selected_row,windowWidth,windowHeight,screenWidth,screenHeight,startDate,startTime,trial,stimulus,duration,scale,actual_depth,depth_estimate,trial_RT,log_sceneDuration,unitSelection,seq_filepath,experimentTime,totalTime,age,gender
0,384207,final-intermixed-textured,v2,jsons/MX_seq36_1_VE250.json,http://54.235.29.9/FacialAge/BNav_EC2/DepthDuration/MX_fS_VE_MTurk/MX_fS_HTML.html#262,262,1920,919,1920,1080,0-31-2024,19-11-25,1,VR_target_stimuli/s45_1.3x_3.5_377_BC.png,250,1.3x,3.5,4.0,9010,251,meters,jsons/MX_seq36_1_VE250.json,409427,842886,25,Man
1,384207,final-intermixed-textured,v2,jsons/MX_seq36_1_VE250.json,http://54.235.29.9/FacialAge/BNav_EC2/DepthDuration/MX_fS_VE_MTurk/MX_fS_HTML.html#262,262,1920,919,1920,1080,0-31-2024,19-11-25,2,VR_target_stimuli/s23_0.75x_3.65_351.png,250,0.75x,3.65,2.5,17667,241,meters,jsons/MX_seq36_1_VE250.json,409427,842886,25,Man
2,384207,final-intermixed-textured,v2,jsons/MX_seq36_1_VE250.json,http://54.235.29.9/FacialAge/BNav_EC2/DepthDuration/MX_fS_VE_MTurk/MX_fS_HTML.html#262,262,1920,919,1920,1080,0-31-2024,19-11-25,3,VR_target_stimuli/s26_1x_4_433.png,250,1x,4.0,5.0,20926,263,meters,jsons/MX_seq36_1_VE250.json,409427,842886,25,Man
3,384207,final-intermixed-textured,v2,jsons/MX_seq36_1_VE250.json,http://54.235.29.9/FacialAge/BNav_EC2/DepthDuration/MX_fS_VE_MTurk/MX_fS_HTML.html#262,262,1920,919,1920,1080,0-31-2024,19-11-25,4,VR_target_stimuli/s12_0.75x_3.1_364_BC.png,250,0.75x,3.1,3.0,11107,262,meters,jsons/MX_seq36_1_VE250.json,409427,842886,25,Man
4,384207,final-intermixed-textured,v2,jsons/MX_seq36_1_VE250.json,http://54.235.29.9/FacialAge/BNav_EC2/DepthDuration/MX_fS_VE_MTurk/MX_fS_HTML.html#262,262,1920,919,1920,1080,0-31-2024,19-11-25,5,VR_target_stimuli/s30_1.3x_2.3_337.png,250,1.3x,2.3,2.0,3611,252,meters,jsons/MX_seq36_1_VE250.json,409427,842886,25,Man
5,384207,final-intermixed-textured,v2,jsons/MX_seq36_1_VE250.json,http://54.235.29.9/FacialAge/BNav_EC2/DepthDuration/MX_fS_VE_MTurk/MX_fS_HTML.html#262,262,1920,919,1920,1080,0-31-2024,19-11-25,6,VR_target_stimuli/s16_1x_1_219_BC.png,250,1x,1.0,1.5,5751,254,meters,jsons/MX_seq36_1_VE250.json,409427,842886,25,Man
6,384207,final-intermixed-textured,v2,jsons/MX_seq36_1_VE250.json,http://54.235.29.9/FacialAge/BNav_EC2/DepthDuration/MX_fS_VE_MTurk/MX_fS_HTML.html#262,262,1920,919,1920,1080,0-31-2024,19-11-25,7,catch_stimuli/c0.png,250,,,0.0,3895,257,meters,jsons/MX_seq36_1_VE250.json,409427,842886,25,Man
7,384207,final-intermixed-textured,v2,jsons/MX_seq36_1_VE250.json,http://54.235.29.9/FacialAge/BNav_EC2/DepthDuration/MX_fS_VE_MTurk/MX_fS_HTML.html#262,262,1920,919,1920,1080,0-31-2024,19-11-25,8,VR_target_stimuli/s17_1x_1.8_291.png,250,1x,1.8,2.5,7259,249,meters,jsons/MX_seq36_1_VE250.json,409427,842886,25,Man
8,384207,final-intermixed-textured,v2,jsons/MX_seq36_1_VE250.json,http://54.235.29.9/FacialAge/BNav_EC2/DepthDuration/MX_fS_VE_MTurk/MX_fS_HTML.html#262,262,1920,919,1920,1080,0-31-2024,19-11-25,9,VR_target_stimuli/s5_0.75x_4_375.png,250,0.75x,4.0,5.0,6063,238,meters,jsons/MX_seq36_1_VE250.json,409427,842886,25,Man
9,384207,final-intermixed-textured,v2,jsons/MX_seq36_1_VE250.json,http://54.235.29.9/FacialAge/BNav_EC2/DepthDuration/MX_fS_VE_MTurk/MX_fS_HTML.html#262,262,1920,919,1920,1080,0-31-2024,19-11-25,10,VR_target_stimuli/s37_1.3x_3.3_555.png,250,1.3x,3.3,1.8,10639,253,meters,jsons/MX_seq36_1_VE250.json,409427,842886,25,Man
10,384207,final-intermixed-textured,v2,jsons/MX_seq36_1_VE250.json,http://54.235.29.9/FacialAge/BNav_EC2/DepthDuration/MX_fS_VE_MTurk/MX_fS_HTML.html#262,262,1920,919,1920,1080,0-31-2024,19-11-25,11,VR_target_stimuli/s46_0.75x_2.42_343_BC.png,250,0.75x,2.42,3.0,8155,251,meters,jsons/MX_seq36_1_VE250.json,409427,842886,25,Man
11,384207,final-intermixed-textured,v2,jsons/MX_seq36_1_VE250.json,http://54.235.29.9/FacialAge/BNav_EC2/DepthDuration/MX_fS_VE_MTurk/MX_fS_HTML.html#262,262,1920,919,1920,1080,0-31-2024,19-11-25,12,VR_target_stimuli/s22_1x_4.29_354_BC.png,250,1x,4.29,6.0,3103,253,meters,jsons/MX_seq36_1_VE250.json,409427,842886,25,Man
12,384207,final-intermixed-textured,v2,jsons/MX_seq36_1_VE250.json,http://54.235.29.9/FacialAge/BNav_EC2/DepthDuration/MX_fS_VE_MTurk/MX_fS_HTML.html#262,262,1920,919,1920,1080,0-31-2024,19-11-25,13,VR_target_stimuli/s42_1.3x_3.2_305_BC.png,250,1.3x,3.2,4.0,3547,253,meters,jsons/MX_seq36_1_VE250.json,409427,842886,25,Man
13,384207,final-intermixed-textured,v2,jsons/MX_seq36_1_VE250.json,http://54.235.29.9/FacialAge/BNav_EC2/DepthDuration/MX_fS_VE_MTurk/MX_fS_HTML.html#262,262,1920,919,1920,1080,0-31-2024,19-11-25,14,VR_target_stimuli/s25_1x_1.4_290_BC.png,250,1x,1.4,2.0,4579,248,meters,jsons/MX_seq36_1_VE250.json,409427,842886,25,Man
14,384207,final-intermixed-textured,v2,jsons/MX_seq36_1_VE250.json,http://54.235.29.9/FacialAge/BNav_EC2/DepthDuration/MX_fS_VE_MTurk/MX_fS_HTML.html#262,262,1920,919,1920,1080,0-31-2024,19-11-25,15,VR_target_stimuli/s50_0.75x_4.53_517_BC.png,250,0.75x,4.53,4.0,4610,265,meters,jsons/MX_seq36_1_VE250.json,409427,842886,25,Man
15,384207,final-intermixed-textured,v2,jsons/MX_seq36_1_VE250.json,http://54.235.29.9/FacialAge/BNav_EC2/DepthDuration/MX_fS_VE_MTurk/MX_fS_HTML.html#262,262,1920,919,1920,1080,0-31-2024,19-11-25,16,VR_target_stimuli/s53_1.3x_1.6_355.png,250,1.3x,1.6,1.0,11653,258,meters,jsons/MX_seq36_1_VE250.json,409427,842886,25,Man
16,384207,final-intermixed-textured,v2,jsons/MX_seq36_1_VE250.json,http://54.235.29.9/FacialAge/BNav_EC2/DepthDuration/MX_fS_VE_MTurk/MX_fS_HTML.html#262,262,1920,919,1920,1080,0-31-2024,19-11-25,17,catch_stimuli/c1.png,250,,,0.0,7152,256,meters,jsons/MX_seq36_1_VE250.json,409427,842886,25,Man
17,384207,final-intermixed-textured,v2,jsons/MX_seq36_1_VE250.json,http://54.235.29.9/FacialAge/BNav_EC2/DepthDuration/MX_fS_VE_MTurk/MX_fS_HTML.html#262,262,1920,919,1920,1080,0-31-2024,19-11-25,18,VR_target_stimuli/s38_1.3x_3.55_358_BC.png,250,1.3x,3.55,3.0,22476,239,meters,jsons/MX_seq36_1_VE250.json,409427,842886,25,Man
18,384207,final-intermixed-textured,v2,jsons/MX_seq36_1_VE250.json,http://54.235.29.9/FacialAge/BNav_EC2/DepthDuration/MX_fS_VE_MTurk/MX_fS_HTML.html#262,262,1920,919,1920,1080,0-31-2024,19-11-25,19,VR_target_stimuli/s9_1x_1.2_263.png,250,1x,1.2,1.0,3411,250,meters,jsons/MX_seq36_1_VE250.json,409427,842886,25,Man
19,384207,final-intermixed-textured,v2,jsons/MX_seq36_1_VE250.json,http://54.235.29.9/FacialAge/BNav_EC2/DepthDuration/MX_fS_VE_MTurk/MX_fS_HTML.html#262,262,1920,919,1920,1080,0-31-2024,19-11-25,20,VR_target_stimuli/s44_0.75x_4.4_314.png,250,0.75x,4.4,5.0,4684,256,meters,jsons/MX_seq36_1_VE250.json,409427,842886,25,Man
20,384207,final-intermixed-textured,v2,jsons/MX_seq36_1_VE250.json,http://54.235.29.9/FacialAge/BNav_EC2/DepthDuration/MX_fS_VE_MTurk/MX_fS_HTML.html#262,262,1920,919,1920,1080,0-31-2024,19-11-25,21,VR_target_stimuli/s3_1x_5_385.png,250,1x,5.0,7.0,5158,252,meters,jsons/MX_seq36_1_VE250.json,409427,842886,25,Man
21,384207,final-intermixed-textured,v2,jsons/MX_seq36_1_VE250.json,http://54.235.29.9/FacialAge/BNav_EC2/DepthDuration/MX_fS_VE_MTurk/MX_fS_HTML.html#262,262,1920,919,1920,1080,0-31-2024,19-11-25,22,VR_target_stimuli/s1_1.3x_1.7_261.png,250,1.3x,1.7,2.0,4202,251,meters,jsons/MX_seq36_1_VE250.json,409427,842886,25,Man
22,384207,final-intermixed-textured,v2,jsons/MX_seq36_1_VE250.json,http://54.235.29.9/FacialAge/BNav_EC2/DepthDuration/MX_fS_VE_MTurk/MX_fS_HTML.html#262,262,1920,919,1920,1080,0-31-2024,19-11-25,23,VR_target_stimuli/s11_0.75x_5_359_BC.png,250,0.75x,5.0,8.0,7767,257,meters,jsons/MX_seq36_1_VE250.json,409427,842886,25,Man
23,384207,final-intermixed-textured,v2,jsons/MX_seq36_1_VE250.json,http://54.235.29.9/FacialAge/BNav_EC2/DepthDuration/MX_fS_VE_MTurk/MX_fS_HTML.html#262,262,1920,919,1920,1080,0-31-2024,19-11-25,24,VR_target_stimuli/s2_1.3x_2.7_397_BC.png,250,1.3x,2.7,3.0,3459,250,meters,jsons/MX_seq36_1_VE250.json,409427,842886,25,Man
24,384207,final-intermixed-textured,v2,jsons/MX_seq36_1_VE250.json,http://54.235.29.9/FacialAge/BNav_EC2/DepthDuration/MX_fS_VE_MTurk/MX_fS_HTML.html#262,262,1920,919,1920,1080,0-31-2024,19-11-25,25,VR_target_stimuli/s6_1x_2.1_293_BC.png,250,1x,2.1,2.8,12442,241,meters,jsons/MX_seq36_1_VE250.json,409427,842886,25,Man
25,384207,final-intermixed-textured,v2,jsons/MX_seq36_1_VE250.json,http://54.235.29.9/FacialAge/BNav_EC2/DepthDuration/MX_fS_VE_MTurk/MX_fS_HTML.html#262,262,1920,919,1920,1080,0-31-2024,19-11-25,26,catch_stimuli/c2.png,250,,,0.0,3515,256,meters,jsons/MX_seq36_1_VE250.json,409427,842886,25,Man
26,384207,final-intermixed-textured,v2,jsons/MX_seq36_1_VE250.json,http://54.235.29.9/FacialAge/BNav_EC2/DepthDuration/MX_fS_VE_MTurk/MX_fS_HTML.html#262,262,1920,919,1920,1080,0-31-2024,19-11-25,27,VR_target_stimuli/s0_0.75x_2.6_345.png,250,0.75x,2.6,3.0,4866,263,meters,jsons/MX_seq36_1_VE250.json,409427,842886,25,Man
27,384207,final-intermixed-textured,v2,jsons/MX_seq36_1_VE250.json,http://54.235.29.9/FacialAge/BNav_EC2/DepthDuration/MX_fS_VE_MTurk/MX_fS_HTML.html#262,262,1920,919,1920,1080,0-31-2024,19-11-25,28,VR_target_stimuli/s34_0.75x_2.8_269_BC.png,250,0.75x,2.8,5.0,4072,254,meters,jsons/MX_seq36_1_VE250.json,409427,842886,25,Man
28,384207,final-intermixed-textured,v2,jsons/MX_seq36_1_VE250.json,http://54.235.29.9/FacialAge/BNav_EC2/DepthDuration/MX_fS_VE_MTurk/MX_fS_HTML.html#262,262,1920,919,1920,1080,0-31-2024,19-11-25,29,VR_target_stimuli/s13_1.3x_2.4_313_BC.png,250,1.3x,2.4,4.0,3551,259,meters,jsons/MX_seq36_1_VE250.json,409427,842886,25,Man
29,384207,final-intermixed-textured,v2,jsons/MX_seq36_1_VE250.json,http://54.235.29.9/FacialAge/BNav_EC2/DepthDuration/MX_fS_VE_MTurk/MX_fS_HTML.html#262,262,1920,919,1920,1080,0-31-2024,19-11-25,30,VR_target_stimuli/s14_1x_ 3.83_357_BC.png,250,1x,3.83,5.0,5246,252,meters,jsons/MX_seq36_1_VE250.json,409427,842886,25,Man
30,384207,final-intermixed-textured,v2,jsons/MX_seq36_1_VE250.json,http://54.235.29.9/FacialAge/BNav_EC2/DepthDuration/MX_fS_VE_MTurk/MX_fS_HTML.html#262,262,1920,919,1920,1080,0-31-2024,19-11-25,31,VR_target_stimuli/s47_0.75x_3.45_366.png,250,0.75x,3.45,4.0,3669,249,meters,jsons/MX_seq36_1_VE250.json,409427,842886,25,Man
31,384207,final-intermixed-textured,v2,jsons/MX_seq36_1_VE250.json,http://54.235.29.9/FacialAge/BNav_EC2/DepthDuration/MX_fS_VE_MTurk/MX_fS_HTML.html#262,262,1920,919,1920,1080,0-31-2024,19-11-25,32,VR_target_stimuli/s29_1x_1.3_250.png,250,1x,1.3,2.0,5519,244,meters,jsons/MX_seq36_1_VE250.json,409427,842886,25,Man
32,384207,final-intermixed-textured,v2,jsons/MX_seq36_1_VE250.json,http://54.235.29.9/FacialAge/BNav_EC2/DepthDuration/MX_fS_VE_MTurk/MX_fS_HTML.html#262,262,1920,919,1920,1080,0-31-2024,19-11-25,33,VR_target_stimuli/s28_1.3x_3.2_365.png,250,1.3x,3.2,3.0,4848,247,meters,jsons/MX_seq36_1_VE250.json,409427,842886,25,Man
33,384207,final-intermixed-textured,v2,jsons/MX_seq36_1_VE250.json,http://54.235.29.9/FacialAge/BNav_EC2/DepthDuration/MX_fS_VE_MTurk/MX_fS_HTML.html#262,262,1920,919,1920,1080,0-31-2024,19-11-25,34,catch_stimuli/c3.png,250,,,0.0,3678,249,meters,jsons/MX_seq36_1_VE250.json,409427,842886,25,Man
34,384207,final-intermixed-textured,v2,jsons/MX_seq36_1_VE250.json,http://54.235.29.9/FacialAge/BNav_EC2/DepthDuration/MX_fS_VE_MTurk/MX_fS_HTML.html#262,262,1920,919,1920,1080,0-31-2024,19-11-25,35,VR_target_stimuli/s48_1x_2.55_256.png,250,1x,2.55,3.0,2843,253,meters,jsons/MX_seq36_1_VE250.json,409427,842886,25,Man
35,384207,final-intermixed-textured,v2,jsons/MX_seq36_1_VE250.json,http://54.235.29.9/FacialAge/BNav_EC2/DepthDuration/MX_fS_VE_MTurk/MX_fS_HTML.html#262,262,1920,919,1920,1080,0-31-2024,19-11-25,36,VR_target_stimuli/s19_0.75x_1.21_257_BC.png,250,0.75x,1.21,2.0,3553,243,meters,jsons/MX_seq36_1_VE250.json,409427,842886,25,Man
36,384207,final-intermixed-textured,v2,jsons/MX_seq36_1_VE250.json,http://54.235.29.9/FacialAge/BNav_EC2/DepthDuration/MX_fS_VE_MTurk/MX_fS_HTML.html#262,262,1920,919,1920,1080,0-31-2024,19-11-25,37,VR_target_stimuli/s21_1.3x_4.22_384.png,250,1.3x,4.22,6.0,4486,263,meters,jsons/MX_seq36_1_VE250.json,409427,842886,25,Man
37,384207,final-intermixed-textured,v2,jsons/MX_seq36_1_VE250.json,http://54.235.29.9/FacialAge/BNav_EC2/DepthDuration/MX_fS_VE_MTurk/MX_fS_HTML.html#262,262,1920,919,1920,1080,0-31-2024,19-11-25,38,VR_target_stimuli/s8_1.3x_3.1_345_BC.png,250,1.3x,3.1,5.0,6614,262,meters,jsons/MX_seq36_1_VE250.json,409427,842886,25,Man
38,384207,final-intermixed-textured,v2,jsons/MX_seq36_1_VE250.json,http://54.235.29.9/FacialAge/BNav_EC2/DepthDuration/MX_fS_VE_MTurk/MX_fS_HTML.html#262,262,1920,919,1920,1080,0-31-2024,19-11-25,39,VR_target_stimuli/s27_1x_1.76_248_BC.png,250,1x,1.76,3.0,8568,254,meters,jsons/MX_seq36_1_VE250.json,409427,842886,25,Man
39,384207,final-intermixed-textured,v2,jsons/MX_seq36_1_VE250.json,http://54.235.29.9/FacialAge/BNav_EC2/DepthDuration/MX_fS_VE_MTurk/MX_fS_HTML.html#262,262,1920,919,1920,1080,0-31-2024,19-11-25,40,VR_target_stimuli/s15_0.75x_4.2_388.png,250,0.75x,4.2,5.0,4681,239,meters,jsons/MX_seq36_1_VE250.json,409427,842886,25,Man
40,384207,final-intermixed-textured,v2,jsons/MX_seq36_1_VE250.json,http://54.235.29.9/FacialAge/BNav_EC2/DepthDuration/MX_fS_VE_MTurk/MX_fS_HTML.html#262,262,1920,919,1920,1080,0-31-2024,19-11-25,41,VR_target_stimuli/s4_1x_1.4_313_BC.png,250,1x,1.4,2.0,2800,244,meters,jsons/MX_seq36_1_VE250.json,409427,842886,25,Man
41,384207,final-intermixed-textured,v2,jsons/MX_seq36_1_VE250.json,http://54.235.29.9/FacialAge/BNav_EC2/DepthDuration/MX_fS_VE_MTurk/MX_fS_HTML.html#262,262,1920,919,1920,1080,0-31-2024,19-11-25,42,VR_target_stimuli/s35_1.3x_2_338_BC.png,250,1.3x,2.0,3.0,3475,251,meters,jsons/MX_seq36_1_VE250.json,409427,842886,25,Man
42,384207,final-intermixed-textured,v2,jsons/MX_seq36_1_VE250.json,http://54.235.29.9/FacialAge/BNav_EC2/DepthDuration/MX_fS_VE_MTurk/MX_fS_HTML.html#262,262,1920,919,1920,1080,0-31-2024,19-11-25,43,VR_target_stimuli/s49_0.75x_4.67_328.png,250,0.75x,4.67,6.0,5305,240,meters,jsons/MX_seq36_1_VE250.json,409427,842886,25,Man
43,384207,final-intermixed-textured,v2,jsons/MX_seq36_1_VE250.json,http://54.235.29.9/FacialAge/BNav_EC2/DepthDuration/MX_fS_VE_MTurk/MX_fS_HTML.html#262,262,1920,919,1920,1080,0-31-2024,19-11-25,44,VR_target_stimuli/s7_1.3x_1.5_256.png,250,1.3x,1.5,2.5,6255,238,meters,jsons/MX_seq36_1_VE250.json,409427,842886,25,Man
44,384207,final-intermixed-textured,v2,jsons/MX_seq36_1_VE250.json,http://54.235.29.9/FacialAge/BNav_EC2/DepthDuration/MX_fS_VE_MTurk/MX_fS_HTML.html#262,262,1920,919,1920,1080,0-31-2024,19-11-25,45,catch_stimuli/c4.png,250,,,0.0,3845,252,meters,jsons/MX_seq36_1_VE250.json,409427,842886,25,Man
45,384207,final-intermixed-textured,v2,jsons/MX_seq36_1_VE250.json,http://54.235.29.9/FacialAge/BNav_EC2/DepthDuration/MX_fS_VE_MTurk/MX_fS_HTML.html#262,262,1920,919,1920,1080,0-31-2024,19-11-25,46,VR_target_stimuli/s20_1x_4.99_398.png,250,1x,4.99,6.0,3030,252,meters,jsons/MX_seq36_1_VE250.json,409427,842886,25,Man
46,384207,final-intermixed-textured,v2,jsons/MX_seq36_1_VE250.json,http://54.235.29.9/FacialAge/BNav_EC2/DepthDuration/MX_fS_VE_MTurk/MX_fS_HTML.html#262,262,1920,919,1920,1080,0-31-2024,19-11-25,47,VR_target_stimuli/s31_0.75x_4.96_329_BC.png,250,0.75x,4.96,6.0,3267,257,meters,jsons/MX_seq36_1_VE250.json,409427,842886,25,Man
47,384207,final-intermixed-textured,v2,jsons/MX_seq36_1_VE250.json,http://54.235.29.9/FacialAge/BNav_EC2/DepthDuration/MX_fS_VE_MTurk/MX_fS_HTML.html#262,262,1920,919,1920,1080,0-31-2024,19-11-25,48,VR_target_stimuli/s33_0.75x_3.1_361.png,250,0.75x,3.1,4.0,3663,247,meters,jsons/MX_seq36_1_VE250.json,409427,842886,25,Man
48,384207,final-intermixed-textured,v2,jsons/MX_seq36_1_VE250.json,http://54.235.29.9/FacialAge/BNav_EC2/DepthDuration/MX_fS_VE_MTurk/MX_fS_HTML.html#262,262,1920,919,1920,1080,0-31-2024,19-11-25,49,VR_target_stimuli/s52_1.3x_3.2_280.png,250,1.3x,3.2,4.0,5659,261,meters,jsons/MX_seq36_1_VE250.json,409427,842886,25,Man
49,384207,final-intermixed-textured,v2,jsons/MX_seq36_1_VE250.json,http://54.235.29.9/FacialAge/BNav_EC2/DepthDuration/MX_fS_VE_MTurk/MX_fS_HTML.html#262,262,1920,919,1920,1080,0-31-2024,19-11-25,50,VR_target_stimuli/s32_1x_1.5_218.png,250,1x,1.5,3.0,2665,251,meters,jsons/MX_seq36_1_VE250.json,409427,842886,25,Man
50,384207,final-intermixed-textured,v2,jsons/MX_seq36_1_VE250.json,http://54.235.29.9/FacialAge/BNav_EC2/DepthDuration/MX_fS_VE_MTurk/MX_fS_HTML.html#262,262,1920,919,1920,1080,0-31-2024,19-11-25,51,VR_target_stimuli/s18_1.3x_2.25_368_BC.png,250,1.3x,2.25,3.0,2178,251,meters,jsons/MX_seq36_1_VE250.json,409427,842886,25,Man
51,384207,final-intermixed-textured,v2,jsons/MX_seq36_1_VE250.json,http://54.235.29.9/FacialAge/BNav_EC2/DepthDuration/MX_fS_VE_MTurk/MX_fS_HTML.html#262,262,1920,919,1920,1080,0-31-2024,19-11-25,52,VR_target_stimuli/s39_0.75x_1_205_BC.png,250,0.75x,1.0,1.5,6094,254,meters,jsons/MX_seq36_1_VE250.json,409427,842886,25,Man
52,384207,final-intermixed-textured,v2,jsons/MX_seq36_1_VE250.json,http://54.235.29.9/FacialAge/BNav_EC2/DepthDuration/MX_fS_VE_MTurk/MX_fS_HTML.html#262,262,1920,919,1920,1080,0-31-2024,19-11-25,53,catch_stimuli/c5.png,250,,,0.0,3377,253,meters,jsons/MX_seq36_1_VE250.json,409427,842886,25,Man
53,384207,final-intermixed-textured,v2,jsons/MX_seq36_1_VE250.json,http://54.235.29.9/FacialAge/BNav_EC2/DepthDuration/MX_fS_VE_MTurk/MX_fS_HTML.html#262,262,1920,919,1920,1080,0-31-2024,19-11-25,54,VR_target_stimuli/s51_1x_3.64_461_BC.png,250,1x,3.64,2.0,5631,250,meters,jsons/MX_seq36_1_VE250.json,409427,842886,25,Man
54,384207,final-intermixed-textured,v2,jsons/MX_seq36_1_VE250.json,http://54.235.29.9/FacialAge/BNav_EC2/DepthDuration/MX_fS_VE_MTurk/MX_fS_HTML.html#262,262,1920,919,1920,1080,0-31-2024,19-11-25,55,VR_target_stimuli/s43_0.75x_2.2_348.png,250,0.75x,2.2,4.5,9106,254,meters,jsons/MX_seq36_1_VE250.json,409427,842886,25,Man
55,384207,final-intermixed-textured,v2,jsons/MX_seq36_1_VE250.json,http://54.235.29.9/FacialAge/BNav_EC2/DepthDuration/MX_fS_VE_MTurk/MX_fS_HTML.html#262,262,1920,919,1920,1080,0-31-2024,19-11-25,56,VR_target_stimuli/s24_1.3x_3.3_352.png,250,1.3x,3.3,3.5,4733,256,meters,jsons/MX_seq36_1_VE250.json,409427,842886,25,Man
56,384207,final-intermixed-textured,v2,jsons/MX_seq36_1_VE250.json,http://54.235.29.9/FacialAge/BNav_EC2/DepthDuration/MX_fS_VE_MTurk/MX_fS_HTML.html#262,262,1920,919,1920,1080,0-31-2024,19-11-25,57,VR_target_stimuli/s10_1x_2.7_324_BC.png,250,1x,2.7,3.2,20773,253,meters,jsons/MX_seq36_1_VE250.json,409427,842886,25,Man
57,384207,final-intermixed-textured,v2,jsons/MX_seq36_1_VE250.json,http://54.235.29.9/FacialAge/BNav_EC2/DepthDuration/MX_fS_VE_MTurk/MX_fS_HTML.html#262,262,1920,919,1920,1080,0-31-2024,19-11-25,58,VR_target_stimuli/s36_1x_4.1_423.png,250,1x,4.1,5.0,3623,250,meters,jsons/MX_seq36_1_VE250.json,409427,842886,25,Man
58,384207,final-intermixed-textured,v2,jsons/MX_seq36_1_VE250.json,http://54.235.29.9/FacialAge/BNav_EC2/DepthDuration/MX_fS_VE_MTurk/MX_fS_HTML.html#262,262,1920,919,1920,1080,0-31-2024,19-11-25,59,VR_target_stimuli/s40_0.75x_1.2_308_BC.png,250,0.75x,1.2,1.8,6203,253,meters,jsons/MX_seq36_1_VE250.json,409427,842886,25,Man
59,384207,final-intermixed-textured,v2,jsons/MX_seq36_1_VE250.json,http://54.235.29.9/FacialAge/BNav_EC2/DepthDuration/MX_fS_VE_MTurk/MX_fS_HTML.html#262,262,1920,919,1920,1080,0-31-2024,19-11-25,60,VR_target_stimuli/s41_1.3x_2.1_294_BC.png,250,1.3x,2.1,3.2,5370,253,meters,jsons/MX_seq36_1_VE250.json,409427,842886,25,Man
