,subjID,experimentName,versionName,sequenceName,url,selected_row,windowWidth,windowHeight,screenWidth,screenHeight,startDate,startTime,trial,stimulus,duration,scale,actual_depth,depth_estimate,trial_RT,log_sceneDuration,unitSelection,seq_filepath,experimentTime,totalTime,age,gender
0,417341,final-intermixed-textured,v2,jsons/MX_seq8_0_VE250.json,http://54.235.29.9/FacialAge/BNav_EC2/DepthDuration/MX_fS_VE_MTurk/MX_fS_HTML.html#274,274,958,943,1920,1080,0-31-2024,22-3-15,1,VR_target_stimuli/s14_0.75x_3.83_355.png,250,0.75x,3.83,10.0,3077,249,meters,jsons/MX_seq8_0_VE250.json,250493,535129,24,Woman
1,417341,final-intermixed-textured,v2,jsons/MX_seq8_0_VE250.json,http://54.235.29.9/FacialAge/BNav_EC2/DepthDuration/MX_fS_VE_MTurk/MX_fS_HTML.html#274,274,958,943,1920,1080,0-31-2024,22-3-15,2,VR_target_stimuli/s47_1x_3.45_370_BC.png,250,1x,3.45,2.0,6275,235,meters,jsons/MX_seq8_0_VE250.json,250493,535129,24,Woman
2,417341,final-intermixed-textured,v2,jsons/MX_seq8_0_VE250.json,http://54.235.29.9/FacialAge/BNav_EC2/DepthDuration/MX_fS_VE_MTurk/MX_fS_HTML.html#274,274,958,943,1920,1080,0-31-2024,22-3-15,3,VR_target_stimuli/s29_1.3x_1.3_253_BC.png,250,1.3x,1.3,3.0,6031,249,meters,jsons/MX_seq8_0_VE250.json,250493,535129,24,Woman
3,417341,final-intermixed-textured,v2,jsons/MX_seq8_0_VE250.json,http://54.235.29.9/FacialAge/BNav_EC2/DepthDuration/MX_fS_VE_MTurk/MX_fS_HTML.html#274,274,958,943,1920,1080,0-31-2024,22-3-15,4,VR_target_stimuli/s28_1x_3.2_362.png,250,1x,3.2,5.0,2387,250,meters,jsons/MX_seq8_0_VE250.json,250493,535129,24,Woman
4,417341,final-intermixed-textured,v2,jsons/MX_seq8_0_VE250.json,http://54.235.29.9/FacialAge/BNav_EC2/DepthDuration/MX_fS_VE_MTurk/MX_fS_HTML.html#274,274,958,943,1920,1080,0-31-2024,22-3-15,5,VR_target_stimuli/s48_0.75x_2.55_243_BC.png,250,0.75x,2.55,3.5,5354,252,meters,jsons/MX_seq8_0_VE250.json,250493,535129,24,Woman
5,417341,final-intermixed-textured,v2,jsons/MX_seq8_0_VE250.json,http://54.235.29.9/FacialAge/BNav_EC2/DepthDuration/MX_fS_VE_MTurk/MX_fS_HTML.html#274,274,958,943,1920,1080,0-31-2024,22-3-15,6,VR_target_stimuli/s19_1.3x_1.21_270.png,250,1.3x,1.21,1.5,3469,248,meters,jsons/MX_seq8_0_VE250.json,250493,535129,24,Woman
6,417341,final-intermixed-textured,v2,jsons/MX_seq8_0_VE250.json,http://54.235.29.9/FacialAge/BNav_EC2/DepthDuration/MX_fS_VE_MTurk/MX_fS_HTML.html#274,274,958,943,1920,1080,0-31-2024,22-3-15,7,catch_stimuli/c0.png,250,,,0.0,2324,246,meters,jsons/MX_seq8_0_VE250.json,250493,535129,24,Woman
7,417341,final-intermixed-textured,v2,jsons/MX_seq8_0_VE250.json,http://54.235.29.9/FacialAge/BNav_EC2/DepthDuration/MX_fS_VE_MTurk/MX_fS_HTML.html#274,274,958,943,1920,1080,0-31-2024,22-3-15,8,VR_target_stimuli/s21_1.3x_4.22_384.png,250,1.3x,4.22,0.0,2972,248,meters,jsons/MX_seq8_0_VE250.json,250493,535129,24,Woman
8,417341,final-intermixed-textured,v2,jsons/MX_seq8_0_VE250.json,http://54.235.29.9/FacialAge/BNav_EC2/DepthDuration/MX_fS_VE_MTurk/MX_fS_HTML.html#274,274,958,943,1920,1080,0-31-2024,22-3-15,9,VR_target_stimuli/s8_1x_3.1_332.png,250,1x,3.1,5.0,3372,249,meters,jsons/MX_seq8_0_VE250.json,250493,535129,24,Woman
9,417341,final-intermixed-textured,v2,jsons/MX_seq8_0_VE250.json,http://54.235.29.9/FacialAge/BNav_EC2/DepthDuration/MX_fS_VE_MTurk/MX_fS_HTML.html#274,274,958,943,1920,1080,0-31-2024,22-3-15,10,VR_target_stimuli/s27_0.75x_1.76_243.png,250,0.75x,1.76,2.5,3180,249,meters,jsons/MX_seq8_0_VE250.json,250493,535129,24,Woman
10,417341,final-intermixed-textured,v2,jsons/MX_seq8_0_VE250.json,http://54.235.29.9/FacialAge/BNav_EC2/DepthDuration/MX_fS_VE_MTurk/MX_fS_HTML.html#274,274,958,943,1920,1080,0-31-2024,22-3-15,11,VR_target_stimuli/s15_1x_4.2_390_BC.png,250,1x,4.2,10.0,3145,251,meters,jsons/MX_seq8_0_VE250.json,250493,535129,24,Woman
11,417341,final-intermixed-textured,v2,jsons/MX_seq8_0_VE250.json,http://54.235.29.9/FacialAge/BNav_EC2/DepthDuration/MX_fS_VE_MTurk/MX_fS_HTML.html#274,274,958,943,1920,1080,0-31-2024,22-3-15,12,VR_target_stimuli/s4_1.3x_1.4_328_BC.png,250,1.3x,1.4,1.5,4100,250,meters,jsons/MX_seq8_0_VE250.json,250493,535129,24,Woman
12,417341,final-intermixed-textured,v2,jsons/MX_seq8_0_VE250.json,http://54.235.29.9/FacialAge/BNav_EC2/DepthDuration/MX_fS_VE_MTurk/MX_fS_HTML.html#274,274,958,943,1920,1080,0-31-2024,22-3-15,13,VR_target_stimuli/s35_0.75x_2_323_BC.png,250,0.75x,2.0,3.0,8327,250,meters,jsons/MX_seq8_0_VE250.json,250493,535129,24,Woman
13,417341,final-intermixed-textured,v2,jsons/MX_seq8_0_VE250.json,http://54.235.29.9/FacialAge/BNav_EC2/DepthDuration/MX_fS_VE_MTurk/MX_fS_HTML.html#274,274,958,943,1920,1080,0-31-2024,22-3-15,14,VR_target_stimuli/s49_1.3x_4.67_354_BC.png,250,1.3x,4.67,5.0,2870,247,meters,jsons/MX_seq8_0_VE250.json,250493,535129,24,Woman
14,417341,final-intermixed-textured,v2,jsons/MX_seq8_0_VE250.json,http://54.235.29.9/FacialAge/BNav_EC2/DepthDuration/MX_fS_VE_MTurk/MX_fS_HTML.html#274,274,958,943,1920,1080,0-31-2024,22-3-15,15,VR_target_stimuli/s7_1x_1.5_255.png,250,1x,1.5,3.0,4058,249,meters,jsons/MX_seq8_0_VE250.json,250493,535129,24,Woman
15,417341,final-intermixed-textured,v2,jsons/MX_seq8_0_VE250.json,http://54.235.29.9/FacialAge/BNav_EC2/DepthDuration/MX_fS_VE_MTurk/MX_fS_HTML.html#274,274,958,943,1920,1080,0-31-2024,22-3-15,16,VR_target_stimuli/s20_0.75x_4.99_390.png,250,0.75x,4.99,7.0,3718,250,meters,jsons/MX_seq8_0_VE250.json,250493,535129,24,Woman
16,417341,final-intermixed-textured,v2,jsons/MX_seq8_0_VE250.json,http://54.235.29.9/FacialAge/BNav_EC2/DepthDuration/MX_fS_VE_MTurk/MX_fS_HTML.html#274,274,958,943,1920,1080,0-31-2024,22-3-15,17,catch_stimuli/c1.png,250,,,0.0,2290,248,meters,jsons/MX_seq8_0_VE250.json,250493,535129,24,Woman
17,417341,final-intermixed-textured,v2,jsons/MX_seq8_0_VE250.json,http://54.235.29.9/FacialAge/BNav_EC2/DepthDuration/MX_fS_VE_MTurk/MX_fS_HTML.html#274,274,958,943,1920,1080,0-31-2024,22-3-15,18,VR_target_stimuli/s31_0.75x_4.96_329_BC.png,250,0.75x,4.96,5.0,5259,248,meters,jsons/MX_seq8_0_VE250.json,250493,535129,24,Woman
18,417341,final-intermixed-textured,v2,jsons/MX_seq8_0_VE250.json,http://54.235.29.9/FacialAge/BNav_EC2/DepthDuration/MX_fS_VE_MTurk/MX_fS_HTML.html#274,274,958,943,1920,1080,0-31-2024,22-3-15,19,VR_target_stimuli/s33_1.3x_3.1_378.png,250,1.3x,3.1,5.0,3344,250,meters,jsons/MX_seq8_0_VE250.json,250493,535129,24,Woman
19,417341,final-intermixed-textured,v2,jsons/MX_seq8_0_VE250.json,http://54.235.29.9/FacialAge/BNav_EC2/DepthDuration/MX_fS_VE_MTurk/MX_fS_HTML.html#274,274,958,943,1920,1080,0-31-2024,22-3-15,20,VR_target_stimuli/s52_1x_3.2_275_BC.png,250,1x,3.2,5.0,3992,249,meters,jsons/MX_seq8_0_VE250.json,250493,535129,24,Woman
20,417341,final-intermixed-textured,v2,jsons/MX_seq8_0_VE250.json,http://54.235.29.9/FacialAge/BNav_EC2/DepthDuration/MX_fS_VE_MTurk/MX_fS_HTML.html#274,274,958,943,1920,1080,0-31-2024,22-3-15,21,VR_target_stimuli/s32_1.3x_1.5_224.png,250,1.3x,1.5,3.0,7823,249,meters,jsons/MX_seq8_0_VE250.json,250493,535129,24,Woman
21,417341,final-intermixed-textured,v2,jsons/MX_seq8_0_VE250.json,http://54.235.29.9/FacialAge/BNav_EC2/DepthDuration/MX_fS_VE_MTurk/MX_fS_HTML.html#274,274,958,943,1920,1080,0-31-2024,22-3-15,22,VR_target_stimuli/s18_0.75x_2.25_341.png,250,0.75x,2.25,3.0,2418,262,meters,jsons/MX_seq8_0_VE250.json,250493,535129,24,Woman
22,417341,final-intermixed-textured,v2,jsons/MX_seq8_0_VE250.json,http://54.235.29.9/FacialAge/BNav_EC2/DepthDuration/MX_fS_VE_MTurk/MX_fS_HTML.html#274,274,958,943,1920,1080,0-31-2024,22-3-15,23,VR_target_stimuli/s39_1x_1_207_BC.png,250,1x,1.0,1.0,2770,249,meters,jsons/MX_seq8_0_VE250.json,250493,535129,24,Woman
23,417341,final-intermixed-textured,v2,jsons/MX_seq8_0_VE250.json,http://54.235.29.9/FacialAge/BNav_EC2/DepthDuration/MX_fS_VE_MTurk/MX_fS_HTML.html#274,274,958,943,1920,1080,0-31-2024,22-3-15,24,VR_target_stimuli/s51_0.75x_3.64_460_BC.png,250,0.75x,3.64,3.5,3965,251,meters,jsons/MX_seq8_0_VE250.json,250493,535129,24,Woman
24,417341,final-intermixed-textured,v2,jsons/MX_seq8_0_VE250.json,http://54.235.29.9/FacialAge/BNav_EC2/DepthDuration/MX_fS_VE_MTurk/MX_fS_HTML.html#274,274,958,943,1920,1080,0-31-2024,22-3-15,25,VR_target_stimuli/s43_1.3x_2.2_363_BC.png,250,1.3x,2.2,3.5,4058,248,meters,jsons/MX_seq8_0_VE250.json,250493,535129,24,Woman
25,417341,final-intermixed-textured,v2,jsons/MX_seq8_0_VE250.json,http://54.235.29.9/FacialAge/BNav_EC2/DepthDuration/MX_fS_VE_MTurk/MX_fS_HTML.html#274,274,958,943,1920,1080,0-31-2024,22-3-15,26,catch_stimuli/c2.png,250,,,0.0,2977,250,meters,jsons/MX_seq8_0_VE250.json,250493,535129,24,Woman
26,417341,final-intermixed-textured,v2,jsons/MX_seq8_0_VE250.json,http://54.235.29.9/FacialAge/BNav_EC2/DepthDuration/MX_fS_VE_MTurk/MX_fS_HTML.html#274,274,958,943,1920,1080,0-31-2024,22-3-15,27,VR_target_stimuli/s24_1x_3.3_349.png,250,1x,3.3,4.5,4584,249,meters,jsons/MX_seq8_0_VE250.json,250493,535129,24,Woman
27,417341,final-intermixed-textured,v2,jsons/MX_seq8_0_VE250.json,http://54.235.29.9/FacialAge/BNav_EC2/DepthDuration/MX_fS_VE_MTurk/MX_fS_HTML.html#274,274,958,943,1920,1080,0-31-2024,22-3-15,28,VR_target_stimuli/s10_1x_2.7_324.png,250,1x,2.7,6.0,3348,247,meters,jsons/MX_seq8_0_VE250.json,250493,535129,24,Woman
28,417341,final-intermixed-textured,v2,jsons/MX_seq8_0_VE250.json,http://54.235.29.9/FacialAge/BNav_EC2/DepthDuration/MX_fS_VE_MTurk/MX_fS_HTML.html#274,274,958,943,1920,1080,0-31-2024,22-3-15,29,VR_target_stimuli/s36_0.75x_4.1_407.png,250,0.75x,4.1,6.0,5969,242,meters,jsons/MX_seq8_0_VE250.json,250493,535129,24,Woman
29,417341,final-intermixed-textured,v2,jsons/MX_seq8_0_VE250.json,http://54.235.29.9/FacialAge/BNav_EC2/DepthDuration/MX_fS_VE_MTurk/MX_fS_HTML.html#274,274,958,943,1920,1080,0-31-2024,22-3-15,30,VR_target_stimuli/s40_1.3x_1.2_332_BC.png,250,1.3x,1.2,1.5,3651,251,meters,jsons/MX_seq8_0_VE250.json,250493,535129,24,Woman
30,417341,final-intermixed-textured,v2,jsons/MX_seq8_0_VE250.json,http://54.235.29.9/FacialAge/BNav_EC2/DepthDuration/MX_fS_VE_MTurk/MX_fS_HTML.html#274,274,958,943,1920,1080,0-31-2024,22-3-15,31,VR_target_stimuli/s41_1x_2.1_286_BC.png,250,1x,2.1,0.0,2436,248,meters,jsons/MX_seq8_0_VE250.json,250493,535129,24,Woman
31,417341,final-intermixed-textured,v2,jsons/MX_seq8_0_VE250.json,http://54.235.29.9/FacialAge/BNav_EC2/DepthDuration/MX_fS_VE_MTurk/MX_fS_HTML.html#274,274,958,943,1920,1080,0-31-2024,22-3-15,32,VR_target_stimuli/s45_1.3x_3.5_377.png,250,1.3x,3.5,3.0,2338,249,meters,jsons/MX_seq8_0_VE250.json,250493,535129,24,Woman
32,417341,final-intermixed-textured,v2,jsons/MX_seq8_0_VE250.json,http://54.235.29.9/FacialAge/BNav_EC2/DepthDuration/MX_fS_VE_MTurk/MX_fS_HTML.html#274,274,958,943,1920,1080,0-31-2024,22-3-15,33,VR_target_stimuli/s23_0.75x_3.65_351_BC.png,250,0.75x,3.65,0.0,2541,244,meters,jsons/MX_seq8_0_VE250.json,250493,535129,24,Woman
33,417341,final-intermixed-textured,v2,jsons/MX_seq8_0_VE250.json,http://54.235.29.9/FacialAge/BNav_EC2/DepthDuration/MX_fS_VE_MTurk/MX_fS_HTML.html#274,274,958,943,1920,1080,0-31-2024,22-3-15,34,catch_stimuli/c3.png,250,,,0.0,1960,248,meters,jsons/MX_seq8_0_VE250.json,250493,535129,24,Woman
34,417341,final-intermixed-textured,v2,jsons/MX_seq8_0_VE250.json,http://54.235.29.9/FacialAge/BNav_EC2/DepthDuration/MX_fS_VE_MTurk/MX_fS_HTML.html#274,274,958,943,1920,1080,0-31-2024,22-3-15,35,VR_target_stimuli/s26_1.3x_4_441_BC.png,250,1.3x,4.0,4.5,2772,235,meters,jsons/MX_seq8_0_VE250.json,250493,535129,24,Woman
35,417341,final-intermixed-textured,v2,jsons/MX_seq8_0_VE250.json,http://54.235.29.9/FacialAge/BNav_EC2/DepthDuration/MX_fS_VE_MTurk/MX_fS_HTML.html#274,274,958,943,1920,1080,0-31-2024,22-3-15,36,VR_target_stimuli/s12_1x_3.1_372.png,250,1x,3.1,6.0,2310,252,meters,jsons/MX_seq8_0_VE250.json,250493,535129,24,Woman
36,417341,final-intermixed-textured,v2,jsons/MX_seq8_0_VE250.json,http://54.235.29.9/FacialAge/BNav_EC2/DepthDuration/MX_fS_VE_MTurk/MX_fS_HTML.html#274,274,958,943,1920,1080,0-31-2024,22-3-15,37,VR_target_stimuli/s30_0.75x_2.3_332_BC.png,250,0.75x,2.3,5.5,5128,249,meters,jsons/MX_seq8_0_VE250.json,250493,535129,24,Woman
37,417341,final-intermixed-textured,v2,jsons/MX_seq8_0_VE250.json,http://54.235.29.9/FacialAge/BNav_EC2/DepthDuration/MX_fS_VE_MTurk/MX_fS_HTML.html#274,274,958,943,1920,1080,0-31-2024,22-3-15,38,VR_target_stimuli/s16_0.75x_1_217.png,250,0.75x,1.0,3.0,2124,251,meters,jsons/MX_seq8_0_VE250.json,250493,535129,24,Woman
38,417341,final-intermixed-textured,v2,jsons/MX_seq8_0_VE250.json,http://54.235.29.9/FacialAge/BNav_EC2/DepthDuration/MX_fS_VE_MTurk/MX_fS_HTML.html#274,274,958,943,1920,1080,0-31-2024,22-3-15,39,VR_target_stimuli/s17_1.3x_1.8_300.png,250,1.3x,1.8,2.0,2333,252,meters,jsons/MX_seq8_0_VE250.json,250493,535129,24,Woman
39,417341,final-intermixed-textured,v2,jsons/MX_seq8_0_VE250.json,http://54.235.29.9/FacialAge/BNav_EC2/DepthDuration/MX_fS_VE_MTurk/MX_fS_HTML.html#274,274,958,943,1920,1080,0-31-2024,22-3-15,40,VR_target_stimuli/s5_1x_4_378_BC.png,250,1x,4.0,5.5,2685,249,meters,jsons/MX_seq8_0_VE250.json,250493,535129,24,Woman
40,417341,final-intermixed-textured,v2,jsons/MX_seq8_0_VE250.json,http://54.235.29.9/FacialAge/BNav_EC2/DepthDuration/MX_fS_VE_MTurk/MX_fS_HTML.html#274,274,958,943,1920,1080,0-31-2024,22-3-15,41,VR_target_stimuli/s37_1.3x_3.3_555.png,250,1.3x,3.3,2.0,3260,248,meters,jsons/MX_seq8_0_VE250.json,250493,535129,24,Woman
41,417341,final-intermixed-textured,v2,jsons/MX_seq8_0_VE250.json,http://54.235.29.9/FacialAge/BNav_EC2/DepthDuration/MX_fS_VE_MTurk/MX_fS_HTML.html#274,274,958,943,1920,1080,0-31-2024,22-3-15,42,VR_target_stimuli/s46_0.75x_2.42_343_BC.png,250,0.75x,2.42,7.0,3043,249,meters,jsons/MX_seq8_0_VE250.json,250493,535129,24,Woman
42,417341,final-intermixed-textured,v2,jsons/MX_seq8_0_VE250.json,http://54.235.29.9/FacialAge/BNav_EC2/DepthDuration/MX_fS_VE_MTurk/MX_fS_HTML.html#274,274,958,943,1920,1080,0-31-2024,22-3-15,43,VR_target_stimuli/s22_1x_4.29_354.png,250,1x,4.29,7.5,10198,248,meters,jsons/MX_seq8_0_VE250.json,250493,535129,24,Woman
43,417341,final-intermixed-textured,v2,jsons/MX_seq8_0_VE250.json,http://54.235.29.9/FacialAge/BNav_EC2/DepthDuration/MX_fS_VE_MTurk/MX_fS_HTML.html#274,274,958,943,1920,1080,0-31-2024,22-3-15,44,VR_target_stimuli/s42_0.75x_3.2_301.png,250,0.75x,3.2,5.0,5092,250,meters,jsons/MX_seq8_0_VE250.json,250493,535129,24,Woman
44,417341,final-intermixed-textured,v2,jsons/MX_seq8_0_VE250.json,http://54.235.29.9/FacialAge/BNav_EC2/DepthDuration/MX_fS_VE_MTurk/MX_fS_HTML.html#274,274,958,943,1920,1080,0-31-2024,22-3-15,45,catch_stimuli/c4.png,250,,,0.0,2672,248,meters,jsons/MX_seq8_0_VE250.json,250493,535129,24,Woman
45,417341,final-intermixed-textured,v2,jsons/MX_seq8_0_VE250.json,http://54.235.29.9/FacialAge/BNav_EC2/DepthDuration/MX_fS_VE_MTurk/MX_fS_HTML.html#274,274,958,943,1920,1080,0-31-2024,22-3-15,46,VR_target_stimuli/s25_1.3x_1.4_299_BC.png,250,1.3x,1.4,2.0,5828,247,meters,jsons/MX_seq8_0_VE250.json,250493,535129,24,Woman
46,417341,final-intermixed-textured,v2,jsons/MX_seq8_0_VE250.json,http://54.235.29.9/FacialAge/BNav_EC2/DepthDuration/MX_fS_VE_MTurk/MX_fS_HTML.html#274,274,958,943,1920,1080,0-31-2024,22-3-15,47,VR_target_stimuli/s50_1x_4.53_518_BC.png,250,1x,4.53,5.5,2666,249,meters,jsons/MX_seq8_0_VE250.json,250493,535129,24,Woman
47,417341,final-intermixed-textured,v2,jsons/MX_seq8_0_VE250.json,http://54.235.29.9/FacialAge/BNav_EC2/DepthDuration/MX_fS_VE_MTurk/MX_fS_HTML.html#274,274,958,943,1920,1080,0-31-2024,22-3-15,48,VR_target_stimuli/s53_1x_1.6_387_BC.png,250,1x,1.6,4.5,3477,246,meters,jsons/MX_seq8_0_VE250.json,250493,535129,24,Woman
48,417341,final-intermixed-textured,v2,jsons/MX_seq8_0_VE250.json,http://54.235.29.9/FacialAge/BNav_EC2/DepthDuration/MX_fS_VE_MTurk/MX_fS_HTML.html#274,274,958,943,1920,1080,0-31-2024,22-3-15,49,VR_target_stimuli/s38_0.75x_3.55_346.png,250,0.75x,3.55,9.0,2975,248,meters,jsons/MX_seq8_0_VE250.json,250493,535129,24,Woman
49,417341,final-intermixed-textured,v2,jsons/MX_seq8_0_VE250.json,http://54.235.29.9/FacialAge/BNav_EC2/DepthDuration/MX_fS_VE_MTurk/MX_fS_HTML.html#274,274,958,943,1920,1080,0-31-2024,22-3-15,50,VR_target_stimuli/s9_1.3x_1.2_276.png,250,1.3x,1.2,10.0,4720,255,meters,jsons/MX_seq8_0_VE250.json,250493,535129,24,Woman
50,417341,final-intermixed-textured,v2,jsons/MX_seq8_0_VE250.json,http://54.235.29.9/FacialAge/BNav_EC2/DepthDuration/MX_fS_VE_MTurk/MX_fS_HTML.html#274,274,958,943,1920,1080,0-31-2024,22-3-15,51,VR_target_stimuli/s44_0.75x_4.4_314_BC.png,250,0.75x,4.4,12.0,2418,248,meters,jsons/MX_seq8_0_VE250.json,250493,535129,24,Woman
51,417341,final-intermixed-textured,v2,jsons/MX_seq8_0_VE250.json,http://54.235.29.9/FacialAge/BNav_EC2/DepthDuration/MX_fS_VE_MTurk/MX_fS_HTML.html#274,274,958,943,1920,1080,0-31-2024,22-3-15,52,VR_target_stimuli/s3_1x_5_385.png,250,1x,5.0,12.0,2281,248,meters,jsons/MX_seq8_0_VE250.json,250493,535129,24,Woman
52,417341,final-intermixed-textured,v2,jsons/MX_seq8_0_VE250.json,http://54.235.29.9/FacialAge/BNav_EC2/DepthDuration/MX_fS_VE_MTurk/MX_fS_HTML.html#274,274,958,943,1920,1080,0-31-2024,22-3-15,53,catch_stimuli/c5.png,250,,,0.0,2081,250,meters,jsons/MX_seq8_0_VE250.json,250493,535129,24,Woman
53,417341,final-intermixed-textured,v2,jsons/MX_seq8_0_VE250.json,http://54.235.29.9/FacialAge/BNav_EC2/DepthDuration/MX_fS_VE_MTurk/MX_fS_HTML.html#274,274,958,943,1920,1080,0-31-2024,22-3-15,54,VR_target_stimuli/s1_1.3x_1.7_261_BC.png,250,1.3x,1.7,4.0,2874,250,meters,jsons/MX_seq8_0_VE250.json,250493,535129,24,Woman
54,417341,final-intermixed-textured,v2,jsons/MX_seq8_0_VE250.json,http://54.235.29.9/FacialAge/BNav_EC2/DepthDuration/MX_fS_VE_MTurk/MX_fS_HTML.html#274,274,958,943,1920,1080,0-31-2024,22-3-15,55,VR_target_stimuli/s11_1x_5_361.png,250,1x,5.0,8.0,2514,249,meters,jsons/MX_seq8_0_VE250.json,250493,535129,24,Woman
55,417341,final-intermixed-textured,v2,jsons/MX_seq8_0_VE250.json,http://54.235.29.9/FacialAge/BNav_EC2/DepthDuration/MX_fS_VE_MTurk/MX_fS_HTML.html#274,274,958,943,1920,1080,0-31-2024,22-3-15,56,VR_target_stimuli/s2_0.75x_2.7_384.png,250,0.75x,2.7,0.0,1916,252,meters,jsons/MX_seq8_0_VE250.json,250493,535129,24,Woman
56,417341,final-intermixed-textured,v2,jsons/MX_seq8_0_VE250.json,http://54.235.29.9/FacialAge/BNav_EC2/DepthDuration/MX_fS_VE_MTurk/MX_fS_HTML.html#274,274,958,943,1920,1080,0-31-2024,22-3-15,57,VR_target_stimuli/s6_1.3x_2.1_298_BC.png,250,1.3x,2.1,3.0,4967,250,meters,jsons/MX_seq8_0_VE250.json,250493,535129,24,Woman
57,417341,final-intermixed-textured,v2,jsons/MX_seq8_0_VE250.json,http://54.235.29.9/FacialAge/BNav_EC2/DepthDuration/MX_fS_VE_MTurk/MX_fS_HTML.html#274,274,958,943,1920,1080,0-31-2024,22-3-15,58,VR_target_stimuli/s0_1.3x_2.6_356.png,250,1.3x,2.6,6.5,4748,249,meters,jsons/MX_seq8_0_VE250.json,250493,535129,24,Woman
58,417341,final-intermixed-textured,v2,jsons/MX_seq8_0_VE250.json,http://54.235.29.9/FacialAge/BNav_EC2/DepthDuration/MX_fS_VE_MTurk/MX_fS_HTML.html#274,274,958,943,1920,1080,0-31-2024,22-3-15,59,VR_target_stimuli/s34_1x_2.8_283_BC.png,250,1x,2.8,6.0,2262,247,meters,jsons/MX_seq8_0_VE250.json,250493,535129,24,Woman
59,417341,final-intermixed-textured,v2,jsons/MX_seq8_0_VE250.json,http://54.235.29.9/FacialAge/BNav_EC2/DepthDuration/MX_fS_VE_MTurk/MX_fS_HTML.html#274,274,958,943,1920,1080,0-31-2024,22-3-15,60,VR_target_stimuli/s13_0.75x_2.4_308_BC.png,250,0.75x,2.4,7.0,2238,249,meters,jsons/MX_seq8_0_VE250.json,250493,535129,24,Woman
