,subjID,experimentName,versionName,sequenceName,url,selected_row,windowWidth,windowHeight,screenWidth,screenHeight,startDate,startTime,trial,stimulus,duration,scale,actual_depth,depth_estimate,trial_RT,log_sceneDuration,unitSelection,seq_filepath,experimentTime,totalTime,age,gender
0,425291,final-intermixed-textured,v2,jsons/MX_seq49_0_VE250_flipped.json,http://54.235.29.9/FacialAge/BNav_EC2/DepthDuration/MX_fS_VE_MTurk/MX_fS_HTML.html#239,239,980,1669,390,844,0-31-2024,12-32-4,1,VR_target_stimuli/s50_0.75x_4.53_517.png,250,0.75x,4.53,5,8374,250,feet,jsons/MX_seq49_0_VE250_flipped.json,363995,480719,24,Woman
1,425291,final-intermixed-textured,v2,jsons/MX_seq49_0_VE250_flipped.json,http://54.235.29.9/FacialAge/BNav_EC2/DepthDuration/MX_fS_VE_MTurk/MX_fS_HTML.html#239,239,980,1669,390,844,0-31-2024,12-32-4,2,VR_target_stimuli/s53_1x_1.6_387_BC.png,250,1x,1.6,3,10908,249,feet,jsons/MX_seq49_0_VE250_flipped.json,363995,480719,24,Woman
2,425291,final-intermixed-textured,v2,jsons/MX_seq49_0_VE250_flipped.json,http://54.235.29.9/FacialAge/BNav_EC2/DepthDuration/MX_fS_VE_MTurk/MX_fS_HTML.html#239,239,980,1669,390,844,0-31-2024,12-32-4,3,VR_target_stimuli/s38_1.3x_3.55_358.png,250,1.3x,3.55,4,7340,249,feet,jsons/MX_seq49_0_VE250_flipped.json,363995,480719,24,Woman
3,425291,final-intermixed-textured,v2,jsons/MX_seq49_0_VE250_flipped.json,http://54.235.29.9/FacialAge/BNav_EC2/DepthDuration/MX_fS_VE_MTurk/MX_fS_HTML.html#239,239,980,1669,390,844,0-31-2024,12-32-4,4,VR_target_stimuli/s9_1x_1.2_263.png,250,1x,1.2,2,6834,250,feet,jsons/MX_seq49_0_VE250_flipped.json,363995,480719,24,Woman
4,425291,final-intermixed-textured,v2,jsons/MX_seq49_0_VE250_flipped.json,http://54.235.29.9/FacialAge/BNav_EC2/DepthDuration/MX_fS_VE_MTurk/MX_fS_HTML.html#239,239,980,1669,390,844,0-31-2024,12-32-4,5,VR_target_stimuli/s44_0.75x_4.4_314_BC.png,250,0.75x,4.4,5,7839,250,feet,jsons/MX_seq49_0_VE250_flipped.json,363995,480719,24,Woman
5,425291,final-intermixed-textured,v2,jsons/MX_seq49_0_VE250_flipped.json,http://54.235.29.9/FacialAge/BNav_EC2/DepthDuration/MX_fS_VE_MTurk/MX_fS_HTML.html#239,239,980,1669,390,844,0-31-2024,12-32-4,6,VR_target_stimuli/s3_1.3x_5_390_BC.png,250,1.3x,5.0,10,6606,249,feet,jsons/MX_seq49_0_VE250_flipped.json,363995,480719,24,Woman
6,425291,final-intermixed-textured,v2,jsons/MX_seq49_0_VE250_flipped.json,http://54.235.29.9/FacialAge/BNav_EC2/DepthDuration/MX_fS_VE_MTurk/MX_fS_HTML.html#239,239,980,1669,390,844,0-31-2024,12-32-4,7,catch_stimuli/c0_BC.png,250,,,0,5676,250,feet,jsons/MX_seq49_0_VE250_flipped.json,363995,480719,24,Woman
7,425291,final-intermixed-textured,v2,jsons/MX_seq49_0_VE250_flipped.json,http://54.235.29.9/FacialAge/BNav_EC2/DepthDuration/MX_fS_VE_MTurk/MX_fS_HTML.html#239,239,980,1669,390,844,0-31-2024,12-32-4,8,VR_target_stimuli/s1_1.3x_1.7_261_BC.png,250,1.3x,1.7,8,4982,249,feet,jsons/MX_seq49_0_VE250_flipped.json,363995,480719,24,Woman
8,425291,final-intermixed-textured,v2,jsons/MX_seq49_0_VE250_flipped.json,http://54.235.29.9/FacialAge/BNav_EC2/DepthDuration/MX_fS_VE_MTurk/MX_fS_HTML.html#239,239,980,1669,390,844,0-31-2024,12-32-4,9,VR_target_stimuli/s11_1x_5_361.png,250,1x,5.0,10,5004,249,feet,jsons/MX_seq49_0_VE250_flipped.json,363995,480719,24,Woman
9,425291,final-intermixed-textured,v2,jsons/MX_seq49_0_VE250_flipped.json,http://54.235.29.9/FacialAge/BNav_EC2/DepthDuration/MX_fS_VE_MTurk/MX_fS_HTML.html#239,239,980,1669,390,844,0-31-2024,12-32-4,10,VR_target_stimuli/s2_0.75x_2.7_384_BC.png,250,0.75x,2.7,4,4703,249,feet,jsons/MX_seq49_0_VE250_flipped.json,363995,480719,24,Woman
10,425291,final-intermixed-textured,v2,jsons/MX_seq49_0_VE250_flipped.json,http://54.235.29.9/FacialAge/BNav_EC2/DepthDuration/MX_fS_VE_MTurk/MX_fS_HTML.html#239,239,980,1669,390,844,0-31-2024,12-32-4,11,VR_target_stimuli/s6_1x_2.1_293_BC.png,250,1x,2.1,5,4793,248,feet,jsons/MX_seq49_0_VE250_flipped.json,363995,480719,24,Woman
11,425291,final-intermixed-textured,v2,jsons/MX_seq49_0_VE250_flipped.json,http://54.235.29.9/FacialAge/BNav_EC2/DepthDuration/MX_fS_VE_MTurk/MX_fS_HTML.html#239,239,980,1669,390,844,0-31-2024,12-32-4,12,VR_target_stimuli/s0_1.3x_2.6_356.png,250,1.3x,2.6,5,5349,250,feet,jsons/MX_seq49_0_VE250_flipped.json,363995,480719,24,Woman
12,425291,final-intermixed-textured,v2,jsons/MX_seq49_0_VE250_flipped.json,http://54.235.29.9/FacialAge/BNav_EC2/DepthDuration/MX_fS_VE_MTurk/MX_fS_HTML.html#239,239,980,1669,390,844,0-31-2024,12-32-4,13,VR_target_stimuli/s34_0.75x_2.8_269.png,250,0.75x,2.8,7,5740,249,feet,jsons/MX_seq49_0_VE250_flipped.json,363995,480719,24,Woman
13,425291,final-intermixed-textured,v2,jsons/MX_seq49_0_VE250_flipped.json,http://54.235.29.9/FacialAge/BNav_EC2/DepthDuration/MX_fS_VE_MTurk/MX_fS_HTML.html#239,239,980,1669,390,844,0-31-2024,12-32-4,14,VR_target_stimuli/s13_1.3x_2.4_313.png,250,1.3x,2.4,6,6190,249,feet,jsons/MX_seq49_0_VE250_flipped.json,363995,480719,24,Woman
14,425291,final-intermixed-textured,v2,jsons/MX_seq49_0_VE250_flipped.json,http://54.235.29.9/FacialAge/BNav_EC2/DepthDuration/MX_fS_VE_MTurk/MX_fS_HTML.html#239,239,980,1669,390,844,0-31-2024,12-32-4,15,VR_target_stimuli/s14_1x_ 3.83_357_BC.png,250,1x,3.83,7,4871,249,feet,jsons/MX_seq49_0_VE250_flipped.json,363995,480719,24,Woman
15,425291,final-intermixed-textured,v2,jsons/MX_seq49_0_VE250_flipped.json,http://54.235.29.9/FacialAge/BNav_EC2/DepthDuration/MX_fS_VE_MTurk/MX_fS_HTML.html#239,239,980,1669,390,844,0-31-2024,12-32-4,16,VR_target_stimuli/s47_0.75x_3.45_366.png,250,0.75x,3.45,4,4755,250,feet,jsons/MX_seq49_0_VE250_flipped.json,363995,480719,24,Woman
16,425291,final-intermixed-textured,v2,jsons/MX_seq49_0_VE250_flipped.json,http://54.235.29.9/FacialAge/BNav_EC2/DepthDuration/MX_fS_VE_MTurk/MX_fS_HTML.html#239,239,980,1669,390,844,0-31-2024,12-32-4,17,catch_stimuli/c1_BC.png,250,,,0,4369,249,feet,jsons/MX_seq49_0_VE250_flipped.json,363995,480719,24,Woman
17,425291,final-intermixed-textured,v2,jsons/MX_seq49_0_VE250_flipped.json,http://54.235.29.9/FacialAge/BNav_EC2/DepthDuration/MX_fS_VE_MTurk/MX_fS_HTML.html#239,239,980,1669,390,844,0-31-2024,12-32-4,18,VR_target_stimuli/s29_0.75x_1.3_246_BC.png,250,0.75x,1.3,3,3607,250,feet,jsons/MX_seq49_0_VE250_flipped.json,363995,480719,24,Woman
18,425291,final-intermixed-textured,v2,jsons/MX_seq49_0_VE250_flipped.json,http://54.235.29.9/FacialAge/BNav_EC2/DepthDuration/MX_fS_VE_MTurk/MX_fS_HTML.html#239,239,980,1669,390,844,0-31-2024,12-32-4,19,VR_target_stimuli/s28_1.3x_3.2_365_BC.png,250,1.3x,3.2,4,8198,249,feet,jsons/MX_seq49_0_VE250_flipped.json,363995,480719,24,Woman
19,425291,final-intermixed-textured,v2,jsons/MX_seq49_0_VE250_flipped.json,http://54.235.29.9/FacialAge/BNav_EC2/DepthDuration/MX_fS_VE_MTurk/MX_fS_HTML.html#239,239,980,1669,390,844,0-31-2024,12-32-4,20,VR_target_stimuli/s48_1x_2.55_256.png,250,1x,2.55,4,4686,250,feet,jsons/MX_seq49_0_VE250_flipped.json,363995,480719,24,Woman
20,425291,final-intermixed-textured,v2,jsons/MX_seq49_0_VE250_flipped.json,http://54.235.29.9/FacialAge/BNav_EC2/DepthDuration/MX_fS_VE_MTurk/MX_fS_HTML.html#239,239,980,1669,390,844,0-31-2024,12-32-4,21,VR_target_stimuli/s19_1.3x_1.21_270.png,250,1.3x,1.21,4,4535,249,feet,jsons/MX_seq49_0_VE250_flipped.json,363995,480719,24,Woman
21,425291,final-intermixed-textured,v2,jsons/MX_seq49_0_VE250_flipped.json,http://54.235.29.9/FacialAge/BNav_EC2/DepthDuration/MX_fS_VE_MTurk/MX_fS_HTML.html#239,239,980,1669,390,844,0-31-2024,12-32-4,22,VR_target_stimuli/s21_0.75x_4.22_374_BC.png,250,0.75x,4.22,11,6192,249,feet,jsons/MX_seq49_0_VE250_flipped.json,363995,480719,24,Woman
22,425291,final-intermixed-textured,v2,jsons/MX_seq49_0_VE250_flipped.json,http://54.235.29.9/FacialAge/BNav_EC2/DepthDuration/MX_fS_VE_MTurk/MX_fS_HTML.html#239,239,980,1669,390,844,0-31-2024,12-32-4,23,VR_target_stimuli/s8_1x_3.1_332.png,250,1x,3.1,8,4601,250,feet,jsons/MX_seq49_0_VE250_flipped.json,363995,480719,24,Woman
23,425291,final-intermixed-textured,v2,jsons/MX_seq49_0_VE250_flipped.json,http://54.235.29.9/FacialAge/BNav_EC2/DepthDuration/MX_fS_VE_MTurk/MX_fS_HTML.html#239,239,980,1669,390,844,0-31-2024,12-32-4,24,VR_target_stimuli/s27_0.75x_1.76_243.png,250,0.75x,1.76,6,4597,249,feet,jsons/MX_seq49_0_VE250_flipped.json,363995,480719,24,Woman
24,425291,final-intermixed-textured,v2,jsons/MX_seq49_0_VE250_flipped.json,http://54.235.29.9/FacialAge/BNav_EC2/DepthDuration/MX_fS_VE_MTurk/MX_fS_HTML.html#239,239,980,1669,390,844,0-31-2024,12-32-4,25,VR_target_stimuli/s15_1.3x_4.2_389_BC.png,250,1.3x,4.2,10,4751,249,feet,jsons/MX_seq49_0_VE250_flipped.json,363995,480719,24,Woman
25,425291,final-intermixed-textured,v2,jsons/MX_seq49_0_VE250_flipped.json,http://54.235.29.9/FacialAge/BNav_EC2/DepthDuration/MX_fS_VE_MTurk/MX_fS_HTML.html#239,239,980,1669,390,844,0-31-2024,12-32-4,26,catch_stimuli/c2_BC.png,250,,,0,7224,250,feet,jsons/MX_seq49_0_VE250_flipped.json,363995,480719,24,Woman
26,425291,final-intermixed-textured,v2,jsons/MX_seq49_0_VE250_flipped.json,http://54.235.29.9/FacialAge/BNav_EC2/DepthDuration/MX_fS_VE_MTurk/MX_fS_HTML.html#239,239,980,1669,390,844,0-31-2024,12-32-4,27,VR_target_stimuli/s4_1x_1.4_313_BC.png,250,1x,1.4,3,4445,249,feet,jsons/MX_seq49_0_VE250_flipped.json,363995,480719,24,Woman
27,425291,final-intermixed-textured,v2,jsons/MX_seq49_0_VE250_flipped.json,http://54.235.29.9/FacialAge/BNav_EC2/DepthDuration/MX_fS_VE_MTurk/MX_fS_HTML.html#239,239,980,1669,390,844,0-31-2024,12-32-4,28,VR_target_stimuli/s35_1x_2_331_BC.png,250,1x,2.0,5,4350,250,feet,jsons/MX_seq49_0_VE250_flipped.json,363995,480719,24,Woman
28,425291,final-intermixed-textured,v2,jsons/MX_seq49_0_VE250_flipped.json,http://54.235.29.9/FacialAge/BNav_EC2/DepthDuration/MX_fS_VE_MTurk/MX_fS_HTML.html#239,239,980,1669,390,844,0-31-2024,12-32-4,29,VR_target_stimuli/s49_0.75x_4.67_328_BC.png,250,0.75x,4.67,9,4353,249,feet,jsons/MX_seq49_0_VE250_flipped.json,363995,480719,24,Woman
29,425291,final-intermixed-textured,v2,jsons/MX_seq49_0_VE250_flipped.json,http://54.235.29.9/FacialAge/BNav_EC2/DepthDuration/MX_fS_VE_MTurk/MX_fS_HTML.html#239,239,980,1669,390,844,0-31-2024,12-32-4,30,VR_target_stimuli/s7_1.3x_1.5_256_BC.png,250,1.3x,1.5,5,6117,249,feet,jsons/MX_seq49_0_VE250_flipped.json,363995,480719,24,Woman
30,425291,final-intermixed-textured,v2,jsons/MX_seq49_0_VE250_flipped.json,http://54.235.29.9/FacialAge/BNav_EC2/DepthDuration/MX_fS_VE_MTurk/MX_fS_HTML.html#239,239,980,1669,390,844,0-31-2024,12-32-4,31,VR_target_stimuli/s20_1x_4.99_398.png,250,1x,4.99,10,4635,250,feet,jsons/MX_seq49_0_VE250_flipped.json,363995,480719,24,Woman
31,425291,final-intermixed-textured,v2,jsons/MX_seq49_0_VE250_flipped.json,http://54.235.29.9/FacialAge/BNav_EC2/DepthDuration/MX_fS_VE_MTurk/MX_fS_HTML.html#239,239,980,1669,390,844,0-31-2024,12-32-4,32,VR_target_stimuli/s31_1.3x_4.96_342.png,250,1.3x,4.96,5,4451,250,feet,jsons/MX_seq49_0_VE250_flipped.json,363995,480719,24,Woman
32,425291,final-intermixed-textured,v2,jsons/MX_seq49_0_VE250_flipped.json,http://54.235.29.9/FacialAge/BNav_EC2/DepthDuration/MX_fS_VE_MTurk/MX_fS_HTML.html#239,239,980,1669,390,844,0-31-2024,12-32-4,33,VR_target_stimuli/s33_0.75x_3.1_361.png,250,0.75x,3.1,7,25223,249,feet,jsons/MX_seq49_0_VE250_flipped.json,363995,480719,24,Woman
33,425291,final-intermixed-textured,v2,jsons/MX_seq49_0_VE250_flipped.json,http://54.235.29.9/FacialAge/BNav_EC2/DepthDuration/MX_fS_VE_MTurk/MX_fS_HTML.html#239,239,980,1669,390,844,0-31-2024,12-32-4,34,catch_stimuli/c3_BC.png,250,,,0,4708,249,feet,jsons/MX_seq49_0_VE250_flipped.json,363995,480719,24,Woman
34,425291,final-intermixed-textured,v2,jsons/MX_seq49_0_VE250_flipped.json,http://54.235.29.9/FacialAge/BNav_EC2/DepthDuration/MX_fS_VE_MTurk/MX_fS_HTML.html#239,239,980,1669,390,844,0-31-2024,12-32-4,35,VR_target_stimuli/s52_1.3x_3.2_280_BC.png,250,1.3x,3.2,7,4479,249,feet,jsons/MX_seq49_0_VE250_flipped.json,363995,480719,24,Woman
35,425291,final-intermixed-textured,v2,jsons/MX_seq49_0_VE250_flipped.json,http://54.235.29.9/FacialAge/BNav_EC2/DepthDuration/MX_fS_VE_MTurk/MX_fS_HTML.html#239,239,980,1669,390,844,0-31-2024,12-32-4,36,VR_target_stimuli/s32_1x_1.5_218_BC.png,250,1x,1.5,6,4436,249,feet,jsons/MX_seq49_0_VE250_flipped.json,363995,480719,24,Woman
36,425291,final-intermixed-textured,v2,jsons/MX_seq49_0_VE250_flipped.json,http://54.235.29.9/FacialAge/BNav_EC2/DepthDuration/MX_fS_VE_MTurk/MX_fS_HTML.html#239,239,980,1669,390,844,0-31-2024,12-32-4,37,VR_target_stimuli/s18_0.75x_2.25_341_BC.png,250,0.75x,2.25,6,4937,249,feet,jsons/MX_seq49_0_VE250_flipped.json,363995,480719,24,Woman
37,425291,final-intermixed-textured,v2,jsons/MX_seq49_0_VE250_flipped.json,http://54.235.29.9/FacialAge/BNav_EC2/DepthDuration/MX_fS_VE_MTurk/MX_fS_HTML.html#239,239,980,1669,390,844,0-31-2024,12-32-4,38,VR_target_stimuli/s39_0.75x_1_205.png,250,0.75x,1.0,3,4774,249,feet,jsons/MX_seq49_0_VE250_flipped.json,363995,480719,24,Woman
38,425291,final-intermixed-textured,v2,jsons/MX_seq49_0_VE250_flipped.json,http://54.235.29.9/FacialAge/BNav_EC2/DepthDuration/MX_fS_VE_MTurk/MX_fS_HTML.html#239,239,980,1669,390,844,0-31-2024,12-32-4,39,VR_target_stimuli/s51_1.3x_3.64_479.png,250,1.3x,3.64,5,5096,249,feet,jsons/MX_seq49_0_VE250_flipped.json,363995,480719,24,Woman
39,425291,final-intermixed-textured,v2,jsons/MX_seq49_0_VE250_flipped.json,http://54.235.29.9/FacialAge/BNav_EC2/DepthDuration/MX_fS_VE_MTurk/MX_fS_HTML.html#239,239,980,1669,390,844,0-31-2024,12-32-4,40,VR_target_stimuli/s43_1x_2.2_354.png,250,1x,2.2,5,4588,249,feet,jsons/MX_seq49_0_VE250_flipped.json,363995,480719,24,Woman
40,425291,final-intermixed-textured,v2,jsons/MX_seq49_0_VE250_flipped.json,http://54.235.29.9/FacialAge/BNav_EC2/DepthDuration/MX_fS_VE_MTurk/MX_fS_HTML.html#239,239,980,1669,390,844,0-31-2024,12-32-4,41,VR_target_stimuli/s24_1.3x_3.3_352_BC.png,250,1.3x,3.3,7,4582,250,feet,jsons/MX_seq49_0_VE250_flipped.json,363995,480719,24,Woman
41,425291,final-intermixed-textured,v2,jsons/MX_seq49_0_VE250_flipped.json,http://54.235.29.9/FacialAge/BNav_EC2/DepthDuration/MX_fS_VE_MTurk/MX_fS_HTML.html#239,239,980,1669,390,844,0-31-2024,12-32-4,42,VR_target_stimuli/s10_0.75x_2.7_321_BC.png,250,0.75x,2.7,6,4334,250,feet,jsons/MX_seq49_0_VE250_flipped.json,363995,480719,24,Woman
42,425291,final-intermixed-textured,v2,jsons/MX_seq49_0_VE250_flipped.json,http://54.235.29.9/FacialAge/BNav_EC2/DepthDuration/MX_fS_VE_MTurk/MX_fS_HTML.html#239,239,980,1669,390,844,0-31-2024,12-32-4,43,VR_target_stimuli/s36_1x_4.1_423.png,250,1x,4.1,9,5036,250,feet,jsons/MX_seq49_0_VE250_flipped.json,363995,480719,24,Woman
43,425291,final-intermixed-textured,v2,jsons/MX_seq49_0_VE250_flipped.json,http://54.235.29.9/FacialAge/BNav_EC2/DepthDuration/MX_fS_VE_MTurk/MX_fS_HTML.html#239,239,980,1669,390,844,0-31-2024,12-32-4,44,VR_target_stimuli/s40_0.75x_1.2_308.png,250,0.75x,1.2,3,4503,250,feet,jsons/MX_seq49_0_VE250_flipped.json,363995,480719,24,Woman
44,425291,final-intermixed-textured,v2,jsons/MX_seq49_0_VE250_flipped.json,http://54.235.29.9/FacialAge/BNav_EC2/DepthDuration/MX_fS_VE_MTurk/MX_fS_HTML.html#239,239,980,1669,390,844,0-31-2024,12-32-4,45,catch_stimuli/c4_BC.png,250,,,0,5222,249,feet,jsons/MX_seq49_0_VE250_flipped.json,363995,480719,24,Woman
45,425291,final-intermixed-textured,v2,jsons/MX_seq49_0_VE250_flipped.json,http://54.235.29.9/FacialAge/BNav_EC2/DepthDuration/MX_fS_VE_MTurk/MX_fS_HTML.html#239,239,980,1669,390,844,0-31-2024,12-32-4,46,VR_target_stimuli/s41_1.3x_2.1_294.png,250,1.3x,2.1,6,4150,250,feet,jsons/MX_seq49_0_VE250_flipped.json,363995,480719,24,Woman
46,425291,final-intermixed-textured,v2,jsons/MX_seq49_0_VE250_flipped.json,http://54.235.29.9/FacialAge/BNav_EC2/DepthDuration/MX_fS_VE_MTurk/MX_fS_HTML.html#239,239,980,1669,390,844,0-31-2024,12-32-4,47,VR_target_stimuli/s45_1x_3.5_368_BC.png,250,1x,3.5,8,4169,250,feet,jsons/MX_seq49_0_VE250_flipped.json,363995,480719,24,Woman
47,425291,final-intermixed-textured,v2,jsons/MX_seq49_0_VE250_flipped.json,http://54.235.29.9/FacialAge/BNav_EC2/DepthDuration/MX_fS_VE_MTurk/MX_fS_HTML.html#239,239,980,1669,390,844,0-31-2024,12-32-4,48,VR_target_stimuli/s23_1x_3.65_353_BC.png,250,1x,3.65,7,4536,250,feet,jsons/MX_seq49_0_VE250_flipped.json,363995,480719,24,Woman
48,425291,final-intermixed-textured,v2,jsons/MX_seq49_0_VE250_flipped.json,http://54.235.29.9/FacialAge/BNav_EC2/DepthDuration/MX_fS_VE_MTurk/MX_fS_HTML.html#239,239,980,1669,390,844,0-31-2024,12-32-4,49,VR_target_stimuli/s26_0.75x_4_430_BC.png,250,0.75x,4.0,9,4321,249,feet,jsons/MX_seq49_0_VE250_flipped.json,363995,480719,24,Woman
49,425291,final-intermixed-textured,v2,jsons/MX_seq49_0_VE250_flipped.json,http://54.235.29.9/FacialAge/BNav_EC2/DepthDuration/MX_fS_VE_MTurk/MX_fS_HTML.html#239,239,980,1669,390,844,0-31-2024,12-32-4,50,VR_target_stimuli/s12_1.3x_3.1_375.png,250,1.3x,3.1,8,4201,249,feet,jsons/MX_seq49_0_VE250_flipped.json,363995,480719,24,Woman
50,425291,final-intermixed-textured,v2,jsons/MX_seq49_0_VE250_flipped.json,http://54.235.29.9/FacialAge/BNav_EC2/DepthDuration/MX_fS_VE_MTurk/MX_fS_HTML.html#239,239,980,1669,390,844,0-31-2024,12-32-4,51,VR_target_stimuli/s30_0.75x_2.3_332.png,250,0.75x,2.3,7,4269,249,feet,jsons/MX_seq49_0_VE250_flipped.json,363995,480719,24,Woman
51,425291,final-intermixed-textured,v2,jsons/MX_seq49_0_VE250_flipped.json,http://54.235.29.9/FacialAge/BNav_EC2/DepthDuration/MX_fS_VE_MTurk/MX_fS_HTML.html#239,239,980,1669,390,844,0-31-2024,12-32-4,52,VR_target_stimuli/s16_1x_1_219.png,250,1x,1.0,3,6061,249,feet,jsons/MX_seq49_0_VE250_flipped.json,363995,480719,24,Woman
52,425291,final-intermixed-textured,v2,jsons/MX_seq49_0_VE250_flipped.json,http://54.235.29.9/FacialAge/BNav_EC2/DepthDuration/MX_fS_VE_MTurk/MX_fS_HTML.html#239,239,980,1669,390,844,0-31-2024,12-32-4,53,catch_stimuli/c5_BC.png,250,,,0,4566,249,feet,jsons/MX_seq49_0_VE250_flipped.json,363995,480719,24,Woman
53,425291,final-intermixed-textured,v2,jsons/MX_seq49_0_VE250_flipped.json,http://54.235.29.9/FacialAge/BNav_EC2/DepthDuration/MX_fS_VE_MTurk/MX_fS_HTML.html#239,239,980,1669,390,844,0-31-2024,12-32-4,54,VR_target_stimuli/s17_1.3x_1.8_300_BC.png,250,1.3x,1.8,5,4507,249,feet,jsons/MX_seq49_0_VE250_flipped.json,363995,480719,24,Woman
54,425291,final-intermixed-textured,v2,jsons/MX_seq49_0_VE250_flipped.json,http://54.235.29.9/FacialAge/BNav_EC2/DepthDuration/MX_fS_VE_MTurk/MX_fS_HTML.html#239,239,980,1669,390,844,0-31-2024,12-32-4,55,VR_target_stimuli/s5_1x_4_378_BC.png,250,1x,4.0,7,4141,250,feet,jsons/MX_seq49_0_VE250_flipped.json,363995,480719,24,Woman
55,425291,final-intermixed-textured,v2,jsons/MX_seq49_0_VE250_flipped.json,http://54.235.29.9/FacialAge/BNav_EC2/DepthDuration/MX_fS_VE_MTurk/MX_fS_HTML.html#239,239,980,1669,390,844,0-31-2024,12-32-4,56,VR_target_stimuli/s37_0.75x_3.3_567_BC.png,250,0.75x,3.3,6,4967,249,feet,jsons/MX_seq49_0_VE250_flipped.json,363995,480719,24,Woman
56,425291,final-intermixed-textured,v2,jsons/MX_seq49_0_VE250_flipped.json,http://54.235.29.9/FacialAge/BNav_EC2/DepthDuration/MX_fS_VE_MTurk/MX_fS_HTML.html#239,239,980,1669,390,844,0-31-2024,12-32-4,57,VR_target_stimuli/s46_1.3x_2.42_354_BC.png,250,1.3x,2.42,6,4317,250,feet,jsons/MX_seq49_0_VE250_flipped.json,363995,480719,24,Woman
57,425291,final-intermixed-textured,v2,jsons/MX_seq49_0_VE250_flipped.json,http://54.235.29.9/FacialAge/BNav_EC2/DepthDuration/MX_fS_VE_MTurk/MX_fS_HTML.html#239,239,980,1669,390,844,0-31-2024,12-32-4,58,VR_target_stimuli/s22_1.3x_4.29_364.png,250,1.3x,4.29,8,4552,250,feet,jsons/MX_seq49_0_VE250_flipped.json,363995,480719,24,Woman
58,425291,final-intermixed-textured,v2,jsons/MX_seq49_0_VE250_flipped.json,http://54.235.29.9/FacialAge/BNav_EC2/DepthDuration/MX_fS_VE_MTurk/MX_fS_HTML.html#239,239,980,1669,390,844,0-31-2024,12-32-4,59,VR_target_stimuli/s42_1x_3.2_303.png,250,1x,3.2,7,7906,250,feet,jsons/MX_seq49_0_VE250_flipped.json,363995,480719,24,Woman
59,425291,final-intermixed-textured,v2,jsons/MX_seq49_0_VE250_flipped.json,http://54.235.29.9/FacialAge/BNav_EC2/DepthDuration/MX_fS_VE_MTurk/MX_fS_HTML.html#239,239,980,1669,390,844,0-31-2024,12-32-4,60,VR_target_stimuli/s25_0.75x_1.4_281.png,250,0.75x,1.4,5,4237,249,feet,jsons/MX_seq49_0_VE250_flipped.json,363995,480719,24,Woman
