,subjID,experimentName,versionName,sequenceName,url,selected_row,windowWidth,windowHeight,screenWidth,screenHeight,startDate,startTime,trial,stimulus,duration,scale,actual_depth,depth_estimate,trial_RT,log_sceneDuration,unitSelection,seq_filepath,experimentTime,totalTime,age,gender
0,432207,final-intermixed-textured,v2,jsons/MX_seq33_1_VE250.json,http://54.235.29.9/FacialAge/BNav_EC2/DepthDuration/MX_fS_VE_MTurk/MX_fS_HTML.html#75,75,1920,1080,1920,1080,0-31-2024,14-29-44,1,VR_target_stimuli/s36_1.3x_4.1_442.png,250,1.3x,4.1,8.0,4585,255,meters,jsons/MX_seq33_1_VE250.json,221893,433244,21,Transgender
1,432207,final-intermixed-textured,v2,jsons/MX_seq33_1_VE250.json,http://54.235.29.9/FacialAge/BNav_EC2/DepthDuration/MX_fS_VE_MTurk/MX_fS_HTML.html#75,75,1920,1080,1920,1080,0-31-2024,14-29-44,2,VR_target_stimuli/s40_0.75x_1.2_308_BC.png,250,0.75x,1.2,1.5,5415,254,meters,jsons/MX_seq33_1_VE250.json,221893,433244,21,Transgender
2,432207,final-intermixed-textured,v2,jsons/MX_seq33_1_VE250.json,http://54.235.29.9/FacialAge/BNav_EC2/DepthDuration/MX_fS_VE_MTurk/MX_fS_HTML.html#75,75,1920,1080,1920,1080,0-31-2024,14-29-44,3,VR_target_stimuli/s41_1x_2.1_286_BC.png,250,1x,2.1,4.0,3006,237,meters,jsons/MX_seq33_1_VE250.json,221893,433244,21,Transgender
3,432207,final-intermixed-textured,v2,jsons/MX_seq33_1_VE250.json,http://54.235.29.9/FacialAge/BNav_EC2/DepthDuration/MX_fS_VE_MTurk/MX_fS_HTML.html#75,75,1920,1080,1920,1080,0-31-2024,14-29-44,4,VR_target_stimuli/s45_0.75x_3.5_362.png,250,0.75x,3.5,7.0,2881,251,meters,jsons/MX_seq33_1_VE250.json,221893,433244,21,Transgender
4,432207,final-intermixed-textured,v2,jsons/MX_seq33_1_VE250.json,http://54.235.29.9/FacialAge/BNav_EC2/DepthDuration/MX_fS_VE_MTurk/MX_fS_HTML.html#75,75,1920,1080,1920,1080,0-31-2024,14-29-44,5,VR_target_stimuli/s23_1.3x_3.65_354_BC.png,250,1.3x,3.65,7.0,2812,250,meters,jsons/MX_seq33_1_VE250.json,221893,433244,21,Transgender
5,432207,final-intermixed-textured,v2,jsons/MX_seq33_1_VE250.json,http://54.235.29.9/FacialAge/BNav_EC2/DepthDuration/MX_fS_VE_MTurk/MX_fS_HTML.html#75,75,1920,1080,1920,1080,0-31-2024,14-29-44,6,VR_target_stimuli/s26_1x_4_433.png,250,1x,4.0,8.0,4134,255,meters,jsons/MX_seq33_1_VE250.json,221893,433244,21,Transgender
6,432207,final-intermixed-textured,v2,jsons/MX_seq33_1_VE250.json,http://54.235.29.9/FacialAge/BNav_EC2/DepthDuration/MX_fS_VE_MTurk/MX_fS_HTML.html#75,75,1920,1080,1920,1080,0-31-2024,14-29-44,7,catch_stimuli/c0.png,250,,,0.0,2219,260,meters,jsons/MX_seq33_1_VE250.json,221893,433244,21,Transgender
7,432207,final-intermixed-textured,v2,jsons/MX_seq33_1_VE250.json,http://54.235.29.9/FacialAge/BNav_EC2/DepthDuration/MX_fS_VE_MTurk/MX_fS_HTML.html#75,75,1920,1080,1920,1080,0-31-2024,14-29-44,8,VR_target_stimuli/s12_1x_3.1_372.png,250,1x,3.1,8.0,2405,250,meters,jsons/MX_seq33_1_VE250.json,221893,433244,21,Transgender
8,432207,final-intermixed-textured,v2,jsons/MX_seq33_1_VE250.json,http://54.235.29.9/FacialAge/BNav_EC2/DepthDuration/MX_fS_VE_MTurk/MX_fS_HTML.html#75,75,1920,1080,1920,1080,0-31-2024,14-29-44,9,VR_target_stimuli/s30_0.75x_2.3_332.png,250,0.75x,2.3,8.0,4853,259,meters,jsons/MX_seq33_1_VE250.json,221893,433244,21,Transgender
9,432207,final-intermixed-textured,v2,jsons/MX_seq33_1_VE250.json,http://54.235.29.9/FacialAge/BNav_EC2/DepthDuration/MX_fS_VE_MTurk/MX_fS_HTML.html#75,75,1920,1080,1920,1080,0-31-2024,14-29-44,10,VR_target_stimuli/s16_1.3x_1_223.png,250,1.3x,1.0,3.0,6145,255,meters,jsons/MX_seq33_1_VE250.json,221893,433244,21,Transgender
10,432207,final-intermixed-textured,v2,jsons/MX_seq33_1_VE250.json,http://54.235.29.9/FacialAge/BNav_EC2/DepthDuration/MX_fS_VE_MTurk/MX_fS_HTML.html#75,75,1920,1080,1920,1080,0-31-2024,14-29-44,11,VR_target_stimuli/s17_0.75x_1.8_285_BC.png,250,0.75x,1.8,4.0,2890,262,meters,jsons/MX_seq33_1_VE250.json,221893,433244,21,Transgender
11,432207,final-intermixed-textured,v2,jsons/MX_seq33_1_VE250.json,http://54.235.29.9/FacialAge/BNav_EC2/DepthDuration/MX_fS_VE_MTurk/MX_fS_HTML.html#75,75,1920,1080,1920,1080,0-31-2024,14-29-44,12,VR_target_stimuli/s5_1x_4_378_BC.png,250,1x,4.0,7.5,6597,253,meters,jsons/MX_seq33_1_VE250.json,221893,433244,21,Transgender
12,432207,final-intermixed-textured,v2,jsons/MX_seq33_1_VE250.json,http://54.235.29.9/FacialAge/BNav_EC2/DepthDuration/MX_fS_VE_MTurk/MX_fS_HTML.html#75,75,1920,1080,1920,1080,0-31-2024,14-29-44,13,VR_target_stimuli/s37_1.3x_3.3_555_BC.png,250,1.3x,3.3,2.0,3841,254,meters,jsons/MX_seq33_1_VE250.json,221893,433244,21,Transgender
13,432207,final-intermixed-textured,v2,jsons/MX_seq33_1_VE250.json,http://54.235.29.9/FacialAge/BNav_EC2/DepthDuration/MX_fS_VE_MTurk/MX_fS_HTML.html#75,75,1920,1080,1920,1080,0-31-2024,14-29-44,14,VR_target_stimuli/s46_1x_2.42_348.png,250,1x,2.42,6.0,2668,255,meters,jsons/MX_seq33_1_VE250.json,221893,433244,21,Transgender
14,432207,final-intermixed-textured,v2,jsons/MX_seq33_1_VE250.json,http://54.235.29.9/FacialAge/BNav_EC2/DepthDuration/MX_fS_VE_MTurk/MX_fS_HTML.html#75,75,1920,1080,1920,1080,0-31-2024,14-29-44,15,VR_target_stimuli/s22_0.75x_4.29_348_BC.png,250,0.75x,4.29,9.0,3228,239,meters,jsons/MX_seq33_1_VE250.json,221893,433244,21,Transgender
15,432207,final-intermixed-textured,v2,jsons/MX_seq33_1_VE250.json,http://54.235.29.9/FacialAge/BNav_EC2/DepthDuration/MX_fS_VE_MTurk/MX_fS_HTML.html#75,75,1920,1080,1920,1080,0-31-2024,14-29-44,16,VR_target_stimuli/s42_1.3x_3.2_305.png,250,1.3x,3.2,5.0,2881,249,meters,jsons/MX_seq33_1_VE250.json,221893,433244,21,Transgender
16,432207,final-intermixed-textured,v2,jsons/MX_seq33_1_VE250.json,http://54.235.29.9/FacialAge/BNav_EC2/DepthDuration/MX_fS_VE_MTurk/MX_fS_HTML.html#75,75,1920,1080,1920,1080,0-31-2024,14-29-44,17,catch_stimuli/c1.png,250,,,0.0,3053,235,meters,jsons/MX_seq33_1_VE250.json,221893,433244,21,Transgender
17,432207,final-intermixed-textured,v2,jsons/MX_seq33_1_VE250.json,http://54.235.29.9/FacialAge/BNav_EC2/DepthDuration/MX_fS_VE_MTurk/MX_fS_HTML.html#75,75,1920,1080,1920,1080,0-31-2024,14-29-44,18,VR_target_stimuli/s25_1.3x_1.4_299_BC.png,250,1.3x,1.4,2.0,3392,254,meters,jsons/MX_seq33_1_VE250.json,221893,433244,21,Transgender
18,432207,final-intermixed-textured,v2,jsons/MX_seq33_1_VE250.json,http://54.235.29.9/FacialAge/BNav_EC2/DepthDuration/MX_fS_VE_MTurk/MX_fS_HTML.html#75,75,1920,1080,1920,1080,0-31-2024,14-29-44,19,VR_target_stimuli/s50_1x_4.53_518_BC.png,250,1x,4.53,7.0,2549,252,meters,jsons/MX_seq33_1_VE250.json,221893,433244,21,Transgender
19,432207,final-intermixed-textured,v2,jsons/MX_seq33_1_VE250.json,http://54.235.29.9/FacialAge/BNav_EC2/DepthDuration/MX_fS_VE_MTurk/MX_fS_HTML.html#75,75,1920,1080,1920,1080,0-31-2024,14-29-44,20,VR_target_stimuli/s53_0.75x_1.6_403.png,250,0.75x,1.6,1.5,4362,253,meters,jsons/MX_seq33_1_VE250.json,221893,433244,21,Transgender
20,432207,final-intermixed-textured,v2,jsons/MX_seq33_1_VE250.json,http://54.235.29.9/FacialAge/BNav_EC2/DepthDuration/MX_fS_VE_MTurk/MX_fS_HTML.html#75,75,1920,1080,1920,1080,0-31-2024,14-29-44,21,VR_target_stimuli/s38_1x_3.55_353_BC.png,250,1x,3.55,6.0,4112,247,meters,jsons/MX_seq33_1_VE250.json,221893,433244,21,Transgender
21,432207,final-intermixed-textured,v2,jsons/MX_seq33_1_VE250.json,http://54.235.29.9/FacialAge/BNav_EC2/DepthDuration/MX_fS_VE_MTurk/MX_fS_HTML.html#75,75,1920,1080,1920,1080,0-31-2024,14-29-44,22,VR_target_stimuli/s9_1.3x_1.2_276_BC.png,250,1.3x,1.2,1.0,2329,246,meters,jsons/MX_seq33_1_VE250.json,221893,433244,21,Transgender
22,432207,final-intermixed-textured,v2,jsons/MX_seq33_1_VE250.json,http://54.235.29.9/FacialAge/BNav_EC2/DepthDuration/MX_fS_VE_MTurk/MX_fS_HTML.html#75,75,1920,1080,1920,1080,0-31-2024,14-29-44,23,VR_target_stimuli/s44_0.75x_4.4_314_BC.png,250,0.75x,4.4,8.0,2776,254,meters,jsons/MX_seq33_1_VE250.json,221893,433244,21,Transgender
23,432207,final-intermixed-textured,v2,jsons/MX_seq33_1_VE250.json,http://54.235.29.9/FacialAge/BNav_EC2/DepthDuration/MX_fS_VE_MTurk/MX_fS_HTML.html#75,75,1920,1080,1920,1080,0-31-2024,14-29-44,24,VR_target_stimuli/s3_1.3x_5_390.png,250,1.3x,5.0,10.0,2901,252,meters,jsons/MX_seq33_1_VE250.json,221893,433244,21,Transgender
24,432207,final-intermixed-textured,v2,jsons/MX_seq33_1_VE250.json,http://54.235.29.9/FacialAge/BNav_EC2/DepthDuration/MX_fS_VE_MTurk/MX_fS_HTML.html#75,75,1920,1080,1920,1080,0-31-2024,14-29-44,25,VR_target_stimuli/s1_1x_1.7_262.png,250,1x,1.7,4.0,3735,252,meters,jsons/MX_seq33_1_VE250.json,221893,433244,21,Transgender
25,432207,final-intermixed-textured,v2,jsons/MX_seq33_1_VE250.json,http://54.235.29.9/FacialAge/BNav_EC2/DepthDuration/MX_fS_VE_MTurk/MX_fS_HTML.html#75,75,1920,1080,1920,1080,0-31-2024,14-29-44,26,catch_stimuli/c2.png,250,,,0.0,2184,253,meters,jsons/MX_seq33_1_VE250.json,221893,433244,21,Transgender
26,432207,final-intermixed-textured,v2,jsons/MX_seq33_1_VE250.json,http://54.235.29.9/FacialAge/BNav_EC2/DepthDuration/MX_fS_VE_MTurk/MX_fS_HTML.html#75,75,1920,1080,1920,1080,0-31-2024,14-29-44,27,VR_target_stimuli/s11_0.75x_5_359.png,250,0.75x,5.0,10.0,3476,254,meters,jsons/MX_seq33_1_VE250.json,221893,433244,21,Transgender
27,432207,final-intermixed-textured,v2,jsons/MX_seq33_1_VE250.json,http://54.235.29.9/FacialAge/BNav_EC2/DepthDuration/MX_fS_VE_MTurk/MX_fS_HTML.html#75,75,1920,1080,1920,1080,0-31-2024,14-29-44,28,VR_target_stimuli/s2_0.75x_2.7_384.png,250,0.75x,2.7,5.0,3005,239,meters,jsons/MX_seq33_1_VE250.json,221893,433244,21,Transgender
28,432207,final-intermixed-textured,v2,jsons/MX_seq33_1_VE250.json,http://54.235.29.9/FacialAge/BNav_EC2/DepthDuration/MX_fS_VE_MTurk/MX_fS_HTML.html#75,75,1920,1080,1920,1080,0-31-2024,14-29-44,29,VR_target_stimuli/s6_1.3x_2.1_298_BC.png,250,1.3x,2.1,7.0,2072,252,meters,jsons/MX_seq33_1_VE250.json,221893,433244,21,Transgender
29,432207,final-intermixed-textured,v2,jsons/MX_seq33_1_VE250.json,http://54.235.29.9/FacialAge/BNav_EC2/DepthDuration/MX_fS_VE_MTurk/MX_fS_HTML.html#75,75,1920,1080,1920,1080,0-31-2024,14-29-44,30,VR_target_stimuli/s0_1x_2.6_351_BC.png,250,1x,2.6,7.0,4186,251,meters,jsons/MX_seq33_1_VE250.json,221893,433244,21,Transgender
30,432207,final-intermixed-textured,v2,jsons/MX_seq33_1_VE250.json,http://54.235.29.9/FacialAge/BNav_EC2/DepthDuration/MX_fS_VE_MTurk/MX_fS_HTML.html#75,75,1920,1080,1920,1080,0-31-2024,14-29-44,31,VR_target_stimuli/s34_0.75x_2.8_269_BC.png,250,0.75x,2.8,7.0,2500,253,meters,jsons/MX_seq33_1_VE250.json,221893,433244,21,Transgender
31,432207,final-intermixed-textured,v2,jsons/MX_seq33_1_VE250.json,http://54.235.29.9/FacialAge/BNav_EC2/DepthDuration/MX_fS_VE_MTurk/MX_fS_HTML.html#75,75,1920,1080,1920,1080,0-31-2024,14-29-44,32,VR_target_stimuli/s13_1x_2.4_310.png,250,1x,2.4,7.0,1959,255,meters,jsons/MX_seq33_1_VE250.json,221893,433244,21,Transgender
32,432207,final-intermixed-textured,v2,jsons/MX_seq33_1_VE250.json,http://54.235.29.9/FacialAge/BNav_EC2/DepthDuration/MX_fS_VE_MTurk/MX_fS_HTML.html#75,75,1920,1080,1920,1080,0-31-2024,14-29-44,33,VR_target_stimuli/s14_1.3x_3.83_359.png,250,1.3x,3.83,8.0,2767,261,meters,jsons/MX_seq33_1_VE250.json,221893,433244,21,Transgender
33,432207,final-intermixed-textured,v2,jsons/MX_seq33_1_VE250.json,http://54.235.29.9/FacialAge/BNav_EC2/DepthDuration/MX_fS_VE_MTurk/MX_fS_HTML.html#75,75,1920,1080,1920,1080,0-31-2024,14-29-44,34,catch_stimuli/c3.png,250,,,0.0,2056,236,meters,jsons/MX_seq33_1_VE250.json,221893,433244,21,Transgender
34,432207,final-intermixed-textured,v2,jsons/MX_seq33_1_VE250.json,http://54.235.29.9/FacialAge/BNav_EC2/DepthDuration/MX_fS_VE_MTurk/MX_fS_HTML.html#75,75,1920,1080,1920,1080,0-31-2024,14-29-44,35,VR_target_stimuli/s47_1x_3.45_370_BC.png,250,1x,3.45,8.0,2161,256,meters,jsons/MX_seq33_1_VE250.json,221893,433244,21,Transgender
35,432207,final-intermixed-textured,v2,jsons/MX_seq33_1_VE250.json,http://54.235.29.9/FacialAge/BNav_EC2/DepthDuration/MX_fS_VE_MTurk/MX_fS_HTML.html#75,75,1920,1080,1920,1080,0-31-2024,14-29-44,36,VR_target_stimuli/s29_0.75x_1.3_246_BC.png,250,0.75x,1.3,2.0,2236,254,meters,jsons/MX_seq33_1_VE250.json,221893,433244,21,Transgender
36,432207,final-intermixed-textured,v2,jsons/MX_seq33_1_VE250.json,http://54.235.29.9/FacialAge/BNav_EC2/DepthDuration/MX_fS_VE_MTurk/MX_fS_HTML.html#75,75,1920,1080,1920,1080,0-31-2024,14-29-44,37,VR_target_stimuli/s28_1.3x_3.2_365_BC.png,250,1.3x,3.2,5.0,3500,254,meters,jsons/MX_seq33_1_VE250.json,221893,433244,21,Transgender
37,432207,final-intermixed-textured,v2,jsons/MX_seq33_1_VE250.json,http://54.235.29.9/FacialAge/BNav_EC2/DepthDuration/MX_fS_VE_MTurk/MX_fS_HTML.html#75,75,1920,1080,1920,1080,0-31-2024,14-29-44,38,VR_target_stimuli/s48_1.3x_2.55_255.png,250,1.3x,2.55,7.0,2771,258,meters,jsons/MX_seq33_1_VE250.json,221893,433244,21,Transgender
38,432207,final-intermixed-textured,v2,jsons/MX_seq33_1_VE250.json,http://54.235.29.9/FacialAge/BNav_EC2/DepthDuration/MX_fS_VE_MTurk/MX_fS_HTML.html#75,75,1920,1080,1920,1080,0-31-2024,14-29-44,39,VR_target_stimuli/s19_1x_1.21_263.png,250,1x,1.21,1.5,5132,240,meters,jsons/MX_seq33_1_VE250.json,221893,433244,21,Transgender
39,432207,final-intermixed-textured,v2,jsons/MX_seq33_1_VE250.json,http://54.235.29.9/FacialAge/BNav_EC2/DepthDuration/MX_fS_VE_MTurk/MX_fS_HTML.html#75,75,1920,1080,1920,1080,0-31-2024,14-29-44,40,VR_target_stimuli/s21_0.75x_4.22_374.png,250,0.75x,4.22,13.0,4971,263,meters,jsons/MX_seq33_1_VE250.json,221893,433244,21,Transgender
40,432207,final-intermixed-textured,v2,jsons/MX_seq33_1_VE250.json,http://54.235.29.9/FacialAge/BNav_EC2/DepthDuration/MX_fS_VE_MTurk/MX_fS_HTML.html#75,75,1920,1080,1920,1080,0-31-2024,14-29-44,41,VR_target_stimuli/s8_1x_3.1_332.png,250,1x,3.1,10.0,5064,254,meters,jsons/MX_seq33_1_VE250.json,221893,433244,21,Transgender
41,432207,final-intermixed-textured,v2,jsons/MX_seq33_1_VE250.json,http://54.235.29.9/FacialAge/BNav_EC2/DepthDuration/MX_fS_VE_MTurk/MX_fS_HTML.html#75,75,1920,1080,1920,1080,0-31-2024,14-29-44,42,VR_target_stimuli/s27_1.3x_1.76_250_BC.png,250,1.3x,1.76,5.0,2908,252,meters,jsons/MX_seq33_1_VE250.json,221893,433244,21,Transgender
42,432207,final-intermixed-textured,v2,jsons/MX_seq33_1_VE250.json,http://54.235.29.9/FacialAge/BNav_EC2/DepthDuration/MX_fS_VE_MTurk/MX_fS_HTML.html#75,75,1920,1080,1920,1080,0-31-2024,14-29-44,43,VR_target_stimuli/s15_0.75x_4.2_388.png,250,0.75x,4.2,10.0,2723,252,meters,jsons/MX_seq33_1_VE250.json,221893,433244,21,Transgender
43,432207,final-intermixed-textured,v2,jsons/MX_seq33_1_VE250.json,http://54.235.29.9/FacialAge/BNav_EC2/DepthDuration/MX_fS_VE_MTurk/MX_fS_HTML.html#75,75,1920,1080,1920,1080,0-31-2024,14-29-44,44,VR_target_stimuli/s4_1.3x_1.4_328.png,250,1.3x,1.4,2.0,2201,237,meters,jsons/MX_seq33_1_VE250.json,221893,433244,21,Transgender
44,432207,final-intermixed-textured,v2,jsons/MX_seq33_1_VE250.json,http://54.235.29.9/FacialAge/BNav_EC2/DepthDuration/MX_fS_VE_MTurk/MX_fS_HTML.html#75,75,1920,1080,1920,1080,0-31-2024,14-29-44,45,catch_stimuli/c4.png,250,,,0.0,2056,238,meters,jsons/MX_seq33_1_VE250.json,221893,433244,21,Transgender
45,432207,final-intermixed-textured,v2,jsons/MX_seq33_1_VE250.json,http://54.235.29.9/FacialAge/BNav_EC2/DepthDuration/MX_fS_VE_MTurk/MX_fS_HTML.html#75,75,1920,1080,1920,1080,0-31-2024,14-29-44,46,VR_target_stimuli/s35_1x_2_331_BC.png,250,1x,2.0,4.0,3325,238,meters,jsons/MX_seq33_1_VE250.json,221893,433244,21,Transgender
46,432207,final-intermixed-textured,v2,jsons/MX_seq33_1_VE250.json,http://54.235.29.9/FacialAge/BNav_EC2/DepthDuration/MX_fS_VE_MTurk/MX_fS_HTML.html#75,75,1920,1080,1920,1080,0-31-2024,14-29-44,47,VR_target_stimuli/s49_0.75x_4.67_328_BC.png,250,0.75x,4.67,8.0,3267,253,meters,jsons/MX_seq33_1_VE250.json,221893,433244,21,Transgender
47,432207,final-intermixed-textured,v2,jsons/MX_seq33_1_VE250.json,http://54.235.29.9/FacialAge/BNav_EC2/DepthDuration/MX_fS_VE_MTurk/MX_fS_HTML.html#75,75,1920,1080,1920,1080,0-31-2024,14-29-44,48,VR_target_stimuli/s7_0.75x_1.5_253.png,250,0.75x,1.5,4.0,3771,254,meters,jsons/MX_seq33_1_VE250.json,221893,433244,21,Transgender
48,432207,final-intermixed-textured,v2,jsons/MX_seq33_1_VE250.json,http://54.235.29.9/FacialAge/BNav_EC2/DepthDuration/MX_fS_VE_MTurk/MX_fS_HTML.html#75,75,1920,1080,1920,1080,0-31-2024,14-29-44,49,VR_target_stimuli/s20_1.3x_4.99_412_BC.png,250,1.3x,4.99,8.0,2441,241,meters,jsons/MX_seq33_1_VE250.json,221893,433244,21,Transgender
49,432207,final-intermixed-textured,v2,jsons/MX_seq33_1_VE250.json,http://54.235.29.9/FacialAge/BNav_EC2/DepthDuration/MX_fS_VE_MTurk/MX_fS_HTML.html#75,75,1920,1080,1920,1080,0-31-2024,14-29-44,50,VR_target_stimuli/s31_1x_4.96_333_BC.png,250,1x,4.96,8.0,2097,251,meters,jsons/MX_seq33_1_VE250.json,221893,433244,21,Transgender
50,432207,final-intermixed-textured,v2,jsons/MX_seq33_1_VE250.json,http://54.235.29.9/FacialAge/BNav_EC2/DepthDuration/MX_fS_VE_MTurk/MX_fS_HTML.html#75,75,1920,1080,1920,1080,0-31-2024,14-29-44,51,VR_target_stimuli/s33_1.3x_3.1_378.png,250,1.3x,3.1,6.0,2609,239,meters,jsons/MX_seq33_1_VE250.json,221893,433244,21,Transgender
51,432207,final-intermixed-textured,v2,jsons/MX_seq33_1_VE250.json,http://54.235.29.9/FacialAge/BNav_EC2/DepthDuration/MX_fS_VE_MTurk/MX_fS_HTML.html#75,75,1920,1080,1920,1080,0-31-2024,14-29-44,52,VR_target_stimuli/s52_0.75x_3.2_270_BC.png,250,0.75x,3.2,7.0,3626,252,meters,jsons/MX_seq33_1_VE250.json,221893,433244,21,Transgender
52,432207,final-intermixed-textured,v2,jsons/MX_seq33_1_VE250.json,http://54.235.29.9/FacialAge/BNav_EC2/DepthDuration/MX_fS_VE_MTurk/MX_fS_HTML.html#75,75,1920,1080,1920,1080,0-31-2024,14-29-44,53,catch_stimuli/c5.png,250,,,0.0,1908,251,meters,jsons/MX_seq33_1_VE250.json,221893,433244,21,Transgender
53,432207,final-intermixed-textured,v2,jsons/MX_seq33_1_VE250.json,http://54.235.29.9/FacialAge/BNav_EC2/DepthDuration/MX_fS_VE_MTurk/MX_fS_HTML.html#75,75,1920,1080,1920,1080,0-31-2024,14-29-44,54,VR_target_stimuli/s32_1x_1.5_218.png,250,1x,1.5,8.0,2780,255,meters,jsons/MX_seq33_1_VE250.json,221893,433244,21,Transgender
54,432207,final-intermixed-textured,v2,jsons/MX_seq33_1_VE250.json,http://54.235.29.9/FacialAge/BNav_EC2/DepthDuration/MX_fS_VE_MTurk/MX_fS_HTML.html#75,75,1920,1080,1920,1080,0-31-2024,14-29-44,55,VR_target_stimuli/s18_0.75x_2.25_341_BC.png,250,0.75x,2.25,4.0,2423,253,meters,jsons/MX_seq33_1_VE250.json,221893,433244,21,Transgender
55,432207,final-intermixed-textured,v2,jsons/MX_seq33_1_VE250.json,http://54.235.29.9/FacialAge/BNav_EC2/DepthDuration/MX_fS_VE_MTurk/MX_fS_HTML.html#75,75,1920,1080,1920,1080,0-31-2024,14-29-44,56,VR_target_stimuli/s39_1.3x_1_208.png,250,1.3x,1.0,2.0,1996,239,meters,jsons/MX_seq33_1_VE250.json,221893,433244,21,Transgender
56,432207,final-intermixed-textured,v2,jsons/MX_seq33_1_VE250.json,http://54.235.29.9/FacialAge/BNav_EC2/DepthDuration/MX_fS_VE_MTurk/MX_fS_HTML.html#75,75,1920,1080,1920,1080,0-31-2024,14-29-44,57,VR_target_stimuli/s51_1x_3.64_461.png,250,1x,3.64,5.0,3295,253,meters,jsons/MX_seq33_1_VE250.json,221893,433244,21,Transgender
57,432207,final-intermixed-textured,v2,jsons/MX_seq33_1_VE250.json,http://54.235.29.9/FacialAge/BNav_EC2/DepthDuration/MX_fS_VE_MTurk/MX_fS_HTML.html#75,75,1920,1080,1920,1080,0-31-2024,14-29-44,58,VR_target_stimuli/s43_1x_2.2_354_BC.png,250,1x,2.2,6.0,1951,239,meters,jsons/MX_seq33_1_VE250.json,221893,433244,21,Transgender
58,432207,final-intermixed-textured,v2,jsons/MX_seq33_1_VE250.json,http://54.235.29.9/FacialAge/BNav_EC2/DepthDuration/MX_fS_VE_MTurk/MX_fS_HTML.html#75,75,1920,1080,1920,1080,0-31-2024,14-29-44,59,VR_target_stimuli/s24_0.75x_3.3_344.png,250,0.75x,3.3,9.0,4194,255,meters,jsons/MX_seq33_1_VE250.json,221893,433244,21,Transgender
59,432207,final-intermixed-textured,v2,jsons/MX_seq33_1_VE250.json,http://54.235.29.9/FacialAge/BNav_EC2/DepthDuration/MX_fS_VE_MTurk/MX_fS_HTML.html#75,75,1920,1080,1920,1080,0-31-2024,14-29-44,60,VR_target_stimuli/s10_1.3x_2.7_325_BC.png,250,1.3x,2.7,7.0,2057,238,meters,jsons/MX_seq33_1_VE250.json,221893,433244,21,Transgender
