,subjID,experimentName,versionName,sequenceName,url,selected_row,windowWidth,windowHeight,screenWidth,screenHeight,startDate,startTime,trial,stimulus,duration,scale,actual_depth,depth_estimate,trial_RT,log_sceneDuration,unitSelection,seq_filepath,experimentTime,totalTime,age,gender
0,445073,final-intermixed-textured,v2,jsons/MX_seq18_0_VE250_flipped.json,http://54.235.29.9/FacialAge/BNav_EC2/DepthDuration/MX_fS_VE_MTurk/MX_fS_HTML.html#109,109,1920,919,1920,1080,0-31-2024,14-7-45,1,VR_target_stimuli/s4_0.75x_1.4_301_BC.png,250,0.75x,1.4,4,4544,251,meters,jsons/MX_seq18_0_VE250_flipped.json,254432,354271,48,Man
1,445073,final-intermixed-textured,v2,jsons/MX_seq18_0_VE250_flipped.json,http://54.235.29.9/FacialAge/BNav_EC2/DepthDuration/MX_fS_VE_MTurk/MX_fS_HTML.html#109,109,1920,919,1920,1080,0-31-2024,14-7-45,2,VR_target_stimuli/s35_1x_2_331_BC.png,250,1x,2.0,4,3555,249,meters,jsons/MX_seq18_0_VE250_flipped.json,254432,354271,48,Man
2,445073,final-intermixed-textured,v2,jsons/MX_seq18_0_VE250_flipped.json,http://54.235.29.9/FacialAge/BNav_EC2/DepthDuration/MX_fS_VE_MTurk/MX_fS_HTML.html#109,109,1920,919,1920,1080,0-31-2024,14-7-45,3,VR_target_stimuli/s49_1.3x_4.67_354.png,250,1.3x,4.67,9,4655,249,meters,jsons/MX_seq18_0_VE250_flipped.json,254432,354271,48,Man
3,445073,final-intermixed-textured,v2,jsons/MX_seq18_0_VE250_flipped.json,http://54.235.29.9/FacialAge/BNav_EC2/DepthDuration/MX_fS_VE_MTurk/MX_fS_HTML.html#109,109,1920,919,1920,1080,0-31-2024,14-7-45,4,VR_target_stimuli/s7_1x_1.5_255.png,250,1x,1.5,2,3117,260,meters,jsons/MX_seq18_0_VE250_flipped.json,254432,354271,48,Man
4,445073,final-intermixed-textured,v2,jsons/MX_seq18_0_VE250_flipped.json,http://54.235.29.9/FacialAge/BNav_EC2/DepthDuration/MX_fS_VE_MTurk/MX_fS_HTML.html#109,109,1920,919,1920,1080,0-31-2024,14-7-45,5,VR_target_stimuli/s20_0.75x_4.99_390.png,250,0.75x,4.99,3,3986,249,meters,jsons/MX_seq18_0_VE250_flipped.json,254432,354271,48,Man
5,445073,final-intermixed-textured,v2,jsons/MX_seq18_0_VE250_flipped.json,http://54.235.29.9/FacialAge/BNav_EC2/DepthDuration/MX_fS_VE_MTurk/MX_fS_HTML.html#109,109,1920,919,1920,1080,0-31-2024,14-7-45,6,VR_target_stimuli/s31_1.3x_4.96_342_BC.png,250,1.3x,4.96,3,2501,251,meters,jsons/MX_seq18_0_VE250_flipped.json,254432,354271,48,Man
6,445073,final-intermixed-textured,v2,jsons/MX_seq18_0_VE250_flipped.json,http://54.235.29.9/FacialAge/BNav_EC2/DepthDuration/MX_fS_VE_MTurk/MX_fS_HTML.html#109,109,1920,919,1920,1080,0-31-2024,14-7-45,7,catch_stimuli/c0_BC.png,250,,,4,2392,234,meters,jsons/MX_seq18_0_VE250_flipped.json,254432,354271,48,Man
7,445073,final-intermixed-textured,v2,jsons/MX_seq18_0_VE250_flipped.json,http://54.235.29.9/FacialAge/BNav_EC2/DepthDuration/MX_fS_VE_MTurk/MX_fS_HTML.html#109,109,1920,919,1920,1080,0-31-2024,14-7-45,8,VR_target_stimuli/s33_1.3x_3.1_378_BC.png,250,1.3x,3.1,8,3477,219,meters,jsons/MX_seq18_0_VE250_flipped.json,254432,354271,48,Man
8,445073,final-intermixed-textured,v2,jsons/MX_seq18_0_VE250_flipped.json,http://54.235.29.9/FacialAge/BNav_EC2/DepthDuration/MX_fS_VE_MTurk/MX_fS_HTML.html#109,109,1920,919,1920,1080,0-31-2024,14-7-45,9,VR_target_stimuli/s52_1x_3.2_275.png,250,1x,3.2,9,2631,234,meters,jsons/MX_seq18_0_VE250_flipped.json,254432,354271,48,Man
9,445073,final-intermixed-textured,v2,jsons/MX_seq18_0_VE250_flipped.json,http://54.235.29.9/FacialAge/BNav_EC2/DepthDuration/MX_fS_VE_MTurk/MX_fS_HTML.html#109,109,1920,919,1920,1080,0-31-2024,14-7-45,10,VR_target_stimuli/s32_0.75x_1.5_213.png,250,0.75x,1.5,9,5129,251,meters,jsons/MX_seq18_0_VE250_flipped.json,254432,354271,48,Man
10,445073,final-intermixed-textured,v2,jsons/MX_seq18_0_VE250_flipped.json,http://54.235.29.9/FacialAge/BNav_EC2/DepthDuration/MX_fS_VE_MTurk/MX_fS_HTML.html#109,109,1920,919,1920,1080,0-31-2024,14-7-45,11,VR_target_stimuli/s18_1x_2.25_353_BC.png,250,1x,2.25,5,3350,231,meters,jsons/MX_seq18_0_VE250_flipped.json,254432,354271,48,Man
11,445073,final-intermixed-textured,v2,jsons/MX_seq18_0_VE250_flipped.json,http://54.235.29.9/FacialAge/BNav_EC2/DepthDuration/MX_fS_VE_MTurk/MX_fS_HTML.html#109,109,1920,919,1920,1080,0-31-2024,14-7-45,12,VR_target_stimuli/s39_1.3x_1_208.png,250,1.3x,1.0,8,3723,239,meters,jsons/MX_seq18_0_VE250_flipped.json,254432,354271,48,Man
12,445073,final-intermixed-textured,v2,jsons/MX_seq18_0_VE250_flipped.json,http://54.235.29.9/FacialAge/BNav_EC2/DepthDuration/MX_fS_VE_MTurk/MX_fS_HTML.html#109,109,1920,919,1920,1080,0-31-2024,14-7-45,13,VR_target_stimuli/s51_0.75x_3.64_460_BC.png,250,0.75x,3.64,5,2916,251,meters,jsons/MX_seq18_0_VE250_flipped.json,254432,354271,48,Man
13,445073,final-intermixed-textured,v2,jsons/MX_seq18_0_VE250_flipped.json,http://54.235.29.9/FacialAge/BNav_EC2/DepthDuration/MX_fS_VE_MTurk/MX_fS_HTML.html#109,109,1920,919,1920,1080,0-31-2024,14-7-45,14,VR_target_stimuli/s43_1.3x_2.2_363_BC.png,250,1.3x,2.2,7,4171,202,meters,jsons/MX_seq18_0_VE250_flipped.json,254432,354271,48,Man
14,445073,final-intermixed-textured,v2,jsons/MX_seq18_0_VE250_flipped.json,http://54.235.29.9/FacialAge/BNav_EC2/DepthDuration/MX_fS_VE_MTurk/MX_fS_HTML.html#109,109,1920,919,1920,1080,0-31-2024,14-7-45,15,VR_target_stimuli/s24_1x_3.3_349.png,250,1x,3.3,12,4599,250,meters,jsons/MX_seq18_0_VE250_flipped.json,254432,354271,48,Man
15,445073,final-intermixed-textured,v2,jsons/MX_seq18_0_VE250_flipped.json,http://54.235.29.9/FacialAge/BNav_EC2/DepthDuration/MX_fS_VE_MTurk/MX_fS_HTML.html#109,109,1920,919,1920,1080,0-31-2024,14-7-45,16,VR_target_stimuli/s10_0.75x_2.7_321_BC.png,250,0.75x,2.7,6,3486,250,meters,jsons/MX_seq18_0_VE250_flipped.json,254432,354271,48,Man
16,445073,final-intermixed-textured,v2,jsons/MX_seq18_0_VE250_flipped.json,http://54.235.29.9/FacialAge/BNav_EC2/DepthDuration/MX_fS_VE_MTurk/MX_fS_HTML.html#109,109,1920,919,1920,1080,0-31-2024,14-7-45,17,catch_stimuli/c1_BC.png,250,,,7,2895,250,meters,jsons/MX_seq18_0_VE250_flipped.json,254432,354271,48,Man
17,445073,final-intermixed-textured,v2,jsons/MX_seq18_0_VE250_flipped.json,http://54.235.29.9/FacialAge/BNav_EC2/DepthDuration/MX_fS_VE_MTurk/MX_fS_HTML.html#109,109,1920,919,1920,1080,0-31-2024,14-7-45,18,VR_target_stimuli/s36_0.75x_4.1_407.png,250,0.75x,4.1,4,3279,250,meters,jsons/MX_seq18_0_VE250_flipped.json,254432,354271,48,Man
18,445073,final-intermixed-textured,v2,jsons/MX_seq18_0_VE250_flipped.json,http://54.235.29.9/FacialAge/BNav_EC2/DepthDuration/MX_fS_VE_MTurk/MX_fS_HTML.html#109,109,1920,919,1920,1080,0-31-2024,14-7-45,19,VR_target_stimuli/s40_1.3x_1.2_332.png,250,1.3x,1.2,6,2473,250,meters,jsons/MX_seq18_0_VE250_flipped.json,254432,354271,48,Man
19,445073,final-intermixed-textured,v2,jsons/MX_seq18_0_VE250_flipped.json,http://54.235.29.9/FacialAge/BNav_EC2/DepthDuration/MX_fS_VE_MTurk/MX_fS_HTML.html#109,109,1920,919,1920,1080,0-31-2024,14-7-45,20,VR_target_stimuli/s41_1x_2.1_286_BC.png,250,1x,2.1,6,2788,245,meters,jsons/MX_seq18_0_VE250_flipped.json,254432,354271,48,Man
20,445073,final-intermixed-textured,v2,jsons/MX_seq18_0_VE250_flipped.json,http://54.235.29.9/FacialAge/BNav_EC2/DepthDuration/MX_fS_VE_MTurk/MX_fS_HTML.html#109,109,1920,919,1920,1080,0-31-2024,14-7-45,21,VR_target_stimuli/s45_1.3x_3.5_377_BC.png,250,1.3x,3.5,7,2192,255,meters,jsons/MX_seq18_0_VE250_flipped.json,254432,354271,48,Man
21,445073,final-intermixed-textured,v2,jsons/MX_seq18_0_VE250_flipped.json,http://54.235.29.9/FacialAge/BNav_EC2/DepthDuration/MX_fS_VE_MTurk/MX_fS_HTML.html#109,109,1920,919,1920,1080,0-31-2024,14-7-45,22,VR_target_stimuli/s23_0.75x_3.65_351.png,250,0.75x,3.65,8,2770,252,meters,jsons/MX_seq18_0_VE250_flipped.json,254432,354271,48,Man
22,445073,final-intermixed-textured,v2,jsons/MX_seq18_0_VE250_flipped.json,http://54.235.29.9/FacialAge/BNav_EC2/DepthDuration/MX_fS_VE_MTurk/MX_fS_HTML.html#109,109,1920,919,1920,1080,0-31-2024,14-7-45,23,VR_target_stimuli/s26_1x_4_433_BC.png,250,1x,4.0,9,2918,231,meters,jsons/MX_seq18_0_VE250_flipped.json,254432,354271,48,Man
23,445073,final-intermixed-textured,v2,jsons/MX_seq18_0_VE250_flipped.json,http://54.235.29.9/FacialAge/BNav_EC2/DepthDuration/MX_fS_VE_MTurk/MX_fS_HTML.html#109,109,1920,919,1920,1080,0-31-2024,14-7-45,24,VR_target_stimuli/s12_0.75x_3.1_364_BC.png,250,0.75x,3.1,8,4017,251,meters,jsons/MX_seq18_0_VE250_flipped.json,254432,354271,48,Man
24,445073,final-intermixed-textured,v2,jsons/MX_seq18_0_VE250_flipped.json,http://54.235.29.9/FacialAge/BNav_EC2/DepthDuration/MX_fS_VE_MTurk/MX_fS_HTML.html#109,109,1920,919,1920,1080,0-31-2024,14-7-45,25,VR_target_stimuli/s30_1.3x_2.3_337.png,250,1.3x,2.3,7,5389,249,meters,jsons/MX_seq18_0_VE250_flipped.json,254432,354271,48,Man
25,445073,final-intermixed-textured,v2,jsons/MX_seq18_0_VE250_flipped.json,http://54.235.29.9/FacialAge/BNav_EC2/DepthDuration/MX_fS_VE_MTurk/MX_fS_HTML.html#109,109,1920,919,1920,1080,0-31-2024,14-7-45,26,catch_stimuli/c2_BC.png,250,,,14,3578,265,meters,jsons/MX_seq18_0_VE250_flipped.json,254432,354271,48,Man
26,445073,final-intermixed-textured,v2,jsons/MX_seq18_0_VE250_flipped.json,http://54.235.29.9/FacialAge/BNav_EC2/DepthDuration/MX_fS_VE_MTurk/MX_fS_HTML.html#109,109,1920,919,1920,1080,0-31-2024,14-7-45,27,VR_target_stimuli/s16_1x_1_219.png,250,1x,1.0,77,2562,238,meters,jsons/MX_seq18_0_VE250_flipped.json,254432,354271,48,Man
27,445073,final-intermixed-textured,v2,jsons/MX_seq18_0_VE250_flipped.json,http://54.235.29.9/FacialAge/BNav_EC2/DepthDuration/MX_fS_VE_MTurk/MX_fS_HTML.html#109,109,1920,919,1920,1080,0-31-2024,14-7-45,28,VR_target_stimuli/s17_1x_1.8_291_BC.png,250,1x,1.8,7,3226,250,meters,jsons/MX_seq18_0_VE250_flipped.json,254432,354271,48,Man
28,445073,final-intermixed-textured,v2,jsons/MX_seq18_0_VE250_flipped.json,http://54.235.29.9/FacialAge/BNav_EC2/DepthDuration/MX_fS_VE_MTurk/MX_fS_HTML.html#109,109,1920,919,1920,1080,0-31-2024,14-7-45,29,VR_target_stimuli/s5_0.75x_4_375.png,250,0.75x,4.0,9,3647,252,meters,jsons/MX_seq18_0_VE250_flipped.json,254432,354271,48,Man
29,445073,final-intermixed-textured,v2,jsons/MX_seq18_0_VE250_flipped.json,http://54.235.29.9/FacialAge/BNav_EC2/DepthDuration/MX_fS_VE_MTurk/MX_fS_HTML.html#109,109,1920,919,1920,1080,0-31-2024,14-7-45,30,VR_target_stimuli/s37_1.3x_3.3_555.png,250,1.3x,3.3,3,2912,251,meters,jsons/MX_seq18_0_VE250_flipped.json,254432,354271,48,Man
30,445073,final-intermixed-textured,v2,jsons/MX_seq18_0_VE250_flipped.json,http://54.235.29.9/FacialAge/BNav_EC2/DepthDuration/MX_fS_VE_MTurk/MX_fS_HTML.html#109,109,1920,919,1920,1080,0-31-2024,14-7-45,31,VR_target_stimuli/s46_1x_2.42_348.png,250,1x,2.42,5,2712,234,meters,jsons/MX_seq18_0_VE250_flipped.json,254432,354271,48,Man
31,445073,final-intermixed-textured,v2,jsons/MX_seq18_0_VE250_flipped.json,http://54.235.29.9/FacialAge/BNav_EC2/DepthDuration/MX_fS_VE_MTurk/MX_fS_HTML.html#109,109,1920,919,1920,1080,0-31-2024,14-7-45,32,VR_target_stimuli/s22_1.3x_4.29_364_BC.png,250,1.3x,4.29,6,2189,235,meters,jsons/MX_seq18_0_VE250_flipped.json,254432,354271,48,Man
32,445073,final-intermixed-textured,v2,jsons/MX_seq18_0_VE250_flipped.json,http://54.235.29.9/FacialAge/BNav_EC2/DepthDuration/MX_fS_VE_MTurk/MX_fS_HTML.html#109,109,1920,919,1920,1080,0-31-2024,14-7-45,33,VR_target_stimuli/s42_0.75x_3.2_301_BC.png,250,0.75x,3.2,7,2337,204,meters,jsons/MX_seq18_0_VE250_flipped.json,254432,354271,48,Man
33,445073,final-intermixed-textured,v2,jsons/MX_seq18_0_VE250_flipped.json,http://54.235.29.9/FacialAge/BNav_EC2/DepthDuration/MX_fS_VE_MTurk/MX_fS_HTML.html#109,109,1920,919,1920,1080,0-31-2024,14-7-45,34,catch_stimuli/c3_BC.png,250,,,5,2614,251,meters,jsons/MX_seq18_0_VE250_flipped.json,254432,354271,48,Man
34,445073,final-intermixed-textured,v2,jsons/MX_seq18_0_VE250_flipped.json,http://54.235.29.9/FacialAge/BNav_EC2/DepthDuration/MX_fS_VE_MTurk/MX_fS_HTML.html#109,109,1920,919,1920,1080,0-31-2024,14-7-45,35,VR_target_stimuli/s25_1.3x_1.4_299.png,250,1.3x,1.4,6,2490,250,meters,jsons/MX_seq18_0_VE250_flipped.json,254432,354271,48,Man
35,445073,final-intermixed-textured,v2,jsons/MX_seq18_0_VE250_flipped.json,http://54.235.29.9/FacialAge/BNav_EC2/DepthDuration/MX_fS_VE_MTurk/MX_fS_HTML.html#109,109,1920,919,1920,1080,0-31-2024,14-7-45,36,VR_target_stimuli/s50_1x_4.53_518.png,250,1x,4.53,7,2521,252,meters,jsons/MX_seq18_0_VE250_flipped.json,254432,354271,48,Man
36,445073,final-intermixed-textured,v2,jsons/MX_seq18_0_VE250_flipped.json,http://54.235.29.9/FacialAge/BNav_EC2/DepthDuration/MX_fS_VE_MTurk/MX_fS_HTML.html#109,109,1920,919,1920,1080,0-31-2024,14-7-45,37,VR_target_stimuli/s53_0.75x_1.6_403_BC.png,250,0.75x,1.6,3,2638,250,meters,jsons/MX_seq18_0_VE250_flipped.json,254432,354271,48,Man
37,445073,final-intermixed-textured,v2,jsons/MX_seq18_0_VE250_flipped.json,http://54.235.29.9/FacialAge/BNav_EC2/DepthDuration/MX_fS_VE_MTurk/MX_fS_HTML.html#109,109,1920,919,1920,1080,0-31-2024,14-7-45,38,VR_target_stimuli/s38_0.75x_3.55_346.png,250,0.75x,3.55,7,3146,250,meters,jsons/MX_seq18_0_VE250_flipped.json,254432,354271,48,Man
38,445073,final-intermixed-textured,v2,jsons/MX_seq18_0_VE250_flipped.json,http://54.235.29.9/FacialAge/BNav_EC2/DepthDuration/MX_fS_VE_MTurk/MX_fS_HTML.html#109,109,1920,919,1920,1080,0-31-2024,14-7-45,39,VR_target_stimuli/s9_1.3x_1.2_276_BC.png,250,1.3x,1.2,3,3062,251,meters,jsons/MX_seq18_0_VE250_flipped.json,254432,354271,48,Man
39,445073,final-intermixed-textured,v2,jsons/MX_seq18_0_VE250_flipped.json,http://54.235.29.9/FacialAge/BNav_EC2/DepthDuration/MX_fS_VE_MTurk/MX_fS_HTML.html#109,109,1920,919,1920,1080,0-31-2024,14-7-45,40,VR_target_stimuli/s44_1x_4.4_317_BC.png,250,1x,4.4,6,2612,249,meters,jsons/MX_seq18_0_VE250_flipped.json,254432,354271,48,Man
40,445073,final-intermixed-textured,v2,jsons/MX_seq18_0_VE250_flipped.json,http://54.235.29.9/FacialAge/BNav_EC2/DepthDuration/MX_fS_VE_MTurk/MX_fS_HTML.html#109,109,1920,919,1920,1080,0-31-2024,14-7-45,41,VR_target_stimuli/s3_1.3x_5_390.png,250,1.3x,5.0,3,2061,251,meters,jsons/MX_seq18_0_VE250_flipped.json,254432,354271,48,Man
41,445073,final-intermixed-textured,v2,jsons/MX_seq18_0_VE250_flipped.json,http://54.235.29.9/FacialAge/BNav_EC2/DepthDuration/MX_fS_VE_MTurk/MX_fS_HTML.html#109,109,1920,919,1920,1080,0-31-2024,14-7-45,42,VR_target_stimuli/s1_0.75x_1.7_265.png,250,0.75x,1.7,4,2831,250,meters,jsons/MX_seq18_0_VE250_flipped.json,254432,354271,48,Man
42,445073,final-intermixed-textured,v2,jsons/MX_seq18_0_VE250_flipped.json,http://54.235.29.9/FacialAge/BNav_EC2/DepthDuration/MX_fS_VE_MTurk/MX_fS_HTML.html#109,109,1920,919,1920,1080,0-31-2024,14-7-45,43,VR_target_stimuli/s11_1x_5_361_BC.png,250,1x,5.0,4,2306,234,meters,jsons/MX_seq18_0_VE250_flipped.json,254432,354271,48,Man
43,445073,final-intermixed-textured,v2,jsons/MX_seq18_0_VE250_flipped.json,http://54.235.29.9/FacialAge/BNav_EC2/DepthDuration/MX_fS_VE_MTurk/MX_fS_HTML.html#109,109,1920,919,1920,1080,0-31-2024,14-7-45,44,VR_target_stimuli/s2_0.75x_2.7_384_BC.png,250,0.75x,2.7,4,3817,251,meters,jsons/MX_seq18_0_VE250_flipped.json,254432,354271,48,Man
44,445073,final-intermixed-textured,v2,jsons/MX_seq18_0_VE250_flipped.json,http://54.235.29.9/FacialAge/BNav_EC2/DepthDuration/MX_fS_VE_MTurk/MX_fS_HTML.html#109,109,1920,919,1920,1080,0-31-2024,14-7-45,45,catch_stimuli/c4_BC.png,250,,,3,2203,251,meters,jsons/MX_seq18_0_VE250_flipped.json,254432,354271,48,Man
45,445073,final-intermixed-textured,v2,jsons/MX_seq18_0_VE250_flipped.json,http://54.235.29.9/FacialAge/BNav_EC2/DepthDuration/MX_fS_VE_MTurk/MX_fS_HTML.html#109,109,1920,919,1920,1080,0-31-2024,14-7-45,46,VR_target_stimuli/s6_1.3x_2.1_298_BC.png,250,1.3x,2.1,3,2160,252,meters,jsons/MX_seq18_0_VE250_flipped.json,254432,354271,48,Man
46,445073,final-intermixed-textured,v2,jsons/MX_seq18_0_VE250_flipped.json,http://54.235.29.9/FacialAge/BNav_EC2/DepthDuration/MX_fS_VE_MTurk/MX_fS_HTML.html#109,109,1920,919,1920,1080,0-31-2024,14-7-45,47,VR_target_stimuli/s0_1x_2.6_351.png,250,1x,2.6,3,45020,251,meters,jsons/MX_seq18_0_VE250_flipped.json,254432,354271,48,Man
47,445073,final-intermixed-textured,v2,jsons/MX_seq18_0_VE250_flipped.json,http://54.235.29.9/FacialAge/BNav_EC2/DepthDuration/MX_fS_VE_MTurk/MX_fS_HTML.html#109,109,1920,919,1920,1080,0-31-2024,14-7-45,48,VR_target_stimuli/s34_1x_2.8_283.png,250,1x,2.8,5,3240,250,meters,jsons/MX_seq18_0_VE250_flipped.json,254432,354271,48,Man
48,445073,final-intermixed-textured,v2,jsons/MX_seq18_0_VE250_flipped.json,http://54.235.29.9/FacialAge/BNav_EC2/DepthDuration/MX_fS_VE_MTurk/MX_fS_HTML.html#109,109,1920,919,1920,1080,0-31-2024,14-7-45,49,VR_target_stimuli/s13_0.75x_2.4_308.png,250,0.75x,2.4,6,2051,282,meters,jsons/MX_seq18_0_VE250_flipped.json,254432,354271,48,Man
49,445073,final-intermixed-textured,v2,jsons/MX_seq18_0_VE250_flipped.json,http://54.235.29.9/FacialAge/BNav_EC2/DepthDuration/MX_fS_VE_MTurk/MX_fS_HTML.html#109,109,1920,919,1920,1080,0-31-2024,14-7-45,50,VR_target_stimuli/s14_1.3x_3.83_359_BC.png,250,1.3x,3.83,7,4457,234,meters,jsons/MX_seq18_0_VE250_flipped.json,254432,354271,48,Man
50,445073,final-intermixed-textured,v2,jsons/MX_seq18_0_VE250_flipped.json,http://54.235.29.9/FacialAge/BNav_EC2/DepthDuration/MX_fS_VE_MTurk/MX_fS_HTML.html#109,109,1920,919,1920,1080,0-31-2024,14-7-45,51,VR_target_stimuli/s47_0.75x_3.45_366_BC.png,250,0.75x,3.45,8,3235,235,meters,jsons/MX_seq18_0_VE250_flipped.json,254432,354271,48,Man
51,445073,final-intermixed-textured,v2,jsons/MX_seq18_0_VE250_flipped.json,http://54.235.29.9/FacialAge/BNav_EC2/DepthDuration/MX_fS_VE_MTurk/MX_fS_HTML.html#109,109,1920,919,1920,1080,0-31-2024,14-7-45,52,VR_target_stimuli/s29_1x_1.3_250_BC.png,250,1x,1.3,8,2188,251,meters,jsons/MX_seq18_0_VE250_flipped.json,254432,354271,48,Man
52,445073,final-intermixed-textured,v2,jsons/MX_seq18_0_VE250_flipped.json,http://54.235.29.9/FacialAge/BNav_EC2/DepthDuration/MX_fS_VE_MTurk/MX_fS_HTML.html#109,109,1920,919,1920,1080,0-31-2024,14-7-45,53,catch_stimuli/c5_BC.png,250,,,8,2349,188,meters,jsons/MX_seq18_0_VE250_flipped.json,254432,354271,48,Man
53,445073,final-intermixed-textured,v2,jsons/MX_seq18_0_VE250_flipped.json,http://54.235.29.9/FacialAge/BNav_EC2/DepthDuration/MX_fS_VE_MTurk/MX_fS_HTML.html#109,109,1920,919,1920,1080,0-31-2024,14-7-45,54,VR_target_stimuli/s28_1.3x_3.2_365.png,250,1.3x,3.2,7,2173,251,meters,jsons/MX_seq18_0_VE250_flipped.json,254432,354271,48,Man
54,445073,final-intermixed-textured,v2,jsons/MX_seq18_0_VE250_flipped.json,http://54.235.29.9/FacialAge/BNav_EC2/DepthDuration/MX_fS_VE_MTurk/MX_fS_HTML.html#109,109,1920,919,1920,1080,0-31-2024,14-7-45,55,VR_target_stimuli/s48_1x_2.55_256.png,250,1x,2.55,3,2229,235,meters,jsons/MX_seq18_0_VE250_flipped.json,254432,354271,48,Man
55,445073,final-intermixed-textured,v2,jsons/MX_seq18_0_VE250_flipped.json,http://54.235.29.9/FacialAge/BNav_EC2/DepthDuration/MX_fS_VE_MTurk/MX_fS_HTML.html#109,109,1920,919,1920,1080,0-31-2024,14-7-45,56,VR_target_stimuli/s19_0.75x_1.21_257.png,250,0.75x,1.21,3,1934,235,meters,jsons/MX_seq18_0_VE250_flipped.json,254432,354271,48,Man
56,445073,final-intermixed-textured,v2,jsons/MX_seq18_0_VE250_flipped.json,http://54.235.29.9/FacialAge/BNav_EC2/DepthDuration/MX_fS_VE_MTurk/MX_fS_HTML.html#109,109,1920,919,1920,1080,0-31-2024,14-7-45,57,VR_target_stimuli/s21_1.3x_4.22_384.png,250,1.3x,4.22,5,1956,250,meters,jsons/MX_seq18_0_VE250_flipped.json,254432,354271,48,Man
57,445073,final-intermixed-textured,v2,jsons/MX_seq18_0_VE250_flipped.json,http://54.235.29.9/FacialAge/BNav_EC2/DepthDuration/MX_fS_VE_MTurk/MX_fS_HTML.html#109,109,1920,919,1920,1080,0-31-2024,14-7-45,58,VR_target_stimuli/s8_1.3x_3.1_345_BC.png,250,1.3x,3.1,6,2501,250,meters,jsons/MX_seq18_0_VE250_flipped.json,254432,354271,48,Man
58,445073,final-intermixed-textured,v2,jsons/MX_seq18_0_VE250_flipped.json,http://54.235.29.9/FacialAge/BNav_EC2/DepthDuration/MX_fS_VE_MTurk/MX_fS_HTML.html#109,109,1920,919,1920,1080,0-31-2024,14-7-45,59,VR_target_stimuli/s27_1x_1.76_248_BC.png,250,1x,1.76,7,2164,235,meters,jsons/MX_seq18_0_VE250_flipped.json,254432,354271,48,Man
59,445073,final-intermixed-textured,v2,jsons/MX_seq18_0_VE250_flipped.json,http://54.235.29.9/FacialAge/BNav_EC2/DepthDuration/MX_fS_VE_MTurk/MX_fS_HTML.html#109,109,1920,919,1920,1080,0-31-2024,14-7-45,60,VR_target_stimuli/s15_0.75x_4.2_388_BC.png,250,0.75x,4.2,9,3542,251,meters,jsons/MX_seq18_0_VE250_flipped.json,254432,354271,48,Man
