,subjID,experimentName,versionName,sequenceName,url,selected_row,windowWidth,windowHeight,screenWidth,screenHeight,startDate,startTime,trial,stimulus,duration,scale,actual_depth,depth_estimate,trial_RT,log_sceneDuration,unitSelection,seq_filepath,experimentTime,totalTime,age,gender
0,470439,final-intermixed-textured,v2,jsons/MX_seq17_0_VE250_flipped.json,http://54.235.29.9/FacialAge/BNav_EC2/DepthDuration/MX_fS_VE_MTurk/MX_fS_HTML.html#99,99,1536,738,1536,864,0-31-2024,14-7-28,1,VR_target_stimuli/s15_0.75x_4.2_388_BC.png,250,0.75x,4.2,6,5153,254,meters,jsons/MX_seq17_0_VE250_flipped.json,166566,437909,47,Man
1,470439,final-intermixed-textured,v2,jsons/MX_seq17_0_VE250_flipped.json,http://54.235.29.9/FacialAge/BNav_EC2/DepthDuration/MX_fS_VE_MTurk/MX_fS_HTML.html#99,99,1536,738,1536,864,0-31-2024,14-7-28,2,VR_target_stimuli/s4_1x_1.4_313.png,250,1x,1.4,1,3126,247,meters,jsons/MX_seq17_0_VE250_flipped.json,166566,437909,47,Man
2,470439,final-intermixed-textured,v2,jsons/MX_seq17_0_VE250_flipped.json,http://54.235.29.9/FacialAge/BNav_EC2/DepthDuration/MX_fS_VE_MTurk/MX_fS_HTML.html#99,99,1536,738,1536,864,0-31-2024,14-7-28,3,VR_target_stimuli/s35_1.3x_2_338_BC.png,250,1.3x,2.0,2,1734,245,meters,jsons/MX_seq17_0_VE250_flipped.json,166566,437909,47,Man
3,470439,final-intermixed-textured,v2,jsons/MX_seq17_0_VE250_flipped.json,http://54.235.29.9/FacialAge/BNav_EC2/DepthDuration/MX_fS_VE_MTurk/MX_fS_HTML.html#99,99,1536,738,1536,864,0-31-2024,14-7-28,4,VR_target_stimuli/s49_1x_4.67_341_BC.png,250,1x,4.67,5,2423,250,meters,jsons/MX_seq17_0_VE250_flipped.json,166566,437909,47,Man
4,470439,final-intermixed-textured,v2,jsons/MX_seq17_0_VE250_flipped.json,http://54.235.29.9/FacialAge/BNav_EC2/DepthDuration/MX_fS_VE_MTurk/MX_fS_HTML.html#99,99,1536,738,1536,864,0-31-2024,14-7-28,5,VR_target_stimuli/s7_0.75x_1.5_253.png,250,0.75x,1.5,2,1787,246,meters,jsons/MX_seq17_0_VE250_flipped.json,166566,437909,47,Man
5,470439,final-intermixed-textured,v2,jsons/MX_seq17_0_VE250_flipped.json,http://54.235.29.9/FacialAge/BNav_EC2/DepthDuration/MX_fS_VE_MTurk/MX_fS_HTML.html#99,99,1536,738,1536,864,0-31-2024,14-7-28,6,VR_target_stimuli/s20_1.3x_4.99_412.png,250,1.3x,4.99,6,3437,261,meters,jsons/MX_seq17_0_VE250_flipped.json,166566,437909,47,Man
6,470439,final-intermixed-textured,v2,jsons/MX_seq17_0_VE250_flipped.json,http://54.235.29.9/FacialAge/BNav_EC2/DepthDuration/MX_fS_VE_MTurk/MX_fS_HTML.html#99,99,1536,738,1536,864,0-31-2024,14-7-28,7,catch_stimuli/c0_BC.png,250,,,0,2471,245,meters,jsons/MX_seq17_0_VE250_flipped.json,166566,437909,47,Man
7,470439,final-intermixed-textured,v2,jsons/MX_seq17_0_VE250_flipped.json,http://54.235.29.9/FacialAge/BNav_EC2/DepthDuration/MX_fS_VE_MTurk/MX_fS_HTML.html#99,99,1536,738,1536,864,0-31-2024,14-7-28,8,VR_target_stimuli/s31_1.3x_4.96_342_BC.png,250,1.3x,4.96,4,2220,263,meters,jsons/MX_seq17_0_VE250_flipped.json,166566,437909,47,Man
8,470439,final-intermixed-textured,v2,jsons/MX_seq17_0_VE250_flipped.json,http://54.235.29.9/FacialAge/BNav_EC2/DepthDuration/MX_fS_VE_MTurk/MX_fS_HTML.html#99,99,1536,738,1536,864,0-31-2024,14-7-28,9,VR_target_stimuli/s33_1x_3.1_366.png,250,1x,3.1,4,5020,246,meters,jsons/MX_seq17_0_VE250_flipped.json,166566,437909,47,Man
9,470439,final-intermixed-textured,v2,jsons/MX_seq17_0_VE250_flipped.json,http://54.235.29.9/FacialAge/BNav_EC2/DepthDuration/MX_fS_VE_MTurk/MX_fS_HTML.html#99,99,1536,738,1536,864,0-31-2024,14-7-28,10,VR_target_stimuli/s52_0.75x_3.2_270.png,250,0.75x,3.2,5,2740,248,meters,jsons/MX_seq17_0_VE250_flipped.json,166566,437909,47,Man
10,470439,final-intermixed-textured,v2,jsons/MX_seq17_0_VE250_flipped.json,http://54.235.29.9/FacialAge/BNav_EC2/DepthDuration/MX_fS_VE_MTurk/MX_fS_HTML.html#99,99,1536,738,1536,864,0-31-2024,14-7-28,11,VR_target_stimuli/s32_1x_1.5_218_BC.png,250,1x,1.5,3,2084,246,meters,jsons/MX_seq17_0_VE250_flipped.json,166566,437909,47,Man
11,470439,final-intermixed-textured,v2,jsons/MX_seq17_0_VE250_flipped.json,http://54.235.29.9/FacialAge/BNav_EC2/DepthDuration/MX_fS_VE_MTurk/MX_fS_HTML.html#99,99,1536,738,1536,864,0-31-2024,14-7-28,12,VR_target_stimuli/s18_1.3x_2.25_368.png,250,1.3x,2.25,2,1995,246,meters,jsons/MX_seq17_0_VE250_flipped.json,166566,437909,47,Man
12,470439,final-intermixed-textured,v2,jsons/MX_seq17_0_VE250_flipped.json,http://54.235.29.9/FacialAge/BNav_EC2/DepthDuration/MX_fS_VE_MTurk/MX_fS_HTML.html#99,99,1536,738,1536,864,0-31-2024,14-7-28,13,VR_target_stimuli/s39_0.75x_1_205_BC.png,250,0.75x,1.0,2,1756,247,meters,jsons/MX_seq17_0_VE250_flipped.json,166566,437909,47,Man
13,470439,final-intermixed-textured,v2,jsons/MX_seq17_0_VE250_flipped.json,http://54.235.29.9/FacialAge/BNav_EC2/DepthDuration/MX_fS_VE_MTurk/MX_fS_HTML.html#99,99,1536,738,1536,864,0-31-2024,14-7-28,14,VR_target_stimuli/s51_1.3x_3.64_479.png,250,1.3x,3.64,3,1918,253,meters,jsons/MX_seq17_0_VE250_flipped.json,166566,437909,47,Man
14,470439,final-intermixed-textured,v2,jsons/MX_seq17_0_VE250_flipped.json,http://54.235.29.9/FacialAge/BNav_EC2/DepthDuration/MX_fS_VE_MTurk/MX_fS_HTML.html#99,99,1536,738,1536,864,0-31-2024,14-7-28,15,VR_target_stimuli/s43_1x_2.2_354_BC.png,250,1x,2.2,3,1738,264,meters,jsons/MX_seq17_0_VE250_flipped.json,166566,437909,47,Man
15,470439,final-intermixed-textured,v2,jsons/MX_seq17_0_VE250_flipped.json,http://54.235.29.9/FacialAge/BNav_EC2/DepthDuration/MX_fS_VE_MTurk/MX_fS_HTML.html#99,99,1536,738,1536,864,0-31-2024,14-7-28,16,VR_target_stimuli/s24_0.75x_3.3_344_BC.png,250,0.75x,3.3,5,2630,236,meters,jsons/MX_seq17_0_VE250_flipped.json,166566,437909,47,Man
16,470439,final-intermixed-textured,v2,jsons/MX_seq17_0_VE250_flipped.json,http://54.235.29.9/FacialAge/BNav_EC2/DepthDuration/MX_fS_VE_MTurk/MX_fS_HTML.html#99,99,1536,738,1536,864,0-31-2024,14-7-28,17,catch_stimuli/c1_BC.png,250,,,0,1938,252,meters,jsons/MX_seq17_0_VE250_flipped.json,166566,437909,47,Man
17,470439,final-intermixed-textured,v2,jsons/MX_seq17_0_VE250_flipped.json,http://54.235.29.9/FacialAge/BNav_EC2/DepthDuration/MX_fS_VE_MTurk/MX_fS_HTML.html#99,99,1536,738,1536,864,0-31-2024,14-7-28,18,VR_target_stimuli/s10_0.75x_2.7_321.png,250,0.75x,2.7,6,2110,262,meters,jsons/MX_seq17_0_VE250_flipped.json,166566,437909,47,Man
18,470439,final-intermixed-textured,v2,jsons/MX_seq17_0_VE250_flipped.json,http://54.235.29.9/FacialAge/BNav_EC2/DepthDuration/MX_fS_VE_MTurk/MX_fS_HTML.html#99,99,1536,738,1536,864,0-31-2024,14-7-28,19,VR_target_stimuli/s36_1.3x_4.1_442_BC.png,250,1.3x,4.1,6,2039,249,meters,jsons/MX_seq17_0_VE250_flipped.json,166566,437909,47,Man
19,470439,final-intermixed-textured,v2,jsons/MX_seq17_0_VE250_flipped.json,http://54.235.29.9/FacialAge/BNav_EC2/DepthDuration/MX_fS_VE_MTurk/MX_fS_HTML.html#99,99,1536,738,1536,864,0-31-2024,14-7-28,20,VR_target_stimuli/s40_1x_1.2_319.png,250,1x,1.2,1,1926,249,meters,jsons/MX_seq17_0_VE250_flipped.json,166566,437909,47,Man
20,470439,final-intermixed-textured,v2,jsons/MX_seq17_0_VE250_flipped.json,http://54.235.29.9/FacialAge/BNav_EC2/DepthDuration/MX_fS_VE_MTurk/MX_fS_HTML.html#99,99,1536,738,1536,864,0-31-2024,14-7-28,21,VR_target_stimuli/s41_1.3x_2.1_294_BC.png,250,1.3x,2.1,3,3729,249,meters,jsons/MX_seq17_0_VE250_flipped.json,166566,437909,47,Man
21,470439,final-intermixed-textured,v2,jsons/MX_seq17_0_VE250_flipped.json,http://54.235.29.9/FacialAge/BNav_EC2/DepthDuration/MX_fS_VE_MTurk/MX_fS_HTML.html#99,99,1536,738,1536,864,0-31-2024,14-7-28,22,VR_target_stimuli/s45_0.75x_3.5_362_BC.png,250,0.75x,3.5,4,1933,250,meters,jsons/MX_seq17_0_VE250_flipped.json,166566,437909,47,Man
22,470439,final-intermixed-textured,v2,jsons/MX_seq17_0_VE250_flipped.json,http://54.235.29.9/FacialAge/BNav_EC2/DepthDuration/MX_fS_VE_MTurk/MX_fS_HTML.html#99,99,1536,738,1536,864,0-31-2024,14-7-28,23,VR_target_stimuli/s23_1x_3.65_353_BC.png,250,1x,3.65,4,1938,251,meters,jsons/MX_seq17_0_VE250_flipped.json,166566,437909,47,Man
23,470439,final-intermixed-textured,v2,jsons/MX_seq17_0_VE250_flipped.json,http://54.235.29.9/FacialAge/BNav_EC2/DepthDuration/MX_fS_VE_MTurk/MX_fS_HTML.html#99,99,1536,738,1536,864,0-31-2024,14-7-28,24,VR_target_stimuli/s26_0.75x_4_430.png,250,0.75x,4.0,5,1897,249,meters,jsons/MX_seq17_0_VE250_flipped.json,166566,437909,47,Man
24,470439,final-intermixed-textured,v2,jsons/MX_seq17_0_VE250_flipped.json,http://54.235.29.9/FacialAge/BNav_EC2/DepthDuration/MX_fS_VE_MTurk/MX_fS_HTML.html#99,99,1536,738,1536,864,0-31-2024,14-7-28,25,VR_target_stimuli/s12_1.3x_3.1_375.png,250,1.3x,3.1,4,2918,251,meters,jsons/MX_seq17_0_VE250_flipped.json,166566,437909,47,Man
25,470439,final-intermixed-textured,v2,jsons/MX_seq17_0_VE250_flipped.json,http://54.235.29.9/FacialAge/BNav_EC2/DepthDuration/MX_fS_VE_MTurk/MX_fS_HTML.html#99,99,1536,738,1536,864,0-31-2024,14-7-28,26,catch_stimuli/c2_BC.png,250,,,0,1738,247,meters,jsons/MX_seq17_0_VE250_flipped.json,166566,437909,47,Man
26,470439,final-intermixed-textured,v2,jsons/MX_seq17_0_VE250_flipped.json,http://54.235.29.9/FacialAge/BNav_EC2/DepthDuration/MX_fS_VE_MTurk/MX_fS_HTML.html#99,99,1536,738,1536,864,0-31-2024,14-7-28,27,VR_target_stimuli/s30_1x_2.3_334.png,250,1x,2.3,3,2106,248,meters,jsons/MX_seq17_0_VE250_flipped.json,166566,437909,47,Man
27,470439,final-intermixed-textured,v2,jsons/MX_seq17_0_VE250_flipped.json,http://54.235.29.9/FacialAge/BNav_EC2/DepthDuration/MX_fS_VE_MTurk/MX_fS_HTML.html#99,99,1536,738,1536,864,0-31-2024,14-7-28,28,VR_target_stimuli/s16_1x_1_219.png,250,1x,1.0,1,1893,251,meters,jsons/MX_seq17_0_VE250_flipped.json,166566,437909,47,Man
28,470439,final-intermixed-textured,v2,jsons/MX_seq17_0_VE250_flipped.json,http://54.235.29.9/FacialAge/BNav_EC2/DepthDuration/MX_fS_VE_MTurk/MX_fS_HTML.html#99,99,1536,738,1536,864,0-31-2024,14-7-28,29,VR_target_stimuli/s17_0.75x_1.8_285.png,250,0.75x,1.8,3,2070,248,meters,jsons/MX_seq17_0_VE250_flipped.json,166566,437909,47,Man
29,470439,final-intermixed-textured,v2,jsons/MX_seq17_0_VE250_flipped.json,http://54.235.29.9/FacialAge/BNav_EC2/DepthDuration/MX_fS_VE_MTurk/MX_fS_HTML.html#99,99,1536,738,1536,864,0-31-2024,14-7-28,30,VR_target_stimuli/s5_1.3x_4_393_BC.png,250,1.3x,4.0,6,2009,248,meters,jsons/MX_seq17_0_VE250_flipped.json,166566,437909,47,Man
30,470439,final-intermixed-textured,v2,jsons/MX_seq17_0_VE250_flipped.json,http://54.235.29.9/FacialAge/BNav_EC2/DepthDuration/MX_fS_VE_MTurk/MX_fS_HTML.html#99,99,1536,738,1536,864,0-31-2024,14-7-28,31,VR_target_stimuli/s37_1x_3.3_563_BC.png,250,1x,3.3,2,2348,251,meters,jsons/MX_seq17_0_VE250_flipped.json,166566,437909,47,Man
31,470439,final-intermixed-textured,v2,jsons/MX_seq17_0_VE250_flipped.json,http://54.235.29.9/FacialAge/BNav_EC2/DepthDuration/MX_fS_VE_MTurk/MX_fS_HTML.html#99,99,1536,738,1536,864,0-31-2024,14-7-28,32,VR_target_stimuli/s46_1.3x_2.42_354.png,250,1.3x,2.42,5,2325,263,meters,jsons/MX_seq17_0_VE250_flipped.json,166566,437909,47,Man
32,470439,final-intermixed-textured,v2,jsons/MX_seq17_0_VE250_flipped.json,http://54.235.29.9/FacialAge/BNav_EC2/DepthDuration/MX_fS_VE_MTurk/MX_fS_HTML.html#99,99,1536,738,1536,864,0-31-2024,14-7-28,33,VR_target_stimuli/s22_0.75x_4.29_348_BC.png,250,0.75x,4.29,5,1869,248,meters,jsons/MX_seq17_0_VE250_flipped.json,166566,437909,47,Man
33,470439,final-intermixed-textured,v2,jsons/MX_seq17_0_VE250_flipped.json,http://54.235.29.9/FacialAge/BNav_EC2/DepthDuration/MX_fS_VE_MTurk/MX_fS_HTML.html#99,99,1536,738,1536,864,0-31-2024,14-7-28,34,catch_stimuli/c3_BC.png,250,,,0,1623,248,meters,jsons/MX_seq17_0_VE250_flipped.json,166566,437909,47,Man
34,470439,final-intermixed-textured,v2,jsons/MX_seq17_0_VE250_flipped.json,http://54.235.29.9/FacialAge/BNav_EC2/DepthDuration/MX_fS_VE_MTurk/MX_fS_HTML.html#99,99,1536,738,1536,864,0-31-2024,14-7-28,35,VR_target_stimuli/s42_1.3x_3.2_305.png,250,1.3x,3.2,4,3197,247,meters,jsons/MX_seq17_0_VE250_flipped.json,166566,437909,47,Man
35,470439,final-intermixed-textured,v2,jsons/MX_seq17_0_VE250_flipped.json,http://54.235.29.9/FacialAge/BNav_EC2/DepthDuration/MX_fS_VE_MTurk/MX_fS_HTML.html#99,99,1536,738,1536,864,0-31-2024,14-7-28,36,VR_target_stimuli/s25_1x_1.4_290_BC.png,250,1x,1.4,3,2038,251,meters,jsons/MX_seq17_0_VE250_flipped.json,166566,437909,47,Man
36,470439,final-intermixed-textured,v2,jsons/MX_seq17_0_VE250_flipped.json,http://54.235.29.9/FacialAge/BNav_EC2/DepthDuration/MX_fS_VE_MTurk/MX_fS_HTML.html#99,99,1536,738,1536,864,0-31-2024,14-7-28,37,VR_target_stimuli/s50_0.75x_4.53_517_BC.png,250,0.75x,4.53,3,3133,250,meters,jsons/MX_seq17_0_VE250_flipped.json,166566,437909,47,Man
37,470439,final-intermixed-textured,v2,jsons/MX_seq17_0_VE250_flipped.json,http://54.235.29.9/FacialAge/BNav_EC2/DepthDuration/MX_fS_VE_MTurk/MX_fS_HTML.html#99,99,1536,738,1536,864,0-31-2024,14-7-28,38,VR_target_stimuli/s53_0.75x_1.6_403.png,250,0.75x,1.6,1,1720,261,meters,jsons/MX_seq17_0_VE250_flipped.json,166566,437909,47,Man
38,470439,final-intermixed-textured,v2,jsons/MX_seq17_0_VE250_flipped.json,http://54.235.29.9/FacialAge/BNav_EC2/DepthDuration/MX_fS_VE_MTurk/MX_fS_HTML.html#99,99,1536,738,1536,864,0-31-2024,14-7-28,39,VR_target_stimuli/s38_1.3x_3.55_358_BC.png,250,1.3x,3.55,2,2021,247,meters,jsons/MX_seq17_0_VE250_flipped.json,166566,437909,47,Man
39,470439,final-intermixed-textured,v2,jsons/MX_seq17_0_VE250_flipped.json,http://54.235.29.9/FacialAge/BNav_EC2/DepthDuration/MX_fS_VE_MTurk/MX_fS_HTML.html#99,99,1536,738,1536,864,0-31-2024,14-7-28,40,VR_target_stimuli/s9_1x_1.2_263.png,250,1x,1.2,1,1724,250,meters,jsons/MX_seq17_0_VE250_flipped.json,166566,437909,47,Man
40,470439,final-intermixed-textured,v2,jsons/MX_seq17_0_VE250_flipped.json,http://54.235.29.9/FacialAge/BNav_EC2/DepthDuration/MX_fS_VE_MTurk/MX_fS_HTML.html#99,99,1536,738,1536,864,0-31-2024,14-7-28,41,VR_target_stimuli/s44_1.3x_4.4_325_BC.png,250,1.3x,4.4,2,1711,263,meters,jsons/MX_seq17_0_VE250_flipped.json,166566,437909,47,Man
41,470439,final-intermixed-textured,v2,jsons/MX_seq17_0_VE250_flipped.json,http://54.235.29.9/FacialAge/BNav_EC2/DepthDuration/MX_fS_VE_MTurk/MX_fS_HTML.html#99,99,1536,738,1536,864,0-31-2024,14-7-28,42,VR_target_stimuli/s3_0.75x_5_381_BC.png,250,0.75x,5.0,6,2052,244,meters,jsons/MX_seq17_0_VE250_flipped.json,166566,437909,47,Man
42,470439,final-intermixed-textured,v2,jsons/MX_seq17_0_VE250_flipped.json,http://54.235.29.9/FacialAge/BNav_EC2/DepthDuration/MX_fS_VE_MTurk/MX_fS_HTML.html#99,99,1536,738,1536,864,0-31-2024,14-7-28,43,VR_target_stimuli/s1_1x_1.7_262_BC.png,250,1x,1.7,2,1736,262,meters,jsons/MX_seq17_0_VE250_flipped.json,166566,437909,47,Man
43,470439,final-intermixed-textured,v2,jsons/MX_seq17_0_VE250_flipped.json,http://54.235.29.9/FacialAge/BNav_EC2/DepthDuration/MX_fS_VE_MTurk/MX_fS_HTML.html#99,99,1536,738,1536,864,0-31-2024,14-7-28,44,VR_target_stimuli/s11_0.75x_5_359.png,250,0.75x,5.0,4,2039,246,meters,jsons/MX_seq17_0_VE250_flipped.json,166566,437909,47,Man
44,470439,final-intermixed-textured,v2,jsons/MX_seq17_0_VE250_flipped.json,http://54.235.29.9/FacialAge/BNav_EC2/DepthDuration/MX_fS_VE_MTurk/MX_fS_HTML.html#99,99,1536,738,1536,864,0-31-2024,14-7-28,45,catch_stimuli/c4_BC.png,250,,,0,1607,264,meters,jsons/MX_seq17_0_VE250_flipped.json,166566,437909,47,Man
45,470439,final-intermixed-textured,v2,jsons/MX_seq17_0_VE250_flipped.json,http://54.235.29.9/FacialAge/BNav_EC2/DepthDuration/MX_fS_VE_MTurk/MX_fS_HTML.html#99,99,1536,738,1536,864,0-31-2024,14-7-28,46,VR_target_stimuli/s2_1.3x_2.7_397.png,250,1.3x,2.7,3,1748,254,meters,jsons/MX_seq17_0_VE250_flipped.json,166566,437909,47,Man
46,470439,final-intermixed-textured,v2,jsons/MX_seq17_0_VE250_flipped.json,http://54.235.29.9/FacialAge/BNav_EC2/DepthDuration/MX_fS_VE_MTurk/MX_fS_HTML.html#99,99,1536,738,1536,864,0-31-2024,14-7-28,47,VR_target_stimuli/s6_1x_2.1_293.png,250,1x,2.1,3,3775,242,meters,jsons/MX_seq17_0_VE250_flipped.json,166566,437909,47,Man
47,470439,final-intermixed-textured,v2,jsons/MX_seq17_0_VE250_flipped.json,http://54.235.29.9/FacialAge/BNav_EC2/DepthDuration/MX_fS_VE_MTurk/MX_fS_HTML.html#99,99,1536,738,1536,864,0-31-2024,14-7-28,48,VR_target_stimuli/s0_1x_2.6_351.png,250,1x,2.6,2,1624,252,meters,jsons/MX_seq17_0_VE250_flipped.json,166566,437909,47,Man
48,470439,final-intermixed-textured,v2,jsons/MX_seq17_0_VE250_flipped.json,http://54.235.29.9/FacialAge/BNav_EC2/DepthDuration/MX_fS_VE_MTurk/MX_fS_HTML.html#99,99,1536,738,1536,864,0-31-2024,14-7-28,49,VR_target_stimuli/s34_0.75x_2.8_269_BC.png,250,0.75x,2.8,4,1819,253,meters,jsons/MX_seq17_0_VE250_flipped.json,166566,437909,47,Man
49,470439,final-intermixed-textured,v2,jsons/MX_seq17_0_VE250_flipped.json,http://54.235.29.9/FacialAge/BNav_EC2/DepthDuration/MX_fS_VE_MTurk/MX_fS_HTML.html#99,99,1536,738,1536,864,0-31-2024,14-7-28,50,VR_target_stimuli/s13_1.3x_2.4_313_BC.png,250,1.3x,2.4,3,2196,249,meters,jsons/MX_seq17_0_VE250_flipped.json,166566,437909,47,Man
50,470439,final-intermixed-textured,v2,jsons/MX_seq17_0_VE250_flipped.json,http://54.235.29.9/FacialAge/BNav_EC2/DepthDuration/MX_fS_VE_MTurk/MX_fS_HTML.html#99,99,1536,738,1536,864,0-31-2024,14-7-28,51,VR_target_stimuli/s14_0.75x_3.83_355.png,250,0.75x,3.83,5,1764,237,meters,jsons/MX_seq17_0_VE250_flipped.json,166566,437909,47,Man
51,470439,final-intermixed-textured,v2,jsons/MX_seq17_0_VE250_flipped.json,http://54.235.29.9/FacialAge/BNav_EC2/DepthDuration/MX_fS_VE_MTurk/MX_fS_HTML.html#99,99,1536,738,1536,864,0-31-2024,14-7-28,52,VR_target_stimuli/s47_1x_3.45_370_BC.png,250,1x,3.45,4,2122,264,meters,jsons/MX_seq17_0_VE250_flipped.json,166566,437909,47,Man
52,470439,final-intermixed-textured,v2,jsons/MX_seq17_0_VE250_flipped.json,http://54.235.29.9/FacialAge/BNav_EC2/DepthDuration/MX_fS_VE_MTurk/MX_fS_HTML.html#99,99,1536,738,1536,864,0-31-2024,14-7-28,53,catch_stimuli/c5_BC.png,250,,,0,1618,251,meters,jsons/MX_seq17_0_VE250_flipped.json,166566,437909,47,Man
53,470439,final-intermixed-textured,v2,jsons/MX_seq17_0_VE250_flipped.json,http://54.235.29.9/FacialAge/BNav_EC2/DepthDuration/MX_fS_VE_MTurk/MX_fS_HTML.html#99,99,1536,738,1536,864,0-31-2024,14-7-28,54,VR_target_stimuli/s29_1.3x_1.3_253.png,250,1.3x,1.3,1,1855,261,meters,jsons/MX_seq17_0_VE250_flipped.json,166566,437909,47,Man
54,470439,final-intermixed-textured,v2,jsons/MX_seq17_0_VE250_flipped.json,http://54.235.29.9/FacialAge/BNav_EC2/DepthDuration/MX_fS_VE_MTurk/MX_fS_HTML.html#99,99,1536,738,1536,864,0-31-2024,14-7-28,55,VR_target_stimuli/s28_1x_3.2_362_BC.png,250,1x,3.2,4,1700,251,meters,jsons/MX_seq17_0_VE250_flipped.json,166566,437909,47,Man
55,470439,final-intermixed-textured,v2,jsons/MX_seq17_0_VE250_flipped.json,http://54.235.29.9/FacialAge/BNav_EC2/DepthDuration/MX_fS_VE_MTurk/MX_fS_HTML.html#99,99,1536,738,1536,864,0-31-2024,14-7-28,56,VR_target_stimuli/s48_0.75x_2.55_243_BC.png,250,0.75x,2.55,3,2335,250,meters,jsons/MX_seq17_0_VE250_flipped.json,166566,437909,47,Man
56,470439,final-intermixed-textured,v2,jsons/MX_seq17_0_VE250_flipped.json,http://54.235.29.9/FacialAge/BNav_EC2/DepthDuration/MX_fS_VE_MTurk/MX_fS_HTML.html#99,99,1536,738,1536,864,0-31-2024,14-7-28,57,VR_target_stimuli/s19_1.3x_1.21_270.png,250,1.3x,1.21,1,2966,250,meters,jsons/MX_seq17_0_VE250_flipped.json,166566,437909,47,Man
57,470439,final-intermixed-textured,v2,jsons/MX_seq17_0_VE250_flipped.json,http://54.235.29.9/FacialAge/BNav_EC2/DepthDuration/MX_fS_VE_MTurk/MX_fS_HTML.html#99,99,1536,738,1536,864,0-31-2024,14-7-28,58,VR_target_stimuli/s21_1.3x_4.22_384_BC.png,250,1.3x,4.22,3,1917,253,meters,jsons/MX_seq17_0_VE250_flipped.json,166566,437909,47,Man
58,470439,final-intermixed-textured,v2,jsons/MX_seq17_0_VE250_flipped.json,http://54.235.29.9/FacialAge/BNav_EC2/DepthDuration/MX_fS_VE_MTurk/MX_fS_HTML.html#99,99,1536,738,1536,864,0-31-2024,14-7-28,59,VR_target_stimuli/s8_1x_3.1_332.png,250,1x,3.1,6,2295,251,meters,jsons/MX_seq17_0_VE250_flipped.json,166566,437909,47,Man
59,470439,final-intermixed-textured,v2,jsons/MX_seq17_0_VE250_flipped.json,http://54.235.29.9/FacialAge/BNav_EC2/DepthDuration/MX_fS_VE_MTurk/MX_fS_HTML.html#99,99,1536,738,1536,864,0-31-2024,14-7-28,60,VR_target_stimuli/s27_0.75x_1.76_243.png,250,0.75x,1.76,4,2782,250,meters,jsons/MX_seq17_0_VE250_flipped.json,166566,437909,47,Man
