,subjID,experimentName,versionName,sequenceName,url,selected_row,windowWidth,windowHeight,screenWidth,screenHeight,startDate,startTime,trial,stimulus,duration,scale,actual_depth,depth_estimate,trial_RT,log_sceneDuration,unitSelection,seq_filepath,experimentTime,totalTime,age,gender
0,495733,final-intermixed-textured,v2,jsons/MX_seq52_2_VE250.json,http://54.235.29.9/FacialAge/BNav_EC2/DepthDuration/MX_fS_VE_MTurk/MX_fS_HTML.html#54,54,1872,958,1920,1080,0-31-2024,12-36-39,1,VR_target_stimuli/s9_1x_1.2_263.png,250,1x,1.2,1.5,5915,248,meters,jsons/MX_seq52_2_VE250.json,302166,497346,48,Man
1,495733,final-intermixed-textured,v2,jsons/MX_seq52_2_VE250.json,http://54.235.29.9/FacialAge/BNav_EC2/DepthDuration/MX_fS_VE_MTurk/MX_fS_HTML.html#54,54,1872,958,1920,1080,0-31-2024,12-36-39,2,VR_target_stimuli/s44_1.3x_4.4_325.png,250,1.3x,4.4,4.0,4345,259,meters,jsons/MX_seq52_2_VE250.json,302166,497346,48,Man
2,495733,final-intermixed-textured,v2,jsons/MX_seq52_2_VE250.json,http://54.235.29.9/FacialAge/BNav_EC2/DepthDuration/MX_fS_VE_MTurk/MX_fS_HTML.html#54,54,1872,958,1920,1080,0-31-2024,12-36-39,3,VR_target_stimuli/s3_0.75x_5_381_BC.png,250,0.75x,5.0,5.0,4579,254,meters,jsons/MX_seq52_2_VE250.json,302166,497346,48,Man
3,495733,final-intermixed-textured,v2,jsons/MX_seq52_2_VE250.json,http://54.235.29.9/FacialAge/BNav_EC2/DepthDuration/MX_fS_VE_MTurk/MX_fS_HTML.html#54,54,1872,958,1920,1080,0-31-2024,12-36-39,4,VR_target_stimuli/s1_1.3x_1.7_261_BC.png,250,1.3x,1.7,1.2,7818,247,meters,jsons/MX_seq52_2_VE250.json,302166,497346,48,Man
4,495733,final-intermixed-textured,v2,jsons/MX_seq52_2_VE250.json,http://54.235.29.9/FacialAge/BNav_EC2/DepthDuration/MX_fS_VE_MTurk/MX_fS_HTML.html#54,54,1872,958,1920,1080,0-31-2024,12-36-39,5,VR_target_stimuli/s11_1x_5_361_BC.png,250,1x,5.0,4.5,5209,237,meters,jsons/MX_seq52_2_VE250.json,302166,497346,48,Man
5,495733,final-intermixed-textured,v2,jsons/MX_seq52_2_VE250.json,http://54.235.29.9/FacialAge/BNav_EC2/DepthDuration/MX_fS_VE_MTurk/MX_fS_HTML.html#54,54,1872,958,1920,1080,0-31-2024,12-36-39,6,VR_target_stimuli/s2_0.75x_2.7_384.png,250,0.75x,2.7,0.0,3961,253,meters,jsons/MX_seq52_2_VE250.json,302166,497346,48,Man
6,495733,final-intermixed-textured,v2,jsons/MX_seq52_2_VE250.json,http://54.235.29.9/FacialAge/BNav_EC2/DepthDuration/MX_fS_VE_MTurk/MX_fS_HTML.html#54,54,1872,958,1920,1080,0-31-2024,12-36-39,7,catch_stimuli/c0.png,250,,,0.5,8392,247,meters,jsons/MX_seq52_2_VE250.json,302166,497346,48,Man
7,495733,final-intermixed-textured,v2,jsons/MX_seq52_2_VE250.json,http://54.235.29.9/FacialAge/BNav_EC2/DepthDuration/MX_fS_VE_MTurk/MX_fS_HTML.html#54,54,1872,958,1920,1080,0-31-2024,12-36-39,8,VR_target_stimuli/s6_0.75x_2.1_290_BC.png,250,0.75x,2.1,1.8,5287,250,meters,jsons/MX_seq52_2_VE250.json,302166,497346,48,Man
8,495733,final-intermixed-textured,v2,jsons/MX_seq52_2_VE250.json,http://54.235.29.9/FacialAge/BNav_EC2/DepthDuration/MX_fS_VE_MTurk/MX_fS_HTML.html#54,54,1872,958,1920,1080,0-31-2024,12-36-39,9,VR_target_stimuli/s0_1.3x_2.6_356.png,250,1.3x,2.6,2.0,4762,252,meters,jsons/MX_seq52_2_VE250.json,302166,497346,48,Man
9,495733,final-intermixed-textured,v2,jsons/MX_seq52_2_VE250.json,http://54.235.29.9/FacialAge/BNav_EC2/DepthDuration/MX_fS_VE_MTurk/MX_fS_HTML.html#54,54,1872,958,1920,1080,0-31-2024,12-36-39,10,VR_target_stimuli/s34_1x_2.8_283.png,250,1x,2.8,2.7,6370,248,meters,jsons/MX_seq52_2_VE250.json,302166,497346,48,Man
10,495733,final-intermixed-textured,v2,jsons/MX_seq52_2_VE250.json,http://54.235.29.9/FacialAge/BNav_EC2/DepthDuration/MX_fS_VE_MTurk/MX_fS_HTML.html#54,54,1872,958,1920,1080,0-31-2024,12-36-39,11,VR_target_stimuli/s13_1.3x_2.4_313_BC.png,250,1.3x,2.4,2.0,3534,244,meters,jsons/MX_seq52_2_VE250.json,302166,497346,48,Man
11,495733,final-intermixed-textured,v2,jsons/MX_seq52_2_VE250.json,http://54.235.29.9/FacialAge/BNav_EC2/DepthDuration/MX_fS_VE_MTurk/MX_fS_HTML.html#54,54,1872,958,1920,1080,0-31-2024,12-36-39,12,VR_target_stimuli/s14_0.75x_3.83_355.png,250,0.75x,3.83,3.0,3369,244,meters,jsons/MX_seq52_2_VE250.json,302166,497346,48,Man
12,495733,final-intermixed-textured,v2,jsons/MX_seq52_2_VE250.json,http://54.235.29.9/FacialAge/BNav_EC2/DepthDuration/MX_fS_VE_MTurk/MX_fS_HTML.html#54,54,1872,958,1920,1080,0-31-2024,12-36-39,13,VR_target_stimuli/s47_1x_3.45_370_BC.png,250,1x,3.45,1.2,6277,240,meters,jsons/MX_seq52_2_VE250.json,302166,497346,48,Man
13,495733,final-intermixed-textured,v2,jsons/MX_seq52_2_VE250.json,http://54.235.29.9/FacialAge/BNav_EC2/DepthDuration/MX_fS_VE_MTurk/MX_fS_HTML.html#54,54,1872,958,1920,1080,0-31-2024,12-36-39,14,VR_target_stimuli/s29_0.75x_1.3_246_BC.png,250,0.75x,1.3,1.0,3255,255,meters,jsons/MX_seq52_2_VE250.json,302166,497346,48,Man
14,495733,final-intermixed-textured,v2,jsons/MX_seq52_2_VE250.json,http://54.235.29.9/FacialAge/BNav_EC2/DepthDuration/MX_fS_VE_MTurk/MX_fS_HTML.html#54,54,1872,958,1920,1080,0-31-2024,12-36-39,15,VR_target_stimuli/s28_1.3x_3.2_365.png,250,1.3x,3.2,2.4,5147,249,meters,jsons/MX_seq52_2_VE250.json,302166,497346,48,Man
15,495733,final-intermixed-textured,v2,jsons/MX_seq52_2_VE250.json,http://54.235.29.9/FacialAge/BNav_EC2/DepthDuration/MX_fS_VE_MTurk/MX_fS_HTML.html#54,54,1872,958,1920,1080,0-31-2024,12-36-39,16,VR_target_stimuli/s48_1x_2.55_256.png,250,1x,2.55,1.5,5557,238,meters,jsons/MX_seq52_2_VE250.json,302166,497346,48,Man
16,495733,final-intermixed-textured,v2,jsons/MX_seq52_2_VE250.json,http://54.235.29.9/FacialAge/BNav_EC2/DepthDuration/MX_fS_VE_MTurk/MX_fS_HTML.html#54,54,1872,958,1920,1080,0-31-2024,12-36-39,17,catch_stimuli/c1.png,250,,,0.0,3592,238,meters,jsons/MX_seq52_2_VE250.json,302166,497346,48,Man
17,495733,final-intermixed-textured,v2,jsons/MX_seq52_2_VE250.json,http://54.235.29.9/FacialAge/BNav_EC2/DepthDuration/MX_fS_VE_MTurk/MX_fS_HTML.html#54,54,1872,958,1920,1080,0-31-2024,12-36-39,18,VR_target_stimuli/s19_1x_1.21_263_BC.png,250,1x,1.21,1.0,3384,238,meters,jsons/MX_seq52_2_VE250.json,302166,497346,48,Man
18,495733,final-intermixed-textured,v2,jsons/MX_seq52_2_VE250.json,http://54.235.29.9/FacialAge/BNav_EC2/DepthDuration/MX_fS_VE_MTurk/MX_fS_HTML.html#54,54,1872,958,1920,1080,0-31-2024,12-36-39,19,VR_target_stimuli/s21_0.75x_4.22_374.png,250,0.75x,4.22,3.0,5224,254,meters,jsons/MX_seq52_2_VE250.json,302166,497346,48,Man
19,495733,final-intermixed-textured,v2,jsons/MX_seq52_2_VE250.json,http://54.235.29.9/FacialAge/BNav_EC2/DepthDuration/MX_fS_VE_MTurk/MX_fS_HTML.html#54,54,1872,958,1920,1080,0-31-2024,12-36-39,20,VR_target_stimuli/s8_1.3x_3.1_345_BC.png,250,1.3x,3.1,2.0,3716,254,meters,jsons/MX_seq52_2_VE250.json,302166,497346,48,Man
20,495733,final-intermixed-textured,v2,jsons/MX_seq52_2_VE250.json,http://54.235.29.9/FacialAge/BNav_EC2/DepthDuration/MX_fS_VE_MTurk/MX_fS_HTML.html#54,54,1872,958,1920,1080,0-31-2024,12-36-39,21,VR_target_stimuli/s27_0.75x_1.76_243_BC.png,250,0.75x,1.76,1.5,5035,254,meters,jsons/MX_seq52_2_VE250.json,302166,497346,48,Man
21,495733,final-intermixed-textured,v2,jsons/MX_seq52_2_VE250.json,http://54.235.29.9/FacialAge/BNav_EC2/DepthDuration/MX_fS_VE_MTurk/MX_fS_HTML.html#54,54,1872,958,1920,1080,0-31-2024,12-36-39,22,VR_target_stimuli/s15_1x_4.2_390_BC.png,250,1x,4.2,4.0,4196,239,meters,jsons/MX_seq52_2_VE250.json,302166,497346,48,Man
22,495733,final-intermixed-textured,v2,jsons/MX_seq52_2_VE250.json,http://54.235.29.9/FacialAge/BNav_EC2/DepthDuration/MX_fS_VE_MTurk/MX_fS_HTML.html#54,54,1872,958,1920,1080,0-31-2024,12-36-39,23,VR_target_stimuli/s4_1.3x_1.4_328.png,250,1.3x,1.4,0.5,5911,251,meters,jsons/MX_seq52_2_VE250.json,302166,497346,48,Man
23,495733,final-intermixed-textured,v2,jsons/MX_seq52_2_VE250.json,http://54.235.29.9/FacialAge/BNav_EC2/DepthDuration/MX_fS_VE_MTurk/MX_fS_HTML.html#54,54,1872,958,1920,1080,0-31-2024,12-36-39,24,VR_target_stimuli/s35_1x_2_331.png,250,1x,2.0,1.2,4692,253,meters,jsons/MX_seq52_2_VE250.json,302166,497346,48,Man
24,495733,final-intermixed-textured,v2,jsons/MX_seq52_2_VE250.json,http://54.235.29.9/FacialAge/BNav_EC2/DepthDuration/MX_fS_VE_MTurk/MX_fS_HTML.html#54,54,1872,958,1920,1080,0-31-2024,12-36-39,25,VR_target_stimuli/s49_0.75x_4.67_328.png,250,0.75x,4.67,5.0,5320,247,meters,jsons/MX_seq52_2_VE250.json,302166,497346,48,Man
25,495733,final-intermixed-textured,v2,jsons/MX_seq52_2_VE250.json,http://54.235.29.9/FacialAge/BNav_EC2/DepthDuration/MX_fS_VE_MTurk/MX_fS_HTML.html#54,54,1872,958,1920,1080,0-31-2024,12-36-39,26,catch_stimuli/c2.png,250,,,0.0,5075,245,meters,jsons/MX_seq52_2_VE250.json,302166,497346,48,Man
26,495733,final-intermixed-textured,v2,jsons/MX_seq52_2_VE250.json,http://54.235.29.9/FacialAge/BNav_EC2/DepthDuration/MX_fS_VE_MTurk/MX_fS_HTML.html#54,54,1872,958,1920,1080,0-31-2024,12-36-39,27,VR_target_stimuli/s7_1.3x_1.5_256_BC.png,250,1.3x,1.5,1.3,4276,247,meters,jsons/MX_seq52_2_VE250.json,302166,497346,48,Man
27,495733,final-intermixed-textured,v2,jsons/MX_seq52_2_VE250.json,http://54.235.29.9/FacialAge/BNav_EC2/DepthDuration/MX_fS_VE_MTurk/MX_fS_HTML.html#54,54,1872,958,1920,1080,0-31-2024,12-36-39,28,VR_target_stimuli/s20_1.3x_4.99_412.png,250,1.3x,4.99,4.2,4950,247,meters,jsons/MX_seq52_2_VE250.json,302166,497346,48,Man
28,495733,final-intermixed-textured,v2,jsons/MX_seq52_2_VE250.json,http://54.235.29.9/FacialAge/BNav_EC2/DepthDuration/MX_fS_VE_MTurk/MX_fS_HTML.html#54,54,1872,958,1920,1080,0-31-2024,12-36-39,29,VR_target_stimuli/s31_1x_4.96_333.png,250,1x,4.96,1.4,5132,242,meters,jsons/MX_seq52_2_VE250.json,302166,497346,48,Man
29,495733,final-intermixed-textured,v2,jsons/MX_seq52_2_VE250.json,http://54.235.29.9/FacialAge/BNav_EC2/DepthDuration/MX_fS_VE_MTurk/MX_fS_HTML.html#54,54,1872,958,1920,1080,0-31-2024,12-36-39,30,VR_target_stimuli/s33_0.75x_3.1_361_BC.png,250,0.75x,3.1,2.0,2957,245,meters,jsons/MX_seq52_2_VE250.json,302166,497346,48,Man
30,495733,final-intermixed-textured,v2,jsons/MX_seq52_2_VE250.json,http://54.235.29.9/FacialAge/BNav_EC2/DepthDuration/MX_fS_VE_MTurk/MX_fS_HTML.html#54,54,1872,958,1920,1080,0-31-2024,12-36-39,31,VR_target_stimuli/s52_1.3x_3.2_280_BC.png,250,1.3x,3.2,3.0,2719,252,meters,jsons/MX_seq52_2_VE250.json,302166,497346,48,Man
31,495733,final-intermixed-textured,v2,jsons/MX_seq52_2_VE250.json,http://54.235.29.9/FacialAge/BNav_EC2/DepthDuration/MX_fS_VE_MTurk/MX_fS_HTML.html#54,54,1872,958,1920,1080,0-31-2024,12-36-39,32,VR_target_stimuli/s32_0.75x_1.5_213.png,250,0.75x,1.5,1.2,5309,251,meters,jsons/MX_seq52_2_VE250.json,302166,497346,48,Man
32,495733,final-intermixed-textured,v2,jsons/MX_seq52_2_VE250.json,http://54.235.29.9/FacialAge/BNav_EC2/DepthDuration/MX_fS_VE_MTurk/MX_fS_HTML.html#54,54,1872,958,1920,1080,0-31-2024,12-36-39,33,VR_target_stimuli/s18_1x_2.25_353_BC.png,250,1x,2.25,1.5,4412,250,meters,jsons/MX_seq52_2_VE250.json,302166,497346,48,Man
33,495733,final-intermixed-textured,v2,jsons/MX_seq52_2_VE250.json,http://54.235.29.9/FacialAge/BNav_EC2/DepthDuration/MX_fS_VE_MTurk/MX_fS_HTML.html#54,54,1872,958,1920,1080,0-31-2024,12-36-39,34,catch_stimuli/c3.png,250,,,0.0,3501,247,meters,jsons/MX_seq52_2_VE250.json,302166,497346,48,Man
34,495733,final-intermixed-textured,v2,jsons/MX_seq52_2_VE250.json,http://54.235.29.9/FacialAge/BNav_EC2/DepthDuration/MX_fS_VE_MTurk/MX_fS_HTML.html#54,54,1872,958,1920,1080,0-31-2024,12-36-39,35,VR_target_stimuli/s39_0.75x_1_205_BC.png,250,0.75x,1.0,1.0,2720,244,meters,jsons/MX_seq52_2_VE250.json,302166,497346,48,Man
35,495733,final-intermixed-textured,v2,jsons/MX_seq52_2_VE250.json,http://54.235.29.9/FacialAge/BNav_EC2/DepthDuration/MX_fS_VE_MTurk/MX_fS_HTML.html#54,54,1872,958,1920,1080,0-31-2024,12-36-39,36,VR_target_stimuli/s51_1.3x_3.64_479.png,250,1.3x,3.64,1.2,3967,262,meters,jsons/MX_seq52_2_VE250.json,302166,497346,48,Man
36,495733,final-intermixed-textured,v2,jsons/MX_seq52_2_VE250.json,http://54.235.29.9/FacialAge/BNav_EC2/DepthDuration/MX_fS_VE_MTurk/MX_fS_HTML.html#54,54,1872,958,1920,1080,0-31-2024,12-36-39,37,VR_target_stimuli/s43_1x_2.2_354_BC.png,250,1x,2.2,2.0,2598,246,meters,jsons/MX_seq52_2_VE250.json,302166,497346,48,Man
37,495733,final-intermixed-textured,v2,jsons/MX_seq52_2_VE250.json,http://54.235.29.9/FacialAge/BNav_EC2/DepthDuration/MX_fS_VE_MTurk/MX_fS_HTML.html#54,54,1872,958,1920,1080,0-31-2024,12-36-39,38,VR_target_stimuli/s24_1x_3.3_349.png,250,1x,3.3,2.2,4862,248,meters,jsons/MX_seq52_2_VE250.json,302166,497346,48,Man
38,495733,final-intermixed-textured,v2,jsons/MX_seq52_2_VE250.json,http://54.235.29.9/FacialAge/BNav_EC2/DepthDuration/MX_fS_VE_MTurk/MX_fS_HTML.html#54,54,1872,958,1920,1080,0-31-2024,12-36-39,39,VR_target_stimuli/s10_0.75x_2.7_321.png,250,0.75x,2.7,3.0,2822,248,meters,jsons/MX_seq52_2_VE250.json,302166,497346,48,Man
39,495733,final-intermixed-textured,v2,jsons/MX_seq52_2_VE250.json,http://54.235.29.9/FacialAge/BNav_EC2/DepthDuration/MX_fS_VE_MTurk/MX_fS_HTML.html#54,54,1872,958,1920,1080,0-31-2024,12-36-39,40,VR_target_stimuli/s36_1.3x_4.1_442_BC.png,250,1.3x,4.1,3.5,4577,261,meters,jsons/MX_seq52_2_VE250.json,302166,497346,48,Man
40,495733,final-intermixed-textured,v2,jsons/MX_seq52_2_VE250.json,http://54.235.29.9/FacialAge/BNav_EC2/DepthDuration/MX_fS_VE_MTurk/MX_fS_HTML.html#54,54,1872,958,1920,1080,0-31-2024,12-36-39,41,VR_target_stimuli/s40_0.75x_1.2_308.png,250,0.75x,1.2,1.3,6240,250,meters,jsons/MX_seq52_2_VE250.json,302166,497346,48,Man
41,495733,final-intermixed-textured,v2,jsons/MX_seq52_2_VE250.json,http://54.235.29.9/FacialAge/BNav_EC2/DepthDuration/MX_fS_VE_MTurk/MX_fS_HTML.html#54,54,1872,958,1920,1080,0-31-2024,12-36-39,42,VR_target_stimuli/s41_1x_2.1_286_BC.png,250,1x,2.1,2.4,4087,250,meters,jsons/MX_seq52_2_VE250.json,302166,497346,48,Man
42,495733,final-intermixed-textured,v2,jsons/MX_seq52_2_VE250.json,http://54.235.29.9/FacialAge/BNav_EC2/DepthDuration/MX_fS_VE_MTurk/MX_fS_HTML.html#54,54,1872,958,1920,1080,0-31-2024,12-36-39,43,VR_target_stimuli/s45_1.3x_3.5_377.png,250,1.3x,3.5,3.0,2686,248,meters,jsons/MX_seq52_2_VE250.json,302166,497346,48,Man
43,495733,final-intermixed-textured,v2,jsons/MX_seq52_2_VE250.json,http://54.235.29.9/FacialAge/BNav_EC2/DepthDuration/MX_fS_VE_MTurk/MX_fS_HTML.html#54,54,1872,958,1920,1080,0-31-2024,12-36-39,44,VR_target_stimuli/s23_1x_3.65_353.png,250,1x,3.65,3.2,5430,246,meters,jsons/MX_seq52_2_VE250.json,302166,497346,48,Man
44,495733,final-intermixed-textured,v2,jsons/MX_seq52_2_VE250.json,http://54.235.29.9/FacialAge/BNav_EC2/DepthDuration/MX_fS_VE_MTurk/MX_fS_HTML.html#54,54,1872,958,1920,1080,0-31-2024,12-36-39,45,catch_stimuli/c4.png,250,,,0.0,3464,261,meters,jsons/MX_seq52_2_VE250.json,302166,497346,48,Man
45,495733,final-intermixed-textured,v2,jsons/MX_seq52_2_VE250.json,http://54.235.29.9/FacialAge/BNav_EC2/DepthDuration/MX_fS_VE_MTurk/MX_fS_HTML.html#54,54,1872,958,1920,1080,0-31-2024,12-36-39,46,VR_target_stimuli/s26_0.75x_4_430_BC.png,250,0.75x,4.0,3.0,3751,264,meters,jsons/MX_seq52_2_VE250.json,302166,497346,48,Man
46,495733,final-intermixed-textured,v2,jsons/MX_seq52_2_VE250.json,http://54.235.29.9/FacialAge/BNav_EC2/DepthDuration/MX_fS_VE_MTurk/MX_fS_HTML.html#54,54,1872,958,1920,1080,0-31-2024,12-36-39,47,VR_target_stimuli/s12_1.3x_3.1_375_BC.png,250,1.3x,3.1,2.2,5591,250,meters,jsons/MX_seq52_2_VE250.json,302166,497346,48,Man
47,495733,final-intermixed-textured,v2,jsons/MX_seq52_2_VE250.json,http://54.235.29.9/FacialAge/BNav_EC2/DepthDuration/MX_fS_VE_MTurk/MX_fS_HTML.html#54,54,1872,958,1920,1080,0-31-2024,12-36-39,48,VR_target_stimuli/s30_1.3x_2.3_337.png,250,1.3x,2.3,2.0,4063,245,meters,jsons/MX_seq52_2_VE250.json,302166,497346,48,Man
48,495733,final-intermixed-textured,v2,jsons/MX_seq52_2_VE250.json,http://54.235.29.9/FacialAge/BNav_EC2/DepthDuration/MX_fS_VE_MTurk/MX_fS_HTML.html#54,54,1872,958,1920,1080,0-31-2024,12-36-39,49,VR_target_stimuli/s16_1x_1_219_BC.png,250,1x,1.0,1.5,4423,251,meters,jsons/MX_seq52_2_VE250.json,302166,497346,48,Man
49,495733,final-intermixed-textured,v2,jsons/MX_seq52_2_VE250.json,http://54.235.29.9/FacialAge/BNav_EC2/DepthDuration/MX_fS_VE_MTurk/MX_fS_HTML.html#54,54,1872,958,1920,1080,0-31-2024,12-36-39,50,VR_target_stimuli/s17_0.75x_1.8_285.png,250,0.75x,1.8,1.8,6436,249,meters,jsons/MX_seq52_2_VE250.json,302166,497346,48,Man
50,495733,final-intermixed-textured,v2,jsons/MX_seq52_2_VE250.json,http://54.235.29.9/FacialAge/BNav_EC2/DepthDuration/MX_fS_VE_MTurk/MX_fS_HTML.html#54,54,1872,958,1920,1080,0-31-2024,12-36-39,51,VR_target_stimuli/s5_1x_4_378.png,250,1x,4.0,3.1,6308,247,meters,jsons/MX_seq52_2_VE250.json,302166,497346,48,Man
51,495733,final-intermixed-textured,v2,jsons/MX_seq52_2_VE250.json,http://54.235.29.9/FacialAge/BNav_EC2/DepthDuration/MX_fS_VE_MTurk/MX_fS_HTML.html#54,54,1872,958,1920,1080,0-31-2024,12-36-39,52,VR_target_stimuli/s37_1.3x_3.3_555_BC.png,250,1.3x,3.3,1.0,3146,245,meters,jsons/MX_seq52_2_VE250.json,302166,497346,48,Man
52,495733,final-intermixed-textured,v2,jsons/MX_seq52_2_VE250.json,http://54.235.29.9/FacialAge/BNav_EC2/DepthDuration/MX_fS_VE_MTurk/MX_fS_HTML.html#54,54,1872,958,1920,1080,0-31-2024,12-36-39,53,catch_stimuli/c5.png,250,,,0.0,2996,248,meters,jsons/MX_seq52_2_VE250.json,302166,497346,48,Man
53,495733,final-intermixed-textured,v2,jsons/MX_seq52_2_VE250.json,http://54.235.29.9/FacialAge/BNav_EC2/DepthDuration/MX_fS_VE_MTurk/MX_fS_HTML.html#54,54,1872,958,1920,1080,0-31-2024,12-36-39,54,VR_target_stimuli/s46_0.75x_2.42_343_BC.png,250,0.75x,2.42,2.0,3101,252,meters,jsons/MX_seq52_2_VE250.json,302166,497346,48,Man
54,495733,final-intermixed-textured,v2,jsons/MX_seq52_2_VE250.json,http://54.235.29.9/FacialAge/BNav_EC2/DepthDuration/MX_fS_VE_MTurk/MX_fS_HTML.html#54,54,1872,958,1920,1080,0-31-2024,12-36-39,55,VR_target_stimuli/s22_1.3x_4.29_364.png,250,1.3x,4.29,3.2,4997,264,meters,jsons/MX_seq52_2_VE250.json,302166,497346,48,Man
55,495733,final-intermixed-textured,v2,jsons/MX_seq52_2_VE250.json,http://54.235.29.9/FacialAge/BNav_EC2/DepthDuration/MX_fS_VE_MTurk/MX_fS_HTML.html#54,54,1872,958,1920,1080,0-31-2024,12-36-39,56,VR_target_stimuli/s42_1x_3.2_303.png,250,1x,3.2,4.0,4511,254,meters,jsons/MX_seq52_2_VE250.json,302166,497346,48,Man
56,495733,final-intermixed-textured,v2,jsons/MX_seq52_2_VE250.json,http://54.235.29.9/FacialAge/BNav_EC2/DepthDuration/MX_fS_VE_MTurk/MX_fS_HTML.html#54,54,1872,958,1920,1080,0-31-2024,12-36-39,57,VR_target_stimuli/s25_0.75x_1.4_281.png,250,0.75x,1.4,1.5,4693,263,meters,jsons/MX_seq52_2_VE250.json,302166,497346,48,Man
57,495733,final-intermixed-textured,v2,jsons/MX_seq52_2_VE250.json,http://54.235.29.9/FacialAge/BNav_EC2/DepthDuration/MX_fS_VE_MTurk/MX_fS_HTML.html#54,54,1872,958,1920,1080,0-31-2024,12-36-39,58,VR_target_stimuli/s50_0.75x_4.53_517_BC.png,250,0.75x,4.53,2.4,4325,260,meters,jsons/MX_seq52_2_VE250.json,302166,497346,48,Man
58,495733,final-intermixed-textured,v2,jsons/MX_seq52_2_VE250.json,http://54.235.29.9/FacialAge/BNav_EC2/DepthDuration/MX_fS_VE_MTurk/MX_fS_HTML.html#54,54,1872,958,1920,1080,0-31-2024,12-36-39,59,VR_target_stimuli/s53_1.3x_1.6_355_BC.png,250,1.3x,1.6,1.0,2959,246,meters,jsons/MX_seq52_2_VE250.json,302166,497346,48,Man
59,495733,final-intermixed-textured,v2,jsons/MX_seq52_2_VE250.json,http://54.235.29.9/FacialAge/BNav_EC2/DepthDuration/MX_fS_VE_MTurk/MX_fS_HTML.html#54,54,1872,958,1920,1080,0-31-2024,12-36-39,60,VR_target_stimuli/s38_1x_3.55_353_BC.png,250,1x,3.55,4.0,3792,263,meters,jsons/MX_seq52_2_VE250.json,302166,497346,48,Man
