,subjID,experimentName,versionName,sequenceName,url,selected_row,windowWidth,windowHeight,screenWidth,screenHeight,startDate,startTime,trial,stimulus,duration,scale,actual_depth,depth_estimate,trial_RT,log_sceneDuration,unitSelection,seq_filepath,experimentTime,totalTime,age,gender
0,497940,final-intermixed-textured,v2,jsons/MX_seq26_2_VE250.json,http://54.235.29.9/FacialAge/BNav_EC2/DepthDuration/MX_fS_VE_MTurk/MX_fS_HTML.html#266,266,1920,1080,1920,1080,0-31-2024,19-12-0,1,VR_target_stimuli/s32_1x_1.5_218_BC.png,250,1x,1.5,0.0,3134,250,meters,jsons/MX_seq26_2_VE250.json,172394,427144,27,Man
1,497940,final-intermixed-textured,v2,jsons/MX_seq26_2_VE250.json,http://54.235.29.9/FacialAge/BNav_EC2/DepthDuration/MX_fS_VE_MTurk/MX_fS_HTML.html#266,266,1920,1080,1920,1080,0-31-2024,19-12-0,2,VR_target_stimuli/s18_1.3x_2.25_368.png,250,1.3x,2.25,1.3,3309,250,meters,jsons/MX_seq26_2_VE250.json,172394,427144,27,Man
2,497940,final-intermixed-textured,v2,jsons/MX_seq26_2_VE250.json,http://54.235.29.9/FacialAge/BNav_EC2/DepthDuration/MX_fS_VE_MTurk/MX_fS_HTML.html#266,266,1920,1080,1920,1080,0-31-2024,19-12-0,3,VR_target_stimuli/s39_0.75x_1_205_BC.png,250,0.75x,1.0,2.0,4317,250,meters,jsons/MX_seq26_2_VE250.json,172394,427144,27,Man
3,497940,final-intermixed-textured,v2,jsons/MX_seq26_2_VE250.json,http://54.235.29.9/FacialAge/BNav_EC2/DepthDuration/MX_fS_VE_MTurk/MX_fS_HTML.html#266,266,1920,1080,1920,1080,0-31-2024,19-12-0,4,VR_target_stimuli/s51_1.3x_3.64_479_BC.png,250,1.3x,3.64,2.0,2362,250,meters,jsons/MX_seq26_2_VE250.json,172394,427144,27,Man
4,497940,final-intermixed-textured,v2,jsons/MX_seq26_2_VE250.json,http://54.235.29.9/FacialAge/BNav_EC2/DepthDuration/MX_fS_VE_MTurk/MX_fS_HTML.html#266,266,1920,1080,1920,1080,0-31-2024,19-12-0,5,VR_target_stimuli/s43_1x_2.2_354.png,250,1x,2.2,1.3,3656,250,meters,jsons/MX_seq26_2_VE250.json,172394,427144,27,Man
5,497940,final-intermixed-textured,v2,jsons/MX_seq26_2_VE250.json,http://54.235.29.9/FacialAge/BNav_EC2/DepthDuration/MX_fS_VE_MTurk/MX_fS_HTML.html#266,266,1920,1080,1920,1080,0-31-2024,19-12-0,6,VR_target_stimuli/s24_0.75x_3.3_344.png,250,0.75x,3.3,0.0,3099,250,meters,jsons/MX_seq26_2_VE250.json,172394,427144,27,Man
6,497940,final-intermixed-textured,v2,jsons/MX_seq26_2_VE250.json,http://54.235.29.9/FacialAge/BNav_EC2/DepthDuration/MX_fS_VE_MTurk/MX_fS_HTML.html#266,266,1920,1080,1920,1080,0-31-2024,19-12-0,7,catch_stimuli/c0.png,250,,,0.0,1666,250,meters,jsons/MX_seq26_2_VE250.json,172394,427144,27,Man
7,497940,final-intermixed-textured,v2,jsons/MX_seq26_2_VE250.json,http://54.235.29.9/FacialAge/BNav_EC2/DepthDuration/MX_fS_VE_MTurk/MX_fS_HTML.html#266,266,1920,1080,1920,1080,0-31-2024,19-12-0,8,VR_target_stimuli/s10_0.75x_2.7_321_BC.png,250,0.75x,2.7,2.0,1893,250,meters,jsons/MX_seq26_2_VE250.json,172394,427144,27,Man
8,497940,final-intermixed-textured,v2,jsons/MX_seq26_2_VE250.json,http://54.235.29.9/FacialAge/BNav_EC2/DepthDuration/MX_fS_VE_MTurk/MX_fS_HTML.html#266,266,1920,1080,1920,1080,0-31-2024,19-12-0,9,VR_target_stimuli/s36_1.3x_4.1_442_BC.png,250,1.3x,4.1,3.0,2049,250,meters,jsons/MX_seq26_2_VE250.json,172394,427144,27,Man
9,497940,final-intermixed-textured,v2,jsons/MX_seq26_2_VE250.json,http://54.235.29.9/FacialAge/BNav_EC2/DepthDuration/MX_fS_VE_MTurk/MX_fS_HTML.html#266,266,1920,1080,1920,1080,0-31-2024,19-12-0,10,VR_target_stimuli/s40_1x_1.2_319_BC.png,250,1x,1.2,1.2,4767,251,meters,jsons/MX_seq26_2_VE250.json,172394,427144,27,Man
10,497940,final-intermixed-textured,v2,jsons/MX_seq26_2_VE250.json,http://54.235.29.9/FacialAge/BNav_EC2/DepthDuration/MX_fS_VE_MTurk/MX_fS_HTML.html#266,266,1920,1080,1920,1080,0-31-2024,19-12-0,11,VR_target_stimuli/s41_1.3x_2.1_294.png,250,1.3x,2.1,2.0,2271,250,meters,jsons/MX_seq26_2_VE250.json,172394,427144,27,Man
11,497940,final-intermixed-textured,v2,jsons/MX_seq26_2_VE250.json,http://54.235.29.9/FacialAge/BNav_EC2/DepthDuration/MX_fS_VE_MTurk/MX_fS_HTML.html#266,266,1920,1080,1920,1080,0-31-2024,19-12-0,12,VR_target_stimuli/s45_0.75x_3.5_362.png,250,0.75x,3.5,2.0,2902,250,meters,jsons/MX_seq26_2_VE250.json,172394,427144,27,Man
12,497940,final-intermixed-textured,v2,jsons/MX_seq26_2_VE250.json,http://54.235.29.9/FacialAge/BNav_EC2/DepthDuration/MX_fS_VE_MTurk/MX_fS_HTML.html#266,266,1920,1080,1920,1080,0-31-2024,19-12-0,13,VR_target_stimuli/s23_1x_3.65_353.png,250,1x,3.65,2.3,5438,250,meters,jsons/MX_seq26_2_VE250.json,172394,427144,27,Man
13,497940,final-intermixed-textured,v2,jsons/MX_seq26_2_VE250.json,http://54.235.29.9/FacialAge/BNav_EC2/DepthDuration/MX_fS_VE_MTurk/MX_fS_HTML.html#266,266,1920,1080,1920,1080,0-31-2024,19-12-0,14,VR_target_stimuli/s26_0.75x_4_430.png,250,0.75x,4.0,1.4,5300,250,meters,jsons/MX_seq26_2_VE250.json,172394,427144,27,Man
14,497940,final-intermixed-textured,v2,jsons/MX_seq26_2_VE250.json,http://54.235.29.9/FacialAge/BNav_EC2/DepthDuration/MX_fS_VE_MTurk/MX_fS_HTML.html#266,266,1920,1080,1920,1080,0-31-2024,19-12-0,15,VR_target_stimuli/s12_1.3x_3.1_375.png,250,1.3x,3.1,2.0,1708,250,meters,jsons/MX_seq26_2_VE250.json,172394,427144,27,Man
15,497940,final-intermixed-textured,v2,jsons/MX_seq26_2_VE250.json,http://54.235.29.9/FacialAge/BNav_EC2/DepthDuration/MX_fS_VE_MTurk/MX_fS_HTML.html#266,266,1920,1080,1920,1080,0-31-2024,19-12-0,16,VR_target_stimuli/s30_1x_2.3_334_BC.png,250,1x,2.3,2.0,1640,251,meters,jsons/MX_seq26_2_VE250.json,172394,427144,27,Man
16,497940,final-intermixed-textured,v2,jsons/MX_seq26_2_VE250.json,http://54.235.29.9/FacialAge/BNav_EC2/DepthDuration/MX_fS_VE_MTurk/MX_fS_HTML.html#266,266,1920,1080,1920,1080,0-31-2024,19-12-0,17,catch_stimuli/c1.png,250,,,0.0,2600,250,meters,jsons/MX_seq26_2_VE250.json,172394,427144,27,Man
17,497940,final-intermixed-textured,v2,jsons/MX_seq26_2_VE250.json,http://54.235.29.9/FacialAge/BNav_EC2/DepthDuration/MX_fS_VE_MTurk/MX_fS_HTML.html#266,266,1920,1080,1920,1080,0-31-2024,19-12-0,18,VR_target_stimuli/s16_1x_1_219.png,250,1x,1.0,1.0,2579,250,meters,jsons/MX_seq26_2_VE250.json,172394,427144,27,Man
18,497940,final-intermixed-textured,v2,jsons/MX_seq26_2_VE250.json,http://54.235.29.9/FacialAge/BNav_EC2/DepthDuration/MX_fS_VE_MTurk/MX_fS_HTML.html#266,266,1920,1080,1920,1080,0-31-2024,19-12-0,19,VR_target_stimuli/s17_0.75x_1.8_285_BC.png,250,0.75x,1.8,2.0,1795,250,meters,jsons/MX_seq26_2_VE250.json,172394,427144,27,Man
19,497940,final-intermixed-textured,v2,jsons/MX_seq26_2_VE250.json,http://54.235.29.9/FacialAge/BNav_EC2/DepthDuration/MX_fS_VE_MTurk/MX_fS_HTML.html#266,266,1920,1080,1920,1080,0-31-2024,19-12-0,20,VR_target_stimuli/s5_1.3x_4_393_BC.png,250,1.3x,4.0,3.0,1855,250,meters,jsons/MX_seq26_2_VE250.json,172394,427144,27,Man
20,497940,final-intermixed-textured,v2,jsons/MX_seq26_2_VE250.json,http://54.235.29.9/FacialAge/BNav_EC2/DepthDuration/MX_fS_VE_MTurk/MX_fS_HTML.html#266,266,1920,1080,1920,1080,0-31-2024,19-12-0,21,VR_target_stimuli/s37_0.75x_3.3_567.png,250,0.75x,3.3,2.0,2323,250,meters,jsons/MX_seq26_2_VE250.json,172394,427144,27,Man
21,497940,final-intermixed-textured,v2,jsons/MX_seq26_2_VE250.json,http://54.235.29.9/FacialAge/BNav_EC2/DepthDuration/MX_fS_VE_MTurk/MX_fS_HTML.html#266,266,1920,1080,1920,1080,0-31-2024,19-12-0,22,VR_target_stimuli/s46_1x_2.42_348.png,250,1x,2.42,1.2,4104,251,meters,jsons/MX_seq26_2_VE250.json,172394,427144,27,Man
22,497940,final-intermixed-textured,v2,jsons/MX_seq26_2_VE250.json,http://54.235.29.9/FacialAge/BNav_EC2/DepthDuration/MX_fS_VE_MTurk/MX_fS_HTML.html#266,266,1920,1080,1920,1080,0-31-2024,19-12-0,23,VR_target_stimuli/s22_1.3x_4.29_364.png,250,1.3x,4.29,3.0,1867,249,meters,jsons/MX_seq26_2_VE250.json,172394,427144,27,Man
23,497940,final-intermixed-textured,v2,jsons/MX_seq26_2_VE250.json,http://54.235.29.9/FacialAge/BNav_EC2/DepthDuration/MX_fS_VE_MTurk/MX_fS_HTML.html#266,266,1920,1080,1920,1080,0-31-2024,19-12-0,24,VR_target_stimuli/s42_1x_3.2_303_BC.png,250,1x,3.2,2.0,1725,250,meters,jsons/MX_seq26_2_VE250.json,172394,427144,27,Man
24,497940,final-intermixed-textured,v2,jsons/MX_seq26_2_VE250.json,http://54.235.29.9/FacialAge/BNav_EC2/DepthDuration/MX_fS_VE_MTurk/MX_fS_HTML.html#266,266,1920,1080,1920,1080,0-31-2024,19-12-0,25,VR_target_stimuli/s25_0.75x_1.4_281_BC.png,250,0.75x,1.4,1.0,1996,250,meters,jsons/MX_seq26_2_VE250.json,172394,427144,27,Man
25,497940,final-intermixed-textured,v2,jsons/MX_seq26_2_VE250.json,http://54.235.29.9/FacialAge/BNav_EC2/DepthDuration/MX_fS_VE_MTurk/MX_fS_HTML.html#266,266,1920,1080,1920,1080,0-31-2024,19-12-0,26,catch_stimuli/c2.png,250,,,0.0,3025,250,meters,jsons/MX_seq26_2_VE250.json,172394,427144,27,Man
26,497940,final-intermixed-textured,v2,jsons/MX_seq26_2_VE250.json,http://54.235.29.9/FacialAge/BNav_EC2/DepthDuration/MX_fS_VE_MTurk/MX_fS_HTML.html#266,266,1920,1080,1920,1080,0-31-2024,19-12-0,27,VR_target_stimuli/s50_1.3x_4.53_518_BC.png,250,1.3x,4.53,2.0,1534,250,meters,jsons/MX_seq26_2_VE250.json,172394,427144,27,Man
27,497940,final-intermixed-textured,v2,jsons/MX_seq26_2_VE250.json,http://54.235.29.9/FacialAge/BNav_EC2/DepthDuration/MX_fS_VE_MTurk/MX_fS_HTML.html#266,266,1920,1080,1920,1080,0-31-2024,19-12-0,28,VR_target_stimuli/s53_1.3x_1.6_355_BC.png,250,1.3x,1.6,1.5,3662,249,meters,jsons/MX_seq26_2_VE250.json,172394,427144,27,Man
28,497940,final-intermixed-textured,v2,jsons/MX_seq26_2_VE250.json,http://54.235.29.9/FacialAge/BNav_EC2/DepthDuration/MX_fS_VE_MTurk/MX_fS_HTML.html#266,266,1920,1080,1920,1080,0-31-2024,19-12-0,29,VR_target_stimuli/s38_1x_3.55_353.png,250,1x,3.55,2.0,1942,249,meters,jsons/MX_seq26_2_VE250.json,172394,427144,27,Man
29,497940,final-intermixed-textured,v2,jsons/MX_seq26_2_VE250.json,http://54.235.29.9/FacialAge/BNav_EC2/DepthDuration/MX_fS_VE_MTurk/MX_fS_HTML.html#266,266,1920,1080,1920,1080,0-31-2024,19-12-0,30,VR_target_stimuli/s9_0.75x_1.2_260_BC.png,250,0.75x,1.2,1.0,2242,250,meters,jsons/MX_seq26_2_VE250.json,172394,427144,27,Man
30,497940,final-intermixed-textured,v2,jsons/MX_seq26_2_VE250.json,http://54.235.29.9/FacialAge/BNav_EC2/DepthDuration/MX_fS_VE_MTurk/MX_fS_HTML.html#266,266,1920,1080,1920,1080,0-31-2024,19-12-0,31,VR_target_stimuli/s44_1.3x_4.4_325.png,250,1.3x,4.4,2.0,1923,250,meters,jsons/MX_seq26_2_VE250.json,172394,427144,27,Man
31,497940,final-intermixed-textured,v2,jsons/MX_seq26_2_VE250.json,http://54.235.29.9/FacialAge/BNav_EC2/DepthDuration/MX_fS_VE_MTurk/MX_fS_HTML.html#266,266,1920,1080,1920,1080,0-31-2024,19-12-0,32,VR_target_stimuli/s3_0.75x_5_381.png,250,0.75x,5.0,4.0,1853,250,meters,jsons/MX_seq26_2_VE250.json,172394,427144,27,Man
32,497940,final-intermixed-textured,v2,jsons/MX_seq26_2_VE250.json,http://54.235.29.9/FacialAge/BNav_EC2/DepthDuration/MX_fS_VE_MTurk/MX_fS_HTML.html#266,266,1920,1080,1920,1080,0-31-2024,19-12-0,33,VR_target_stimuli/s1_1x_1.7_262_BC.png,250,1x,1.7,1.0,2319,250,meters,jsons/MX_seq26_2_VE250.json,172394,427144,27,Man
33,497940,final-intermixed-textured,v2,jsons/MX_seq26_2_VE250.json,http://54.235.29.9/FacialAge/BNav_EC2/DepthDuration/MX_fS_VE_MTurk/MX_fS_HTML.html#266,266,1920,1080,1920,1080,0-31-2024,19-12-0,34,catch_stimuli/c3.png,250,,,0.0,2475,250,meters,jsons/MX_seq26_2_VE250.json,172394,427144,27,Man
34,497940,final-intermixed-textured,v2,jsons/MX_seq26_2_VE250.json,http://54.235.29.9/FacialAge/BNav_EC2/DepthDuration/MX_fS_VE_MTurk/MX_fS_HTML.html#266,266,1920,1080,1920,1080,0-31-2024,19-12-0,35,VR_target_stimuli/s11_0.75x_5_359.png,250,0.75x,5.0,3.0,1881,250,meters,jsons/MX_seq26_2_VE250.json,172394,427144,27,Man
35,497940,final-intermixed-textured,v2,jsons/MX_seq26_2_VE250.json,http://54.235.29.9/FacialAge/BNav_EC2/DepthDuration/MX_fS_VE_MTurk/MX_fS_HTML.html#266,266,1920,1080,1920,1080,0-31-2024,19-12-0,36,VR_target_stimuli/s2_1.3x_2.7_397.png,250,1.3x,2.7,2.0,1788,250,meters,jsons/MX_seq26_2_VE250.json,172394,427144,27,Man
36,497940,final-intermixed-textured,v2,jsons/MX_seq26_2_VE250.json,http://54.235.29.9/FacialAge/BNav_EC2/DepthDuration/MX_fS_VE_MTurk/MX_fS_HTML.html#266,266,1920,1080,1920,1080,0-31-2024,19-12-0,37,VR_target_stimuli/s6_1x_2.1_293.png,250,1x,2.1,2.0,2031,251,meters,jsons/MX_seq26_2_VE250.json,172394,427144,27,Man
37,497940,final-intermixed-textured,v2,jsons/MX_seq26_2_VE250.json,http://54.235.29.9/FacialAge/BNav_EC2/DepthDuration/MX_fS_VE_MTurk/MX_fS_HTML.html#266,266,1920,1080,1920,1080,0-31-2024,19-12-0,38,VR_target_stimuli/s0_1x_2.6_351_BC.png,250,1x,2.6,3.0,2033,250,meters,jsons/MX_seq26_2_VE250.json,172394,427144,27,Man
38,497940,final-intermixed-textured,v2,jsons/MX_seq26_2_VE250.json,http://54.235.29.9/FacialAge/BNav_EC2/DepthDuration/MX_fS_VE_MTurk/MX_fS_HTML.html#266,266,1920,1080,1920,1080,0-31-2024,19-12-0,39,VR_target_stimuli/s34_0.75x_2.8_269_BC.png,250,0.75x,2.8,2.0,1849,250,meters,jsons/MX_seq26_2_VE250.json,172394,427144,27,Man
39,497940,final-intermixed-textured,v2,jsons/MX_seq26_2_VE250.json,http://54.235.29.9/FacialAge/BNav_EC2/DepthDuration/MX_fS_VE_MTurk/MX_fS_HTML.html#266,266,1920,1080,1920,1080,0-31-2024,19-12-0,40,VR_target_stimuli/s13_1.3x_2.4_313_BC.png,250,1.3x,2.4,2.0,1590,250,meters,jsons/MX_seq26_2_VE250.json,172394,427144,27,Man
40,497940,final-intermixed-textured,v2,jsons/MX_seq26_2_VE250.json,http://54.235.29.9/FacialAge/BNav_EC2/DepthDuration/MX_fS_VE_MTurk/MX_fS_HTML.html#266,266,1920,1080,1920,1080,0-31-2024,19-12-0,41,VR_target_stimuli/s14_0.75x_3.83_355.png,250,0.75x,3.83,3.0,1611,250,meters,jsons/MX_seq26_2_VE250.json,172394,427144,27,Man
41,497940,final-intermixed-textured,v2,jsons/MX_seq26_2_VE250.json,http://54.235.29.9/FacialAge/BNav_EC2/DepthDuration/MX_fS_VE_MTurk/MX_fS_HTML.html#266,266,1920,1080,1920,1080,0-31-2024,19-12-0,42,VR_target_stimuli/s47_1x_3.45_370_BC.png,250,1x,3.45,3.0,1994,251,meters,jsons/MX_seq26_2_VE250.json,172394,427144,27,Man
42,497940,final-intermixed-textured,v2,jsons/MX_seq26_2_VE250.json,http://54.235.29.9/FacialAge/BNav_EC2/DepthDuration/MX_fS_VE_MTurk/MX_fS_HTML.html#266,266,1920,1080,1920,1080,0-31-2024,19-12-0,43,VR_target_stimuli/s29_1.3x_1.3_253.png,250,1.3x,1.3,1.0,1551,250,meters,jsons/MX_seq26_2_VE250.json,172394,427144,27,Man
43,497940,final-intermixed-textured,v2,jsons/MX_seq26_2_VE250.json,http://54.235.29.9/FacialAge/BNav_EC2/DepthDuration/MX_fS_VE_MTurk/MX_fS_HTML.html#266,266,1920,1080,1920,1080,0-31-2024,19-12-0,44,VR_target_stimuli/s28_1x_3.2_362.png,250,1x,3.2,3.0,1615,249,meters,jsons/MX_seq26_2_VE250.json,172394,427144,27,Man
44,497940,final-intermixed-textured,v2,jsons/MX_seq26_2_VE250.json,http://54.235.29.9/FacialAge/BNav_EC2/DepthDuration/MX_fS_VE_MTurk/MX_fS_HTML.html#266,266,1920,1080,1920,1080,0-31-2024,19-12-0,45,catch_stimuli/c4.png,250,,,0.0,3047,250,meters,jsons/MX_seq26_2_VE250.json,172394,427144,27,Man
45,497940,final-intermixed-textured,v2,jsons/MX_seq26_2_VE250.json,http://54.235.29.9/FacialAge/BNav_EC2/DepthDuration/MX_fS_VE_MTurk/MX_fS_HTML.html#266,266,1920,1080,1920,1080,0-31-2024,19-12-0,46,VR_target_stimuli/s48_0.75x_2.55_243_BC.png,250,0.75x,2.55,3.0,1872,251,meters,jsons/MX_seq26_2_VE250.json,172394,427144,27,Man
46,497940,final-intermixed-textured,v2,jsons/MX_seq26_2_VE250.json,http://54.235.29.9/FacialAge/BNav_EC2/DepthDuration/MX_fS_VE_MTurk/MX_fS_HTML.html#266,266,1920,1080,1920,1080,0-31-2024,19-12-0,47,VR_target_stimuli/s19_1.3x_1.21_270_BC.png,250,1.3x,1.21,2.0,1886,250,meters,jsons/MX_seq26_2_VE250.json,172394,427144,27,Man
47,497940,final-intermixed-textured,v2,jsons/MX_seq26_2_VE250.json,http://54.235.29.9/FacialAge/BNav_EC2/DepthDuration/MX_fS_VE_MTurk/MX_fS_HTML.html#266,266,1920,1080,1920,1080,0-31-2024,19-12-0,48,VR_target_stimuli/s21_1.3x_4.22_384.png,250,1.3x,4.22,3.0,1767,250,meters,jsons/MX_seq26_2_VE250.json,172394,427144,27,Man
48,497940,final-intermixed-textured,v2,jsons/MX_seq26_2_VE250.json,http://54.235.29.9/FacialAge/BNav_EC2/DepthDuration/MX_fS_VE_MTurk/MX_fS_HTML.html#266,266,1920,1080,1920,1080,0-31-2024,19-12-0,49,VR_target_stimuli/s8_1x_3.1_332_BC.png,250,1x,3.1,2.0,1855,250,meters,jsons/MX_seq26_2_VE250.json,172394,427144,27,Man
49,497940,final-intermixed-textured,v2,jsons/MX_seq26_2_VE250.json,http://54.235.29.9/FacialAge/BNav_EC2/DepthDuration/MX_fS_VE_MTurk/MX_fS_HTML.html#266,266,1920,1080,1920,1080,0-31-2024,19-12-0,50,VR_target_stimuli/s27_0.75x_1.76_243_BC.png,250,0.75x,1.76,0.0,2970,250,meters,jsons/MX_seq26_2_VE250.json,172394,427144,27,Man
50,497940,final-intermixed-textured,v2,jsons/MX_seq26_2_VE250.json,http://54.235.29.9/FacialAge/BNav_EC2/DepthDuration/MX_fS_VE_MTurk/MX_fS_HTML.html#266,266,1920,1080,1920,1080,0-31-2024,19-12-0,51,VR_target_stimuli/s15_1x_4.2_390.png,250,1x,4.2,4.0,1581,250,meters,jsons/MX_seq26_2_VE250.json,172394,427144,27,Man
51,497940,final-intermixed-textured,v2,jsons/MX_seq26_2_VE250.json,http://54.235.29.9/FacialAge/BNav_EC2/DepthDuration/MX_fS_VE_MTurk/MX_fS_HTML.html#266,266,1920,1080,1920,1080,0-31-2024,19-12-0,52,VR_target_stimuli/s4_1.3x_1.4_328_BC.png,250,1.3x,1.4,2.0,2213,250,meters,jsons/MX_seq26_2_VE250.json,172394,427144,27,Man
52,497940,final-intermixed-textured,v2,jsons/MX_seq26_2_VE250.json,http://54.235.29.9/FacialAge/BNav_EC2/DepthDuration/MX_fS_VE_MTurk/MX_fS_HTML.html#266,266,1920,1080,1920,1080,0-31-2024,19-12-0,53,catch_stimuli/c5.png,250,,,0.0,2634,251,meters,jsons/MX_seq26_2_VE250.json,172394,427144,27,Man
53,497940,final-intermixed-textured,v2,jsons/MX_seq26_2_VE250.json,http://54.235.29.9/FacialAge/BNav_EC2/DepthDuration/MX_fS_VE_MTurk/MX_fS_HTML.html#266,266,1920,1080,1920,1080,0-31-2024,19-12-0,54,VR_target_stimuli/s35_0.75x_2_323.png,250,0.75x,2.0,2.0,1506,250,meters,jsons/MX_seq26_2_VE250.json,172394,427144,27,Man
54,497940,final-intermixed-textured,v2,jsons/MX_seq26_2_VE250.json,http://54.235.29.9/FacialAge/BNav_EC2/DepthDuration/MX_fS_VE_MTurk/MX_fS_HTML.html#266,266,1920,1080,1920,1080,0-31-2024,19-12-0,55,VR_target_stimuli/s49_1.3x_4.67_354_BC.png,250,1.3x,4.67,3.0,1683,250,meters,jsons/MX_seq26_2_VE250.json,172394,427144,27,Man
55,497940,final-intermixed-textured,v2,jsons/MX_seq26_2_VE250.json,http://54.235.29.9/FacialAge/BNav_EC2/DepthDuration/MX_fS_VE_MTurk/MX_fS_HTML.html#266,266,1920,1080,1920,1080,0-31-2024,19-12-0,56,VR_target_stimuli/s7_1x_1.5_255_BC.png,250,1x,1.5,2.0,1706,250,meters,jsons/MX_seq26_2_VE250.json,172394,427144,27,Man
56,497940,final-intermixed-textured,v2,jsons/MX_seq26_2_VE250.json,http://54.235.29.9/FacialAge/BNav_EC2/DepthDuration/MX_fS_VE_MTurk/MX_fS_HTML.html#266,266,1920,1080,1920,1080,0-31-2024,19-12-0,57,VR_target_stimuli/s20_0.75x_4.99_390_BC.png,250,0.75x,4.99,4.0,1794,249,meters,jsons/MX_seq26_2_VE250.json,172394,427144,27,Man
57,497940,final-intermixed-textured,v2,jsons/MX_seq26_2_VE250.json,http://54.235.29.9/FacialAge/BNav_EC2/DepthDuration/MX_fS_VE_MTurk/MX_fS_HTML.html#266,266,1920,1080,1920,1080,0-31-2024,19-12-0,58,VR_target_stimuli/s31_0.75x_4.96_329.png,250,0.75x,4.96,3.0,2571,250,meters,jsons/MX_seq26_2_VE250.json,172394,427144,27,Man
58,497940,final-intermixed-textured,v2,jsons/MX_seq26_2_VE250.json,http://54.235.29.9/FacialAge/BNav_EC2/DepthDuration/MX_fS_VE_MTurk/MX_fS_HTML.html#266,266,1920,1080,1920,1080,0-31-2024,19-12-0,59,VR_target_stimuli/s33_1.3x_3.1_378.png,250,1.3x,3.1,2.0,1692,250,meters,jsons/MX_seq26_2_VE250.json,172394,427144,27,Man
59,497940,final-intermixed-textured,v2,jsons/MX_seq26_2_VE250.json,http://54.235.29.9/FacialAge/BNav_EC2/DepthDuration/MX_fS_VE_MTurk/MX_fS_HTML.html#266,266,1920,1080,1920,1080,0-31-2024,19-12-0,60,VR_target_stimuli/s52_1x_3.2_275.png,250,1x,3.2,4.0,2295,251,meters,jsons/MX_seq26_2_VE250.json,172394,427144,27,Man
