,subjID,experimentName,versionName,sequenceName,url,selected_row,windowWidth,windowHeight,screenWidth,screenHeight,startDate,startTime,trial,stimulus,duration,scale,actual_depth,depth_estimate,trial_RT,log_sceneDuration,unitSelection,seq_filepath,experimentTime,totalTime,age,gender
0,502533,final-intermixed-textured,v2,jsons/MX_seq18_0_VE250_flipped.json,http://54.235.29.9/FacialAge/BNav_EC2/DepthDuration/MX_fS_VE_MTurk/MX_fS_HTML.html#109,109,1920,953,1920,1080,1-1-2024,14-24-26,1,VR_target_stimuli/s4_0.75x_1.4_301_BC.png,250,0.75x,1.4,2.0,15096,248,meters,jsons/MX_seq18_0_VE250_flipped.json,345317,674104,32,Man
1,502533,final-intermixed-textured,v2,jsons/MX_seq18_0_VE250_flipped.json,http://54.235.29.9/FacialAge/BNav_EC2/DepthDuration/MX_fS_VE_MTurk/MX_fS_HTML.html#109,109,1920,953,1920,1080,1-1-2024,14-24-26,2,VR_target_stimuli/s35_1x_2_331_BC.png,250,1x,2.0,3.5,7075,244,meters,jsons/MX_seq18_0_VE250_flipped.json,345317,674104,32,Man
2,502533,final-intermixed-textured,v2,jsons/MX_seq18_0_VE250_flipped.json,http://54.235.29.9/FacialAge/BNav_EC2/DepthDuration/MX_fS_VE_MTurk/MX_fS_HTML.html#109,109,1920,953,1920,1080,1-1-2024,14-24-26,3,VR_target_stimuli/s49_1.3x_4.67_354.png,250,1.3x,4.67,8.0,14055,250,meters,jsons/MX_seq18_0_VE250_flipped.json,345317,674104,32,Man
3,502533,final-intermixed-textured,v2,jsons/MX_seq18_0_VE250_flipped.json,http://54.235.29.9/FacialAge/BNav_EC2/DepthDuration/MX_fS_VE_MTurk/MX_fS_HTML.html#109,109,1920,953,1920,1080,1-1-2024,14-24-26,4,VR_target_stimuli/s7_1x_1.5_255.png,250,1x,1.5,2.0,3860,233,meters,jsons/MX_seq18_0_VE250_flipped.json,345317,674104,32,Man
4,502533,final-intermixed-textured,v2,jsons/MX_seq18_0_VE250_flipped.json,http://54.235.29.9/FacialAge/BNav_EC2/DepthDuration/MX_fS_VE_MTurk/MX_fS_HTML.html#109,109,1920,953,1920,1080,1-1-2024,14-24-26,5,VR_target_stimuli/s20_0.75x_4.99_390.png,250,0.75x,4.99,9.0,9237,249,meters,jsons/MX_seq18_0_VE250_flipped.json,345317,674104,32,Man
5,502533,final-intermixed-textured,v2,jsons/MX_seq18_0_VE250_flipped.json,http://54.235.29.9/FacialAge/BNav_EC2/DepthDuration/MX_fS_VE_MTurk/MX_fS_HTML.html#109,109,1920,953,1920,1080,1-1-2024,14-24-26,6,VR_target_stimuli/s31_1.3x_4.96_342_BC.png,250,1.3x,4.96,10.0,6637,248,meters,jsons/MX_seq18_0_VE250_flipped.json,345317,674104,32,Man
6,502533,final-intermixed-textured,v2,jsons/MX_seq18_0_VE250_flipped.json,http://54.235.29.9/FacialAge/BNav_EC2/DepthDuration/MX_fS_VE_MTurk/MX_fS_HTML.html#109,109,1920,953,1920,1080,1-1-2024,14-24-26,7,catch_stimuli/c0_BC.png,250,,,2.0,7032,249,meters,jsons/MX_seq18_0_VE250_flipped.json,345317,674104,32,Man
7,502533,final-intermixed-textured,v2,jsons/MX_seq18_0_VE250_flipped.json,http://54.235.29.9/FacialAge/BNav_EC2/DepthDuration/MX_fS_VE_MTurk/MX_fS_HTML.html#109,109,1920,953,1920,1080,1-1-2024,14-24-26,8,VR_target_stimuli/s33_1.3x_3.1_378_BC.png,250,1.3x,3.1,7.0,5398,238,meters,jsons/MX_seq18_0_VE250_flipped.json,345317,674104,32,Man
8,502533,final-intermixed-textured,v2,jsons/MX_seq18_0_VE250_flipped.json,http://54.235.29.9/FacialAge/BNav_EC2/DepthDuration/MX_fS_VE_MTurk/MX_fS_HTML.html#109,109,1920,953,1920,1080,1-1-2024,14-24-26,9,VR_target_stimuli/s52_1x_3.2_275.png,250,1x,3.2,9.0,5428,261,meters,jsons/MX_seq18_0_VE250_flipped.json,345317,674104,32,Man
9,502533,final-intermixed-textured,v2,jsons/MX_seq18_0_VE250_flipped.json,http://54.235.29.9/FacialAge/BNav_EC2/DepthDuration/MX_fS_VE_MTurk/MX_fS_HTML.html#109,109,1920,953,1920,1080,1-1-2024,14-24-26,10,VR_target_stimuli/s32_0.75x_1.5_213.png,250,0.75x,1.5,4.0,4898,249,meters,jsons/MX_seq18_0_VE250_flipped.json,345317,674104,32,Man
10,502533,final-intermixed-textured,v2,jsons/MX_seq18_0_VE250_flipped.json,http://54.235.29.9/FacialAge/BNav_EC2/DepthDuration/MX_fS_VE_MTurk/MX_fS_HTML.html#109,109,1920,953,1920,1080,1-1-2024,14-24-26,11,VR_target_stimuli/s18_1x_2.25_353_BC.png,250,1x,2.25,4.0,3787,250,meters,jsons/MX_seq18_0_VE250_flipped.json,345317,674104,32,Man
11,502533,final-intermixed-textured,v2,jsons/MX_seq18_0_VE250_flipped.json,http://54.235.29.9/FacialAge/BNav_EC2/DepthDuration/MX_fS_VE_MTurk/MX_fS_HTML.html#109,109,1920,953,1920,1080,1-1-2024,14-24-26,12,VR_target_stimuli/s39_1.3x_1_208.png,250,1.3x,1.0,2.5,9163,249,meters,jsons/MX_seq18_0_VE250_flipped.json,345317,674104,32,Man
12,502533,final-intermixed-textured,v2,jsons/MX_seq18_0_VE250_flipped.json,http://54.235.29.9/FacialAge/BNav_EC2/DepthDuration/MX_fS_VE_MTurk/MX_fS_HTML.html#109,109,1920,953,1920,1080,1-1-2024,14-24-26,13,VR_target_stimuli/s51_0.75x_3.64_460_BC.png,250,0.75x,3.64,4.0,4214,245,meters,jsons/MX_seq18_0_VE250_flipped.json,345317,674104,32,Man
13,502533,final-intermixed-textured,v2,jsons/MX_seq18_0_VE250_flipped.json,http://54.235.29.9/FacialAge/BNav_EC2/DepthDuration/MX_fS_VE_MTurk/MX_fS_HTML.html#109,109,1920,953,1920,1080,1-1-2024,14-24-26,14,VR_target_stimuli/s43_1.3x_2.2_363_BC.png,250,1.3x,2.2,7.0,3199,260,meters,jsons/MX_seq18_0_VE250_flipped.json,345317,674104,32,Man
14,502533,final-intermixed-textured,v2,jsons/MX_seq18_0_VE250_flipped.json,http://54.235.29.9/FacialAge/BNav_EC2/DepthDuration/MX_fS_VE_MTurk/MX_fS_HTML.html#109,109,1920,953,1920,1080,1-1-2024,14-24-26,15,VR_target_stimuli/s24_1x_3.3_349.png,250,1x,3.3,9.0,4621,249,meters,jsons/MX_seq18_0_VE250_flipped.json,345317,674104,32,Man
15,502533,final-intermixed-textured,v2,jsons/MX_seq18_0_VE250_flipped.json,http://54.235.29.9/FacialAge/BNav_EC2/DepthDuration/MX_fS_VE_MTurk/MX_fS_HTML.html#109,109,1920,953,1920,1080,1-1-2024,14-24-26,16,VR_target_stimuli/s10_0.75x_2.7_321_BC.png,250,0.75x,2.7,6.5,8904,253,meters,jsons/MX_seq18_0_VE250_flipped.json,345317,674104,32,Man
16,502533,final-intermixed-textured,v2,jsons/MX_seq18_0_VE250_flipped.json,http://54.235.29.9/FacialAge/BNav_EC2/DepthDuration/MX_fS_VE_MTurk/MX_fS_HTML.html#109,109,1920,953,1920,1080,1-1-2024,14-24-26,17,catch_stimuli/c1_BC.png,250,,,11.0,4809,259,meters,jsons/MX_seq18_0_VE250_flipped.json,345317,674104,32,Man
17,502533,final-intermixed-textured,v2,jsons/MX_seq18_0_VE250_flipped.json,http://54.235.29.9/FacialAge/BNav_EC2/DepthDuration/MX_fS_VE_MTurk/MX_fS_HTML.html#109,109,1920,953,1920,1080,1-1-2024,14-24-26,18,VR_target_stimuli/s36_0.75x_4.1_407.png,250,0.75x,4.1,8.0,5233,260,meters,jsons/MX_seq18_0_VE250_flipped.json,345317,674104,32,Man
18,502533,final-intermixed-textured,v2,jsons/MX_seq18_0_VE250_flipped.json,http://54.235.29.9/FacialAge/BNav_EC2/DepthDuration/MX_fS_VE_MTurk/MX_fS_HTML.html#109,109,1920,953,1920,1080,1-1-2024,14-24-26,19,VR_target_stimuli/s40_1.3x_1.2_332.png,250,1.3x,1.2,1.5,4499,249,meters,jsons/MX_seq18_0_VE250_flipped.json,345317,674104,32,Man
19,502533,final-intermixed-textured,v2,jsons/MX_seq18_0_VE250_flipped.json,http://54.235.29.9/FacialAge/BNav_EC2/DepthDuration/MX_fS_VE_MTurk/MX_fS_HTML.html#109,109,1920,953,1920,1080,1-1-2024,14-24-26,20,VR_target_stimuli/s41_1x_2.1_286_BC.png,250,1x,2.1,2.0,4466,265,meters,jsons/MX_seq18_0_VE250_flipped.json,345317,674104,32,Man
20,502533,final-intermixed-textured,v2,jsons/MX_seq18_0_VE250_flipped.json,http://54.235.29.9/FacialAge/BNav_EC2/DepthDuration/MX_fS_VE_MTurk/MX_fS_HTML.html#109,109,1920,953,1920,1080,1-1-2024,14-24-26,21,VR_target_stimuli/s45_1.3x_3.5_377_BC.png,250,1.3x,3.5,6.0,5538,250,meters,jsons/MX_seq18_0_VE250_flipped.json,345317,674104,32,Man
21,502533,final-intermixed-textured,v2,jsons/MX_seq18_0_VE250_flipped.json,http://54.235.29.9/FacialAge/BNav_EC2/DepthDuration/MX_fS_VE_MTurk/MX_fS_HTML.html#109,109,1920,953,1920,1080,1-1-2024,14-24-26,22,VR_target_stimuli/s23_0.75x_3.65_351.png,250,0.75x,3.65,3.5,6010,250,meters,jsons/MX_seq18_0_VE250_flipped.json,345317,674104,32,Man
22,502533,final-intermixed-textured,v2,jsons/MX_seq18_0_VE250_flipped.json,http://54.235.29.9/FacialAge/BNav_EC2/DepthDuration/MX_fS_VE_MTurk/MX_fS_HTML.html#109,109,1920,953,1920,1080,1-1-2024,14-24-26,23,VR_target_stimuli/s26_1x_4_433_BC.png,250,1x,4.0,3.0,8718,249,meters,jsons/MX_seq18_0_VE250_flipped.json,345317,674104,32,Man
23,502533,final-intermixed-textured,v2,jsons/MX_seq18_0_VE250_flipped.json,http://54.235.29.9/FacialAge/BNav_EC2/DepthDuration/MX_fS_VE_MTurk/MX_fS_HTML.html#109,109,1920,953,1920,1080,1-1-2024,14-24-26,24,VR_target_stimuli/s12_0.75x_3.1_364_BC.png,250,0.75x,3.1,5.0,5027,264,meters,jsons/MX_seq18_0_VE250_flipped.json,345317,674104,32,Man
24,502533,final-intermixed-textured,v2,jsons/MX_seq18_0_VE250_flipped.json,http://54.235.29.9/FacialAge/BNav_EC2/DepthDuration/MX_fS_VE_MTurk/MX_fS_HTML.html#109,109,1920,953,1920,1080,1-1-2024,14-24-26,25,VR_target_stimuli/s30_1.3x_2.3_337.png,250,1.3x,2.3,2.0,3520,249,meters,jsons/MX_seq18_0_VE250_flipped.json,345317,674104,32,Man
25,502533,final-intermixed-textured,v2,jsons/MX_seq18_0_VE250_flipped.json,http://54.235.29.9/FacialAge/BNav_EC2/DepthDuration/MX_fS_VE_MTurk/MX_fS_HTML.html#109,109,1920,953,1920,1080,1-1-2024,14-24-26,26,catch_stimuli/c2_BC.png,250,,,6.0,6389,237,meters,jsons/MX_seq18_0_VE250_flipped.json,345317,674104,32,Man
26,502533,final-intermixed-textured,v2,jsons/MX_seq18_0_VE250_flipped.json,http://54.235.29.9/FacialAge/BNav_EC2/DepthDuration/MX_fS_VE_MTurk/MX_fS_HTML.html#109,109,1920,953,1920,1080,1-1-2024,14-24-26,27,VR_target_stimuli/s16_1x_1_219.png,250,1x,1.0,2.0,3844,240,meters,jsons/MX_seq18_0_VE250_flipped.json,345317,674104,32,Man
27,502533,final-intermixed-textured,v2,jsons/MX_seq18_0_VE250_flipped.json,http://54.235.29.9/FacialAge/BNav_EC2/DepthDuration/MX_fS_VE_MTurk/MX_fS_HTML.html#109,109,1920,953,1920,1080,1-1-2024,14-24-26,28,VR_target_stimuli/s17_1x_1.8_291_BC.png,250,1x,1.8,2.0,5367,250,meters,jsons/MX_seq18_0_VE250_flipped.json,345317,674104,32,Man
28,502533,final-intermixed-textured,v2,jsons/MX_seq18_0_VE250_flipped.json,http://54.235.29.9/FacialAge/BNav_EC2/DepthDuration/MX_fS_VE_MTurk/MX_fS_HTML.html#109,109,1920,953,1920,1080,1-1-2024,14-24-26,29,VR_target_stimuli/s5_0.75x_4_375.png,250,0.75x,4.0,7.0,3341,234,meters,jsons/MX_seq18_0_VE250_flipped.json,345317,674104,32,Man
29,502533,final-intermixed-textured,v2,jsons/MX_seq18_0_VE250_flipped.json,http://54.235.29.9/FacialAge/BNav_EC2/DepthDuration/MX_fS_VE_MTurk/MX_fS_HTML.html#109,109,1920,953,1920,1080,1-1-2024,14-24-26,30,VR_target_stimuli/s37_1.3x_3.3_555.png,250,1.3x,3.3,3.0,4626,249,meters,jsons/MX_seq18_0_VE250_flipped.json,345317,674104,32,Man
30,502533,final-intermixed-textured,v2,jsons/MX_seq18_0_VE250_flipped.json,http://54.235.29.9/FacialAge/BNav_EC2/DepthDuration/MX_fS_VE_MTurk/MX_fS_HTML.html#109,109,1920,953,1920,1080,1-1-2024,14-24-26,31,VR_target_stimuli/s46_1x_2.42_348.png,250,1x,2.42,4.0,9331,250,meters,jsons/MX_seq18_0_VE250_flipped.json,345317,674104,32,Man
31,502533,final-intermixed-textured,v2,jsons/MX_seq18_0_VE250_flipped.json,http://54.235.29.9/FacialAge/BNav_EC2/DepthDuration/MX_fS_VE_MTurk/MX_fS_HTML.html#109,109,1920,953,1920,1080,1-1-2024,14-24-26,32,VR_target_stimuli/s22_1.3x_4.29_364_BC.png,250,1.3x,4.29,5.0,3975,250,meters,jsons/MX_seq18_0_VE250_flipped.json,345317,674104,32,Man
32,502533,final-intermixed-textured,v2,jsons/MX_seq18_0_VE250_flipped.json,http://54.235.29.9/FacialAge/BNav_EC2/DepthDuration/MX_fS_VE_MTurk/MX_fS_HTML.html#109,109,1920,953,1920,1080,1-1-2024,14-24-26,33,VR_target_stimuli/s42_0.75x_3.2_301_BC.png,250,0.75x,3.2,5.0,2870,252,meters,jsons/MX_seq18_0_VE250_flipped.json,345317,674104,32,Man
33,502533,final-intermixed-textured,v2,jsons/MX_seq18_0_VE250_flipped.json,http://54.235.29.9/FacialAge/BNav_EC2/DepthDuration/MX_fS_VE_MTurk/MX_fS_HTML.html#109,109,1920,953,1920,1080,1-1-2024,14-24-26,34,catch_stimuli/c3_BC.png,250,,,2.0,3444,250,meters,jsons/MX_seq18_0_VE250_flipped.json,345317,674104,32,Man
34,502533,final-intermixed-textured,v2,jsons/MX_seq18_0_VE250_flipped.json,http://54.235.29.9/FacialAge/BNav_EC2/DepthDuration/MX_fS_VE_MTurk/MX_fS_HTML.html#109,109,1920,953,1920,1080,1-1-2024,14-24-26,35,VR_target_stimuli/s25_1.3x_1.4_299.png,250,1.3x,1.4,2.0,3050,250,meters,jsons/MX_seq18_0_VE250_flipped.json,345317,674104,32,Man
35,502533,final-intermixed-textured,v2,jsons/MX_seq18_0_VE250_flipped.json,http://54.235.29.9/FacialAge/BNav_EC2/DepthDuration/MX_fS_VE_MTurk/MX_fS_HTML.html#109,109,1920,953,1920,1080,1-1-2024,14-24-26,36,VR_target_stimuli/s50_1x_4.53_518.png,250,1x,4.53,3.5,3808,249,meters,jsons/MX_seq18_0_VE250_flipped.json,345317,674104,32,Man
36,502533,final-intermixed-textured,v2,jsons/MX_seq18_0_VE250_flipped.json,http://54.235.29.9/FacialAge/BNav_EC2/DepthDuration/MX_fS_VE_MTurk/MX_fS_HTML.html#109,109,1920,953,1920,1080,1-1-2024,14-24-26,37,VR_target_stimuli/s53_0.75x_1.6_403_BC.png,250,0.75x,1.6,1.0,3327,249,meters,jsons/MX_seq18_0_VE250_flipped.json,345317,674104,32,Man
37,502533,final-intermixed-textured,v2,jsons/MX_seq18_0_VE250_flipped.json,http://54.235.29.9/FacialAge/BNav_EC2/DepthDuration/MX_fS_VE_MTurk/MX_fS_HTML.html#109,109,1920,953,1920,1080,1-1-2024,14-24-26,38,VR_target_stimuli/s38_0.75x_3.55_346.png,250,0.75x,3.55,7.0,8883,249,meters,jsons/MX_seq18_0_VE250_flipped.json,345317,674104,32,Man
38,502533,final-intermixed-textured,v2,jsons/MX_seq18_0_VE250_flipped.json,http://54.235.29.9/FacialAge/BNav_EC2/DepthDuration/MX_fS_VE_MTurk/MX_fS_HTML.html#109,109,1920,953,1920,1080,1-1-2024,14-24-26,39,VR_target_stimuli/s9_1.3x_1.2_276_BC.png,250,1.3x,1.2,1.5,3780,249,meters,jsons/MX_seq18_0_VE250_flipped.json,345317,674104,32,Man
39,502533,final-intermixed-textured,v2,jsons/MX_seq18_0_VE250_flipped.json,http://54.235.29.9/FacialAge/BNav_EC2/DepthDuration/MX_fS_VE_MTurk/MX_fS_HTML.html#109,109,1920,953,1920,1080,1-1-2024,14-24-26,40,VR_target_stimuli/s44_1x_4.4_317_BC.png,250,1x,4.4,7.0,3571,265,meters,jsons/MX_seq18_0_VE250_flipped.json,345317,674104,32,Man
40,502533,final-intermixed-textured,v2,jsons/MX_seq18_0_VE250_flipped.json,http://54.235.29.9/FacialAge/BNav_EC2/DepthDuration/MX_fS_VE_MTurk/MX_fS_HTML.html#109,109,1920,953,1920,1080,1-1-2024,14-24-26,41,VR_target_stimuli/s3_1.3x_5_390.png,250,1.3x,5.0,8.0,4805,250,meters,jsons/MX_seq18_0_VE250_flipped.json,345317,674104,32,Man
41,502533,final-intermixed-textured,v2,jsons/MX_seq18_0_VE250_flipped.json,http://54.235.29.9/FacialAge/BNav_EC2/DepthDuration/MX_fS_VE_MTurk/MX_fS_HTML.html#109,109,1920,953,1920,1080,1-1-2024,14-24-26,42,VR_target_stimuli/s1_0.75x_1.7_265.png,250,0.75x,1.7,2.0,4213,250,meters,jsons/MX_seq18_0_VE250_flipped.json,345317,674104,32,Man
42,502533,final-intermixed-textured,v2,jsons/MX_seq18_0_VE250_flipped.json,http://54.235.29.9/FacialAge/BNav_EC2/DepthDuration/MX_fS_VE_MTurk/MX_fS_HTML.html#109,109,1920,953,1920,1080,1-1-2024,14-24-26,43,VR_target_stimuli/s11_1x_5_361_BC.png,250,1x,5.0,7.0,3709,249,meters,jsons/MX_seq18_0_VE250_flipped.json,345317,674104,32,Man
43,502533,final-intermixed-textured,v2,jsons/MX_seq18_0_VE250_flipped.json,http://54.235.29.9/FacialAge/BNav_EC2/DepthDuration/MX_fS_VE_MTurk/MX_fS_HTML.html#109,109,1920,953,1920,1080,1-1-2024,14-24-26,44,VR_target_stimuli/s2_0.75x_2.7_384_BC.png,250,0.75x,2.7,2.0,5098,250,meters,jsons/MX_seq18_0_VE250_flipped.json,345317,674104,32,Man
44,502533,final-intermixed-textured,v2,jsons/MX_seq18_0_VE250_flipped.json,http://54.235.29.9/FacialAge/BNav_EC2/DepthDuration/MX_fS_VE_MTurk/MX_fS_HTML.html#109,109,1920,953,1920,1080,1-1-2024,14-24-26,45,catch_stimuli/c4_BC.png,250,,,4.0,7401,249,meters,jsons/MX_seq18_0_VE250_flipped.json,345317,674104,32,Man
45,502533,final-intermixed-textured,v2,jsons/MX_seq18_0_VE250_flipped.json,http://54.235.29.9/FacialAge/BNav_EC2/DepthDuration/MX_fS_VE_MTurk/MX_fS_HTML.html#109,109,1920,953,1920,1080,1-1-2024,14-24-26,46,VR_target_stimuli/s6_1.3x_2.1_298_BC.png,250,1.3x,2.1,4.0,3326,250,meters,jsons/MX_seq18_0_VE250_flipped.json,345317,674104,32,Man
46,502533,final-intermixed-textured,v2,jsons/MX_seq18_0_VE250_flipped.json,http://54.235.29.9/FacialAge/BNav_EC2/DepthDuration/MX_fS_VE_MTurk/MX_fS_HTML.html#109,109,1920,953,1920,1080,1-1-2024,14-24-26,47,VR_target_stimuli/s0_1x_2.6_351.png,250,1x,2.6,4.0,3409,248,meters,jsons/MX_seq18_0_VE250_flipped.json,345317,674104,32,Man
47,502533,final-intermixed-textured,v2,jsons/MX_seq18_0_VE250_flipped.json,http://54.235.29.9/FacialAge/BNav_EC2/DepthDuration/MX_fS_VE_MTurk/MX_fS_HTML.html#109,109,1920,953,1920,1080,1-1-2024,14-24-26,48,VR_target_stimuli/s34_1x_2.8_283.png,250,1x,2.8,4.0,4654,248,meters,jsons/MX_seq18_0_VE250_flipped.json,345317,674104,32,Man
48,502533,final-intermixed-textured,v2,jsons/MX_seq18_0_VE250_flipped.json,http://54.235.29.9/FacialAge/BNav_EC2/DepthDuration/MX_fS_VE_MTurk/MX_fS_HTML.html#109,109,1920,953,1920,1080,1-1-2024,14-24-26,49,VR_target_stimuli/s13_0.75x_2.4_308.png,250,0.75x,2.4,4.0,3292,250,meters,jsons/MX_seq18_0_VE250_flipped.json,345317,674104,32,Man
49,502533,final-intermixed-textured,v2,jsons/MX_seq18_0_VE250_flipped.json,http://54.235.29.9/FacialAge/BNav_EC2/DepthDuration/MX_fS_VE_MTurk/MX_fS_HTML.html#109,109,1920,953,1920,1080,1-1-2024,14-24-26,50,VR_target_stimuli/s14_1.3x_3.83_359_BC.png,250,1.3x,3.83,6.0,4143,265,meters,jsons/MX_seq18_0_VE250_flipped.json,345317,674104,32,Man
50,502533,final-intermixed-textured,v2,jsons/MX_seq18_0_VE250_flipped.json,http://54.235.29.9/FacialAge/BNav_EC2/DepthDuration/MX_fS_VE_MTurk/MX_fS_HTML.html#109,109,1920,953,1920,1080,1-1-2024,14-24-26,51,VR_target_stimuli/s47_0.75x_3.45_366_BC.png,250,0.75x,3.45,5.0,3119,255,meters,jsons/MX_seq18_0_VE250_flipped.json,345317,674104,32,Man
51,502533,final-intermixed-textured,v2,jsons/MX_seq18_0_VE250_flipped.json,http://54.235.29.9/FacialAge/BNav_EC2/DepthDuration/MX_fS_VE_MTurk/MX_fS_HTML.html#109,109,1920,953,1920,1080,1-1-2024,14-24-26,52,VR_target_stimuli/s29_1x_1.3_250_BC.png,250,1x,1.3,2.0,3083,262,meters,jsons/MX_seq18_0_VE250_flipped.json,345317,674104,32,Man
52,502533,final-intermixed-textured,v2,jsons/MX_seq18_0_VE250_flipped.json,http://54.235.29.9/FacialAge/BNav_EC2/DepthDuration/MX_fS_VE_MTurk/MX_fS_HTML.html#109,109,1920,953,1920,1080,1-1-2024,14-24-26,53,catch_stimuli/c5_BC.png,250,,,2.0,5034,252,meters,jsons/MX_seq18_0_VE250_flipped.json,345317,674104,32,Man
53,502533,final-intermixed-textured,v2,jsons/MX_seq18_0_VE250_flipped.json,http://54.235.29.9/FacialAge/BNav_EC2/DepthDuration/MX_fS_VE_MTurk/MX_fS_HTML.html#109,109,1920,953,1920,1080,1-1-2024,14-24-26,54,VR_target_stimuli/s28_1.3x_3.2_365.png,250,1.3x,3.2,4.0,3868,244,meters,jsons/MX_seq18_0_VE250_flipped.json,345317,674104,32,Man
54,502533,final-intermixed-textured,v2,jsons/MX_seq18_0_VE250_flipped.json,http://54.235.29.9/FacialAge/BNav_EC2/DepthDuration/MX_fS_VE_MTurk/MX_fS_HTML.html#109,109,1920,953,1920,1080,1-1-2024,14-24-26,55,VR_target_stimuli/s48_1x_2.55_256.png,250,1x,2.55,4.0,9076,245,meters,jsons/MX_seq18_0_VE250_flipped.json,345317,674104,32,Man
55,502533,final-intermixed-textured,v2,jsons/MX_seq18_0_VE250_flipped.json,http://54.235.29.9/FacialAge/BNav_EC2/DepthDuration/MX_fS_VE_MTurk/MX_fS_HTML.html#109,109,1920,953,1920,1080,1-1-2024,14-24-26,56,VR_target_stimuli/s19_0.75x_1.21_257.png,250,0.75x,1.21,2.0,2963,256,meters,jsons/MX_seq18_0_VE250_flipped.json,345317,674104,32,Man
56,502533,final-intermixed-textured,v2,jsons/MX_seq18_0_VE250_flipped.json,http://54.235.29.9/FacialAge/BNav_EC2/DepthDuration/MX_fS_VE_MTurk/MX_fS_HTML.html#109,109,1920,953,1920,1080,1-1-2024,14-24-26,57,VR_target_stimuli/s21_1.3x_4.22_384.png,250,1.3x,4.22,4.0,3105,249,meters,jsons/MX_seq18_0_VE250_flipped.json,345317,674104,32,Man
57,502533,final-intermixed-textured,v2,jsons/MX_seq18_0_VE250_flipped.json,http://54.235.29.9/FacialAge/BNav_EC2/DepthDuration/MX_fS_VE_MTurk/MX_fS_HTML.html#109,109,1920,953,1920,1080,1-1-2024,14-24-26,58,VR_target_stimuli/s8_1.3x_3.1_345_BC.png,250,1.3x,3.1,7.0,3116,252,meters,jsons/MX_seq18_0_VE250_flipped.json,345317,674104,32,Man
58,502533,final-intermixed-textured,v2,jsons/MX_seq18_0_VE250_flipped.json,http://54.235.29.9/FacialAge/BNav_EC2/DepthDuration/MX_fS_VE_MTurk/MX_fS_HTML.html#109,109,1920,953,1920,1080,1-1-2024,14-24-26,59,VR_target_stimuli/s27_1x_1.76_248_BC.png,250,1x,1.76,4.0,3415,235,meters,jsons/MX_seq18_0_VE250_flipped.json,345317,674104,32,Man
59,502533,final-intermixed-textured,v2,jsons/MX_seq18_0_VE250_flipped.json,http://54.235.29.9/FacialAge/BNav_EC2/DepthDuration/MX_fS_VE_MTurk/MX_fS_HTML.html#109,109,1920,953,1920,1080,1-1-2024,14-24-26,60,VR_target_stimuli/s15_0.75x_4.2_388_BC.png,250,0.75x,4.2,9.0,3894,243,meters,jsons/MX_seq18_0_VE250_flipped.json,345317,674104,32,Man
