,subjID,experimentName,versionName,sequenceName,url,selected_row,windowWidth,windowHeight,screenWidth,screenHeight,startDate,startTime,trial,stimulus,duration,scale,actual_depth,depth_estimate,trial_RT,log_sceneDuration,unitSelection,seq_filepath,experimentTime,totalTime,age,gender
0,503920,final-intermixed-textured,v2,jsons/MX_seq17_0_VE250.json,http://54.235.29.9/FacialAge/BNav_EC2/DepthDuration/MX_fS_VE_MTurk/MX_fS_HTML.html#166,166,1920,1080,1920,1080,1-1-2024,11-3-7,1,VR_target_stimuli/s15_0.75x_4.2_388.png,250,0.75x,4.2,4.0,5543,240,meters,jsons/MX_seq17_0_VE250.json,344144,626549,41,Woman
1,503920,final-intermixed-textured,v2,jsons/MX_seq17_0_VE250.json,http://54.235.29.9/FacialAge/BNav_EC2/DepthDuration/MX_fS_VE_MTurk/MX_fS_HTML.html#166,166,1920,1080,1920,1080,1-1-2024,11-3-7,2,VR_target_stimuli/s4_1x_1.4_313_BC.png,250,1x,1.4,3.0,6404,251,meters,jsons/MX_seq17_0_VE250.json,344144,626549,41,Woman
2,503920,final-intermixed-textured,v2,jsons/MX_seq17_0_VE250.json,http://54.235.29.9/FacialAge/BNav_EC2/DepthDuration/MX_fS_VE_MTurk/MX_fS_HTML.html#166,166,1920,1080,1920,1080,1-1-2024,11-3-7,3,VR_target_stimuli/s35_1.3x_2_338.png,250,1.3x,2.0,2.0,6177,251,meters,jsons/MX_seq17_0_VE250.json,344144,626549,41,Woman
3,503920,final-intermixed-textured,v2,jsons/MX_seq17_0_VE250.json,http://54.235.29.9/FacialAge/BNav_EC2/DepthDuration/MX_fS_VE_MTurk/MX_fS_HTML.html#166,166,1920,1080,1920,1080,1-1-2024,11-3-7,4,VR_target_stimuli/s49_1x_4.67_341.png,250,1x,4.67,4.0,7984,252,meters,jsons/MX_seq17_0_VE250.json,344144,626549,41,Woman
4,503920,final-intermixed-textured,v2,jsons/MX_seq17_0_VE250.json,http://54.235.29.9/FacialAge/BNav_EC2/DepthDuration/MX_fS_VE_MTurk/MX_fS_HTML.html#166,166,1920,1080,1920,1080,1-1-2024,11-3-7,5,VR_target_stimuli/s7_0.75x_1.5_253_BC.png,250,0.75x,1.5,2.0,4163,250,meters,jsons/MX_seq17_0_VE250.json,344144,626549,41,Woman
5,503920,final-intermixed-textured,v2,jsons/MX_seq17_0_VE250.json,http://54.235.29.9/FacialAge/BNav_EC2/DepthDuration/MX_fS_VE_MTurk/MX_fS_HTML.html#166,166,1920,1080,1920,1080,1-1-2024,11-3-7,6,VR_target_stimuli/s20_1.3x_4.99_412_BC.png,250,1.3x,4.99,6.0,5737,250,meters,jsons/MX_seq17_0_VE250.json,344144,626549,41,Woman
6,503920,final-intermixed-textured,v2,jsons/MX_seq17_0_VE250.json,http://54.235.29.9/FacialAge/BNav_EC2/DepthDuration/MX_fS_VE_MTurk/MX_fS_HTML.html#166,166,1920,1080,1920,1080,1-1-2024,11-3-7,7,catch_stimuli/c0.png,250,,,0.5,6223,251,meters,jsons/MX_seq17_0_VE250.json,344144,626549,41,Woman
7,503920,final-intermixed-textured,v2,jsons/MX_seq17_0_VE250.json,http://54.235.29.9/FacialAge/BNav_EC2/DepthDuration/MX_fS_VE_MTurk/MX_fS_HTML.html#166,166,1920,1080,1920,1080,1-1-2024,11-3-7,8,VR_target_stimuli/s31_1.3x_4.96_342.png,250,1.3x,4.96,2.0,8041,251,meters,jsons/MX_seq17_0_VE250.json,344144,626549,41,Woman
8,503920,final-intermixed-textured,v2,jsons/MX_seq17_0_VE250.json,http://54.235.29.9/FacialAge/BNav_EC2/DepthDuration/MX_fS_VE_MTurk/MX_fS_HTML.html#166,166,1920,1080,1920,1080,1-1-2024,11-3-7,9,VR_target_stimuli/s33_1x_3.1_366_BC.png,250,1x,3.1,6.0,11987,251,meters,jsons/MX_seq17_0_VE250.json,344144,626549,41,Woman
9,503920,final-intermixed-textured,v2,jsons/MX_seq17_0_VE250.json,http://54.235.29.9/FacialAge/BNav_EC2/DepthDuration/MX_fS_VE_MTurk/MX_fS_HTML.html#166,166,1920,1080,1920,1080,1-1-2024,11-3-7,10,VR_target_stimuli/s52_0.75x_3.2_270_BC.png,250,0.75x,3.2,0.0,3934,251,meters,jsons/MX_seq17_0_VE250.json,344144,626549,41,Woman
10,503920,final-intermixed-textured,v2,jsons/MX_seq17_0_VE250.json,http://54.235.29.9/FacialAge/BNav_EC2/DepthDuration/MX_fS_VE_MTurk/MX_fS_HTML.html#166,166,1920,1080,1920,1080,1-1-2024,11-3-7,11,VR_target_stimuli/s32_1x_1.5_218.png,250,1x,1.5,3.0,5277,251,meters,jsons/MX_seq17_0_VE250.json,344144,626549,41,Woman
11,503920,final-intermixed-textured,v2,jsons/MX_seq17_0_VE250.json,http://54.235.29.9/FacialAge/BNav_EC2/DepthDuration/MX_fS_VE_MTurk/MX_fS_HTML.html#166,166,1920,1080,1920,1080,1-1-2024,11-3-7,12,VR_target_stimuli/s18_1.3x_2.25_368_BC.png,250,1.3x,2.25,1.0,4838,245,meters,jsons/MX_seq17_0_VE250.json,344144,626549,41,Woman
12,503920,final-intermixed-textured,v2,jsons/MX_seq17_0_VE250.json,http://54.235.29.9/FacialAge/BNav_EC2/DepthDuration/MX_fS_VE_MTurk/MX_fS_HTML.html#166,166,1920,1080,1920,1080,1-1-2024,11-3-7,13,VR_target_stimuli/s39_0.75x_1_205.png,250,0.75x,1.0,0.0,2918,251,meters,jsons/MX_seq17_0_VE250.json,344144,626549,41,Woman
13,503920,final-intermixed-textured,v2,jsons/MX_seq17_0_VE250.json,http://54.235.29.9/FacialAge/BNav_EC2/DepthDuration/MX_fS_VE_MTurk/MX_fS_HTML.html#166,166,1920,1080,1920,1080,1-1-2024,11-3-7,14,VR_target_stimuli/s51_1.3x_3.64_479_BC.png,250,1.3x,3.64,3.0,5093,250,meters,jsons/MX_seq17_0_VE250.json,344144,626549,41,Woman
14,503920,final-intermixed-textured,v2,jsons/MX_seq17_0_VE250.json,http://54.235.29.9/FacialAge/BNav_EC2/DepthDuration/MX_fS_VE_MTurk/MX_fS_HTML.html#166,166,1920,1080,1920,1080,1-1-2024,11-3-7,15,VR_target_stimuli/s43_1x_2.2_354.png,250,1x,2.2,5.0,4581,251,meters,jsons/MX_seq17_0_VE250.json,344144,626549,41,Woman
15,503920,final-intermixed-textured,v2,jsons/MX_seq17_0_VE250.json,http://54.235.29.9/FacialAge/BNav_EC2/DepthDuration/MX_fS_VE_MTurk/MX_fS_HTML.html#166,166,1920,1080,1920,1080,1-1-2024,11-3-7,16,VR_target_stimuli/s24_0.75x_3.3_344.png,250,0.75x,3.3,4.0,4879,248,meters,jsons/MX_seq17_0_VE250.json,344144,626549,41,Woman
16,503920,final-intermixed-textured,v2,jsons/MX_seq17_0_VE250.json,http://54.235.29.9/FacialAge/BNav_EC2/DepthDuration/MX_fS_VE_MTurk/MX_fS_HTML.html#166,166,1920,1080,1920,1080,1-1-2024,11-3-7,17,catch_stimuli/c1.png,250,,,0.0,3571,246,meters,jsons/MX_seq17_0_VE250.json,344144,626549,41,Woman
17,503920,final-intermixed-textured,v2,jsons/MX_seq17_0_VE250.json,http://54.235.29.9/FacialAge/BNav_EC2/DepthDuration/MX_fS_VE_MTurk/MX_fS_HTML.html#166,166,1920,1080,1920,1080,1-1-2024,11-3-7,18,VR_target_stimuli/s10_0.75x_2.7_321_BC.png,250,0.75x,2.7,5.0,6134,252,meters,jsons/MX_seq17_0_VE250.json,344144,626549,41,Woman
18,503920,final-intermixed-textured,v2,jsons/MX_seq17_0_VE250.json,http://54.235.29.9/FacialAge/BNav_EC2/DepthDuration/MX_fS_VE_MTurk/MX_fS_HTML.html#166,166,1920,1080,1920,1080,1-1-2024,11-3-7,19,VR_target_stimuli/s36_1.3x_4.1_442.png,250,1.3x,4.1,0.0,3045,249,meters,jsons/MX_seq17_0_VE250.json,344144,626549,41,Woman
19,503920,final-intermixed-textured,v2,jsons/MX_seq17_0_VE250.json,http://54.235.29.9/FacialAge/BNav_EC2/DepthDuration/MX_fS_VE_MTurk/MX_fS_HTML.html#166,166,1920,1080,1920,1080,1-1-2024,11-3-7,20,VR_target_stimuli/s40_1x_1.2_319_BC.png,250,1x,1.2,2.0,5689,250,meters,jsons/MX_seq17_0_VE250.json,344144,626549,41,Woman
20,503920,final-intermixed-textured,v2,jsons/MX_seq17_0_VE250.json,http://54.235.29.9/FacialAge/BNav_EC2/DepthDuration/MX_fS_VE_MTurk/MX_fS_HTML.html#166,166,1920,1080,1920,1080,1-1-2024,11-3-7,21,VR_target_stimuli/s41_1.3x_2.1_294.png,250,1.3x,2.1,1.5,8524,250,meters,jsons/MX_seq17_0_VE250.json,344144,626549,41,Woman
21,503920,final-intermixed-textured,v2,jsons/MX_seq17_0_VE250.json,http://54.235.29.9/FacialAge/BNav_EC2/DepthDuration/MX_fS_VE_MTurk/MX_fS_HTML.html#166,166,1920,1080,1920,1080,1-1-2024,11-3-7,22,VR_target_stimuli/s45_0.75x_3.5_362.png,250,0.75x,3.5,4.5,9636,252,meters,jsons/MX_seq17_0_VE250.json,344144,626549,41,Woman
22,503920,final-intermixed-textured,v2,jsons/MX_seq17_0_VE250.json,http://54.235.29.9/FacialAge/BNav_EC2/DepthDuration/MX_fS_VE_MTurk/MX_fS_HTML.html#166,166,1920,1080,1920,1080,1-1-2024,11-3-7,23,VR_target_stimuli/s23_1x_3.65_353.png,250,1x,3.65,4.0,8339,263,meters,jsons/MX_seq17_0_VE250.json,344144,626549,41,Woman
23,503920,final-intermixed-textured,v2,jsons/MX_seq17_0_VE250.json,http://54.235.29.9/FacialAge/BNav_EC2/DepthDuration/MX_fS_VE_MTurk/MX_fS_HTML.html#166,166,1920,1080,1920,1080,1-1-2024,11-3-7,24,VR_target_stimuli/s26_0.75x_4_430_BC.png,250,0.75x,4.0,6.0,7306,250,meters,jsons/MX_seq17_0_VE250.json,344144,626549,41,Woman
24,503920,final-intermixed-textured,v2,jsons/MX_seq17_0_VE250.json,http://54.235.29.9/FacialAge/BNav_EC2/DepthDuration/MX_fS_VE_MTurk/MX_fS_HTML.html#166,166,1920,1080,1920,1080,1-1-2024,11-3-7,25,VR_target_stimuli/s12_1.3x_3.1_375_BC.png,250,1.3x,3.1,4.0,3375,251,meters,jsons/MX_seq17_0_VE250.json,344144,626549,41,Woman
25,503920,final-intermixed-textured,v2,jsons/MX_seq17_0_VE250.json,http://54.235.29.9/FacialAge/BNav_EC2/DepthDuration/MX_fS_VE_MTurk/MX_fS_HTML.html#166,166,1920,1080,1920,1080,1-1-2024,11-3-7,26,catch_stimuli/c2.png,250,,,0.0,2836,251,meters,jsons/MX_seq17_0_VE250.json,344144,626549,41,Woman
26,503920,final-intermixed-textured,v2,jsons/MX_seq17_0_VE250.json,http://54.235.29.9/FacialAge/BNav_EC2/DepthDuration/MX_fS_VE_MTurk/MX_fS_HTML.html#166,166,1920,1080,1920,1080,1-1-2024,11-3-7,27,VR_target_stimuli/s30_1x_2.3_334_BC.png,250,1x,2.3,4.0,4795,250,meters,jsons/MX_seq17_0_VE250.json,344144,626549,41,Woman
27,503920,final-intermixed-textured,v2,jsons/MX_seq17_0_VE250.json,http://54.235.29.9/FacialAge/BNav_EC2/DepthDuration/MX_fS_VE_MTurk/MX_fS_HTML.html#166,166,1920,1080,1920,1080,1-1-2024,11-3-7,28,VR_target_stimuli/s16_1x_1_219_BC.png,250,1x,1.0,1.0,4609,249,meters,jsons/MX_seq17_0_VE250.json,344144,626549,41,Woman
28,503920,final-intermixed-textured,v2,jsons/MX_seq17_0_VE250.json,http://54.235.29.9/FacialAge/BNav_EC2/DepthDuration/MX_fS_VE_MTurk/MX_fS_HTML.html#166,166,1920,1080,1920,1080,1-1-2024,11-3-7,29,VR_target_stimuli/s17_0.75x_1.8_285_BC.png,250,0.75x,1.8,3.0,5883,250,meters,jsons/MX_seq17_0_VE250.json,344144,626549,41,Woman
29,503920,final-intermixed-textured,v2,jsons/MX_seq17_0_VE250.json,http://54.235.29.9/FacialAge/BNav_EC2/DepthDuration/MX_fS_VE_MTurk/MX_fS_HTML.html#166,166,1920,1080,1920,1080,1-1-2024,11-3-7,30,VR_target_stimuli/s5_1.3x_4_393.png,250,1.3x,4.0,6.0,3639,250,meters,jsons/MX_seq17_0_VE250.json,344144,626549,41,Woman
30,503920,final-intermixed-textured,v2,jsons/MX_seq17_0_VE250.json,http://54.235.29.9/FacialAge/BNav_EC2/DepthDuration/MX_fS_VE_MTurk/MX_fS_HTML.html#166,166,1920,1080,1920,1080,1-1-2024,11-3-7,31,VR_target_stimuli/s37_1x_3.3_563.png,250,1x,3.3,4.0,4110,251,meters,jsons/MX_seq17_0_VE250.json,344144,626549,41,Woman
31,503920,final-intermixed-textured,v2,jsons/MX_seq17_0_VE250.json,http://54.235.29.9/FacialAge/BNav_EC2/DepthDuration/MX_fS_VE_MTurk/MX_fS_HTML.html#166,166,1920,1080,1920,1080,1-1-2024,11-3-7,32,VR_target_stimuli/s46_1.3x_2.42_354_BC.png,250,1.3x,2.42,7.0,3843,251,meters,jsons/MX_seq17_0_VE250.json,344144,626549,41,Woman
32,503920,final-intermixed-textured,v2,jsons/MX_seq17_0_VE250.json,http://54.235.29.9/FacialAge/BNav_EC2/DepthDuration/MX_fS_VE_MTurk/MX_fS_HTML.html#166,166,1920,1080,1920,1080,1-1-2024,11-3-7,33,VR_target_stimuli/s22_0.75x_4.29_348.png,250,0.75x,4.29,5.0,3123,250,meters,jsons/MX_seq17_0_VE250.json,344144,626549,41,Woman
33,503920,final-intermixed-textured,v2,jsons/MX_seq17_0_VE250.json,http://54.235.29.9/FacialAge/BNav_EC2/DepthDuration/MX_fS_VE_MTurk/MX_fS_HTML.html#166,166,1920,1080,1920,1080,1-1-2024,11-3-7,34,catch_stimuli/c3.png,250,,,0.0,3808,251,meters,jsons/MX_seq17_0_VE250.json,344144,626549,41,Woman
34,503920,final-intermixed-textured,v2,jsons/MX_seq17_0_VE250.json,http://54.235.29.9/FacialAge/BNav_EC2/DepthDuration/MX_fS_VE_MTurk/MX_fS_HTML.html#166,166,1920,1080,1920,1080,1-1-2024,11-3-7,35,VR_target_stimuli/s42_1.3x_3.2_305_BC.png,250,1.3x,3.2,6.0,4844,252,meters,jsons/MX_seq17_0_VE250.json,344144,626549,41,Woman
35,503920,final-intermixed-textured,v2,jsons/MX_seq17_0_VE250.json,http://54.235.29.9/FacialAge/BNav_EC2/DepthDuration/MX_fS_VE_MTurk/MX_fS_HTML.html#166,166,1920,1080,1920,1080,1-1-2024,11-3-7,36,VR_target_stimuli/s25_1x_1.4_290.png,250,1x,1.4,3.0,3110,248,meters,jsons/MX_seq17_0_VE250.json,344144,626549,41,Woman
36,503920,final-intermixed-textured,v2,jsons/MX_seq17_0_VE250.json,http://54.235.29.9/FacialAge/BNav_EC2/DepthDuration/MX_fS_VE_MTurk/MX_fS_HTML.html#166,166,1920,1080,1920,1080,1-1-2024,11-3-7,37,VR_target_stimuli/s50_0.75x_4.53_517.png,250,0.75x,4.53,6.0,4011,250,meters,jsons/MX_seq17_0_VE250.json,344144,626549,41,Woman
37,503920,final-intermixed-textured,v2,jsons/MX_seq17_0_VE250.json,http://54.235.29.9/FacialAge/BNav_EC2/DepthDuration/MX_fS_VE_MTurk/MX_fS_HTML.html#166,166,1920,1080,1920,1080,1-1-2024,11-3-7,38,VR_target_stimuli/s53_0.75x_1.6_403_BC.png,250,0.75x,1.6,1.0,3575,250,meters,jsons/MX_seq17_0_VE250.json,344144,626549,41,Woman
38,503920,final-intermixed-textured,v2,jsons/MX_seq17_0_VE250.json,http://54.235.29.9/FacialAge/BNav_EC2/DepthDuration/MX_fS_VE_MTurk/MX_fS_HTML.html#166,166,1920,1080,1920,1080,1-1-2024,11-3-7,39,VR_target_stimuli/s38_1.3x_3.55_358.png,250,1.3x,3.55,5.0,5804,250,meters,jsons/MX_seq17_0_VE250.json,344144,626549,41,Woman
39,503920,final-intermixed-textured,v2,jsons/MX_seq17_0_VE250.json,http://54.235.29.9/FacialAge/BNav_EC2/DepthDuration/MX_fS_VE_MTurk/MX_fS_HTML.html#166,166,1920,1080,1920,1080,1-1-2024,11-3-7,40,VR_target_stimuli/s9_1x_1.2_263_BC.png,250,1x,1.2,1.5,5330,262,meters,jsons/MX_seq17_0_VE250.json,344144,626549,41,Woman
40,503920,final-intermixed-textured,v2,jsons/MX_seq17_0_VE250.json,http://54.235.29.9/FacialAge/BNav_EC2/DepthDuration/MX_fS_VE_MTurk/MX_fS_HTML.html#166,166,1920,1080,1920,1080,1-1-2024,11-3-7,41,VR_target_stimuli/s44_1.3x_4.4_325.png,250,1.3x,4.4,6.5,5893,251,meters,jsons/MX_seq17_0_VE250.json,344144,626549,41,Woman
41,503920,final-intermixed-textured,v2,jsons/MX_seq17_0_VE250.json,http://54.235.29.9/FacialAge/BNav_EC2/DepthDuration/MX_fS_VE_MTurk/MX_fS_HTML.html#166,166,1920,1080,1920,1080,1-1-2024,11-3-7,42,VR_target_stimuli/s3_0.75x_5_381.png,250,0.75x,5.0,8.0,3605,251,meters,jsons/MX_seq17_0_VE250.json,344144,626549,41,Woman
42,503920,final-intermixed-textured,v2,jsons/MX_seq17_0_VE250.json,http://54.235.29.9/FacialAge/BNav_EC2/DepthDuration/MX_fS_VE_MTurk/MX_fS_HTML.html#166,166,1920,1080,1920,1080,1-1-2024,11-3-7,43,VR_target_stimuli/s1_1x_1.7_262.png,250,1x,1.7,0.0,3216,251,meters,jsons/MX_seq17_0_VE250.json,344144,626549,41,Woman
43,503920,final-intermixed-textured,v2,jsons/MX_seq17_0_VE250.json,http://54.235.29.9/FacialAge/BNav_EC2/DepthDuration/MX_fS_VE_MTurk/MX_fS_HTML.html#166,166,1920,1080,1920,1080,1-1-2024,11-3-7,44,VR_target_stimuli/s11_0.75x_5_359_BC.png,250,0.75x,5.0,8.5,5650,250,meters,jsons/MX_seq17_0_VE250.json,344144,626549,41,Woman
44,503920,final-intermixed-textured,v2,jsons/MX_seq17_0_VE250.json,http://54.235.29.9/FacialAge/BNav_EC2/DepthDuration/MX_fS_VE_MTurk/MX_fS_HTML.html#166,166,1920,1080,1920,1080,1-1-2024,11-3-7,45,catch_stimuli/c4.png,250,,,0.0,2863,248,meters,jsons/MX_seq17_0_VE250.json,344144,626549,41,Woman
45,503920,final-intermixed-textured,v2,jsons/MX_seq17_0_VE250.json,http://54.235.29.9/FacialAge/BNav_EC2/DepthDuration/MX_fS_VE_MTurk/MX_fS_HTML.html#166,166,1920,1080,1920,1080,1-1-2024,11-3-7,46,VR_target_stimuli/s2_1.3x_2.7_397_BC.png,250,1.3x,2.7,3.5,4943,250,meters,jsons/MX_seq17_0_VE250.json,344144,626549,41,Woman
46,503920,final-intermixed-textured,v2,jsons/MX_seq17_0_VE250.json,http://54.235.29.9/FacialAge/BNav_EC2/DepthDuration/MX_fS_VE_MTurk/MX_fS_HTML.html#166,166,1920,1080,1920,1080,1-1-2024,11-3-7,47,VR_target_stimuli/s6_1x_2.1_293_BC.png,250,1x,2.1,2.5,5899,250,meters,jsons/MX_seq17_0_VE250.json,344144,626549,41,Woman
47,503920,final-intermixed-textured,v2,jsons/MX_seq17_0_VE250.json,http://54.235.29.9/FacialAge/BNav_EC2/DepthDuration/MX_fS_VE_MTurk/MX_fS_HTML.html#166,166,1920,1080,1920,1080,1-1-2024,11-3-7,48,VR_target_stimuli/s0_1x_2.6_351_BC.png,250,1x,2.6,2.0,3952,250,meters,jsons/MX_seq17_0_VE250.json,344144,626549,41,Woman
48,503920,final-intermixed-textured,v2,jsons/MX_seq17_0_VE250.json,http://54.235.29.9/FacialAge/BNav_EC2/DepthDuration/MX_fS_VE_MTurk/MX_fS_HTML.html#166,166,1920,1080,1920,1080,1-1-2024,11-3-7,49,VR_target_stimuli/s34_0.75x_2.8_269.png,250,0.75x,2.8,3.5,4096,251,meters,jsons/MX_seq17_0_VE250.json,344144,626549,41,Woman
49,503920,final-intermixed-textured,v2,jsons/MX_seq17_0_VE250.json,http://54.235.29.9/FacialAge/BNav_EC2/DepthDuration/MX_fS_VE_MTurk/MX_fS_HTML.html#166,166,1920,1080,1920,1080,1-1-2024,11-3-7,50,VR_target_stimuli/s13_1.3x_2.4_313.png,250,1.3x,2.4,3.0,3671,250,meters,jsons/MX_seq17_0_VE250.json,344144,626549,41,Woman
50,503920,final-intermixed-textured,v2,jsons/MX_seq17_0_VE250.json,http://54.235.29.9/FacialAge/BNav_EC2/DepthDuration/MX_fS_VE_MTurk/MX_fS_HTML.html#166,166,1920,1080,1920,1080,1-1-2024,11-3-7,51,VR_target_stimuli/s14_0.75x_3.83_355_BC.png,250,0.75x,3.83,2.8,8217,252,meters,jsons/MX_seq17_0_VE250.json,344144,626549,41,Woman
51,503920,final-intermixed-textured,v2,jsons/MX_seq17_0_VE250.json,http://54.235.29.9/FacialAge/BNav_EC2/DepthDuration/MX_fS_VE_MTurk/MX_fS_HTML.html#166,166,1920,1080,1920,1080,1-1-2024,11-3-7,52,VR_target_stimuli/s47_1x_3.45_370.png,250,1x,3.45,3.0,6889,249,meters,jsons/MX_seq17_0_VE250.json,344144,626549,41,Woman
52,503920,final-intermixed-textured,v2,jsons/MX_seq17_0_VE250.json,http://54.235.29.9/FacialAge/BNav_EC2/DepthDuration/MX_fS_VE_MTurk/MX_fS_HTML.html#166,166,1920,1080,1920,1080,1-1-2024,11-3-7,53,catch_stimuli/c5.png,250,,,0.0,3010,251,meters,jsons/MX_seq17_0_VE250.json,344144,626549,41,Woman
53,503920,final-intermixed-textured,v2,jsons/MX_seq17_0_VE250.json,http://54.235.29.9/FacialAge/BNav_EC2/DepthDuration/MX_fS_VE_MTurk/MX_fS_HTML.html#166,166,1920,1080,1920,1080,1-1-2024,11-3-7,54,VR_target_stimuli/s29_1.3x_1.3_253_BC.png,250,1.3x,1.3,1.5,4934,251,meters,jsons/MX_seq17_0_VE250.json,344144,626549,41,Woman
54,503920,final-intermixed-textured,v2,jsons/MX_seq17_0_VE250.json,http://54.235.29.9/FacialAge/BNav_EC2/DepthDuration/MX_fS_VE_MTurk/MX_fS_HTML.html#166,166,1920,1080,1920,1080,1-1-2024,11-3-7,55,VR_target_stimuli/s28_1x_3.2_362.png,250,1x,3.2,4.5,4691,250,meters,jsons/MX_seq17_0_VE250.json,344144,626549,41,Woman
55,503920,final-intermixed-textured,v2,jsons/MX_seq17_0_VE250.json,http://54.235.29.9/FacialAge/BNav_EC2/DepthDuration/MX_fS_VE_MTurk/MX_fS_HTML.html#166,166,1920,1080,1920,1080,1-1-2024,11-3-7,56,VR_target_stimuli/s48_0.75x_2.55_243.png,250,0.75x,2.55,0.0,3694,251,meters,jsons/MX_seq17_0_VE250.json,344144,626549,41,Woman
56,503920,final-intermixed-textured,v2,jsons/MX_seq17_0_VE250.json,http://54.235.29.9/FacialAge/BNav_EC2/DepthDuration/MX_fS_VE_MTurk/MX_fS_HTML.html#166,166,1920,1080,1920,1080,1-1-2024,11-3-7,57,VR_target_stimuli/s19_1.3x_1.21_270_BC.png,250,1.3x,1.21,1.5,6354,257,meters,jsons/MX_seq17_0_VE250.json,344144,626549,41,Woman
57,503920,final-intermixed-textured,v2,jsons/MX_seq17_0_VE250.json,http://54.235.29.9/FacialAge/BNav_EC2/DepthDuration/MX_fS_VE_MTurk/MX_fS_HTML.html#166,166,1920,1080,1920,1080,1-1-2024,11-3-7,58,VR_target_stimuli/s21_1.3x_4.22_384.png,250,1.3x,4.22,4.5,10822,248,meters,jsons/MX_seq17_0_VE250.json,344144,626549,41,Woman
58,503920,final-intermixed-textured,v2,jsons/MX_seq17_0_VE250.json,http://54.235.29.9/FacialAge/BNav_EC2/DepthDuration/MX_fS_VE_MTurk/MX_fS_HTML.html#166,166,1920,1080,1920,1080,1-1-2024,11-3-7,59,VR_target_stimuli/s8_1x_3.1_332_BC.png,250,1x,3.1,3.0,3675,251,meters,jsons/MX_seq17_0_VE250.json,344144,626549,41,Woman
59,503920,final-intermixed-textured,v2,jsons/MX_seq17_0_VE250.json,http://54.235.29.9/FacialAge/BNav_EC2/DepthDuration/MX_fS_VE_MTurk/MX_fS_HTML.html#166,166,1920,1080,1920,1080,1-1-2024,11-3-7,60,VR_target_stimuli/s27_0.75x_1.76_243_BC.png,250,0.75x,1.76,3.0,4893,252,meters,jsons/MX_seq17_0_VE250.json,344144,626549,41,Woman
