,subjID,experimentName,versionName,sequenceName,url,selected_row,windowWidth,windowHeight,screenWidth,screenHeight,startDate,startTime,trial,stimulus,duration,scale,actual_depth,depth_estimate,trial_RT,log_sceneDuration,unitSelection,seq_filepath,experimentTime,totalTime,age,gender
0,522025,final-intermixed-textured,v2,jsons/MX_seq26_2_VE250_flipped.json,http://54.235.29.9/FacialAge/BNav_EC2/DepthDuration/MX_fS_VE_MTurk/MX_fS_HTML.html#146,146,1920,963,1920,1080,0-31-2024,21-20-57,1,VR_target_stimuli/s32_1x_1.5_218.png,250,1x,1.5,5,4793,250,feet,jsons/MX_seq26_2_VE250_flipped.json,406727,598273,38,Man
1,522025,final-intermixed-textured,v2,jsons/MX_seq26_2_VE250_flipped.json,http://54.235.29.9/FacialAge/BNav_EC2/DepthDuration/MX_fS_VE_MTurk/MX_fS_HTML.html#146,146,1920,963,1920,1080,0-31-2024,21-20-57,2,VR_target_stimuli/s18_1.3x_2.25_368_BC.png,250,1.3x,2.25,6,7025,248,feet,jsons/MX_seq26_2_VE250_flipped.json,406727,598273,38,Man
2,522025,final-intermixed-textured,v2,jsons/MX_seq26_2_VE250_flipped.json,http://54.235.29.9/FacialAge/BNav_EC2/DepthDuration/MX_fS_VE_MTurk/MX_fS_HTML.html#146,146,1920,963,1920,1080,0-31-2024,21-20-57,3,VR_target_stimuli/s39_0.75x_1_205.png,250,0.75x,1.0,4,4557,244,feet,jsons/MX_seq26_2_VE250_flipped.json,406727,598273,38,Man
3,522025,final-intermixed-textured,v2,jsons/MX_seq26_2_VE250_flipped.json,http://54.235.29.9/FacialAge/BNav_EC2/DepthDuration/MX_fS_VE_MTurk/MX_fS_HTML.html#146,146,1920,963,1920,1080,0-31-2024,21-20-57,4,VR_target_stimuli/s51_1.3x_3.64_479.png,250,1.3x,3.64,7,4796,262,feet,jsons/MX_seq26_2_VE250_flipped.json,406727,598273,38,Man
4,522025,final-intermixed-textured,v2,jsons/MX_seq26_2_VE250_flipped.json,http://54.235.29.9/FacialAge/BNav_EC2/DepthDuration/MX_fS_VE_MTurk/MX_fS_HTML.html#146,146,1920,963,1920,1080,0-31-2024,21-20-57,5,VR_target_stimuli/s43_1x_2.2_354_BC.png,250,1x,2.2,7,4561,256,feet,jsons/MX_seq26_2_VE250_flipped.json,406727,598273,38,Man
5,522025,final-intermixed-textured,v2,jsons/MX_seq26_2_VE250_flipped.json,http://54.235.29.9/FacialAge/BNav_EC2/DepthDuration/MX_fS_VE_MTurk/MX_fS_HTML.html#146,146,1920,963,1920,1080,0-31-2024,21-20-57,6,VR_target_stimuli/s24_0.75x_3.3_344_BC.png,250,0.75x,3.3,9,10849,262,feet,jsons/MX_seq26_2_VE250_flipped.json,406727,598273,38,Man
6,522025,final-intermixed-textured,v2,jsons/MX_seq26_2_VE250_flipped.json,http://54.235.29.9/FacialAge/BNav_EC2/DepthDuration/MX_fS_VE_MTurk/MX_fS_HTML.html#146,146,1920,963,1920,1080,0-31-2024,21-20-57,7,catch_stimuli/c0_BC.png,250,,,0,3328,247,feet,jsons/MX_seq26_2_VE250_flipped.json,406727,598273,38,Man
7,522025,final-intermixed-textured,v2,jsons/MX_seq26_2_VE250_flipped.json,http://54.235.29.9/FacialAge/BNav_EC2/DepthDuration/MX_fS_VE_MTurk/MX_fS_HTML.html#146,146,1920,963,1920,1080,0-31-2024,21-20-57,8,VR_target_stimuli/s10_0.75x_2.7_321.png,250,0.75x,2.7,7,7357,252,feet,jsons/MX_seq26_2_VE250_flipped.json,406727,598273,38,Man
8,522025,final-intermixed-textured,v2,jsons/MX_seq26_2_VE250_flipped.json,http://54.235.29.9/FacialAge/BNav_EC2/DepthDuration/MX_fS_VE_MTurk/MX_fS_HTML.html#146,146,1920,963,1920,1080,0-31-2024,21-20-57,9,VR_target_stimuli/s36_1.3x_4.1_442.png,250,1.3x,4.1,10,7002,249,feet,jsons/MX_seq26_2_VE250_flipped.json,406727,598273,38,Man
9,522025,final-intermixed-textured,v2,jsons/MX_seq26_2_VE250_flipped.json,http://54.235.29.9/FacialAge/BNav_EC2/DepthDuration/MX_fS_VE_MTurk/MX_fS_HTML.html#146,146,1920,963,1920,1080,0-31-2024,21-20-57,10,VR_target_stimuli/s40_1x_1.2_319.png,250,1x,1.2,4,5838,237,feet,jsons/MX_seq26_2_VE250_flipped.json,406727,598273,38,Man
10,522025,final-intermixed-textured,v2,jsons/MX_seq26_2_VE250_flipped.json,http://54.235.29.9/FacialAge/BNav_EC2/DepthDuration/MX_fS_VE_MTurk/MX_fS_HTML.html#146,146,1920,963,1920,1080,0-31-2024,21-20-57,11,VR_target_stimuli/s41_1.3x_2.1_294_BC.png,250,1.3x,2.1,6,7565,251,feet,jsons/MX_seq26_2_VE250_flipped.json,406727,598273,38,Man
11,522025,final-intermixed-textured,v2,jsons/MX_seq26_2_VE250_flipped.json,http://54.235.29.9/FacialAge/BNav_EC2/DepthDuration/MX_fS_VE_MTurk/MX_fS_HTML.html#146,146,1920,963,1920,1080,0-31-2024,21-20-57,12,VR_target_stimuli/s45_0.75x_3.5_362_BC.png,250,0.75x,3.5,8,7048,251,feet,jsons/MX_seq26_2_VE250_flipped.json,406727,598273,38,Man
12,522025,final-intermixed-textured,v2,jsons/MX_seq26_2_VE250_flipped.json,http://54.235.29.9/FacialAge/BNav_EC2/DepthDuration/MX_fS_VE_MTurk/MX_fS_HTML.html#146,146,1920,963,1920,1080,0-31-2024,21-20-57,13,VR_target_stimuli/s23_1x_3.65_353_BC.png,250,1x,3.65,9,6581,242,feet,jsons/MX_seq26_2_VE250_flipped.json,406727,598273,38,Man
13,522025,final-intermixed-textured,v2,jsons/MX_seq26_2_VE250_flipped.json,http://54.235.29.9/FacialAge/BNav_EC2/DepthDuration/MX_fS_VE_MTurk/MX_fS_HTML.html#146,146,1920,963,1920,1080,0-31-2024,21-20-57,14,VR_target_stimuli/s26_0.75x_4_430_BC.png,250,0.75x,4.0,9,8016,248,feet,jsons/MX_seq26_2_VE250_flipped.json,406727,598273,38,Man
14,522025,final-intermixed-textured,v2,jsons/MX_seq26_2_VE250_flipped.json,http://54.235.29.9/FacialAge/BNav_EC2/DepthDuration/MX_fS_VE_MTurk/MX_fS_HTML.html#146,146,1920,963,1920,1080,0-31-2024,21-20-57,15,VR_target_stimuli/s12_1.3x_3.1_375_BC.png,250,1.3x,3.1,8,10968,248,feet,jsons/MX_seq26_2_VE250_flipped.json,406727,598273,38,Man
15,522025,final-intermixed-textured,v2,jsons/MX_seq26_2_VE250_flipped.json,http://54.235.29.9/FacialAge/BNav_EC2/DepthDuration/MX_fS_VE_MTurk/MX_fS_HTML.html#146,146,1920,963,1920,1080,0-31-2024,21-20-57,16,VR_target_stimuli/s30_1x_2.3_334.png,250,1x,2.3,7,3899,259,feet,jsons/MX_seq26_2_VE250_flipped.json,406727,598273,38,Man
16,522025,final-intermixed-textured,v2,jsons/MX_seq26_2_VE250_flipped.json,http://54.235.29.9/FacialAge/BNav_EC2/DepthDuration/MX_fS_VE_MTurk/MX_fS_HTML.html#146,146,1920,963,1920,1080,0-31-2024,21-20-57,17,catch_stimuli/c1_BC.png,250,,,0,3468,247,feet,jsons/MX_seq26_2_VE250_flipped.json,406727,598273,38,Man
17,522025,final-intermixed-textured,v2,jsons/MX_seq26_2_VE250_flipped.json,http://54.235.29.9/FacialAge/BNav_EC2/DepthDuration/MX_fS_VE_MTurk/MX_fS_HTML.html#146,146,1920,963,1920,1080,0-31-2024,21-20-57,18,VR_target_stimuli/s16_1x_1_219_BC.png,250,1x,1.0,4,5727,246,feet,jsons/MX_seq26_2_VE250_flipped.json,406727,598273,38,Man
18,522025,final-intermixed-textured,v2,jsons/MX_seq26_2_VE250_flipped.json,http://54.235.29.9/FacialAge/BNav_EC2/DepthDuration/MX_fS_VE_MTurk/MX_fS_HTML.html#146,146,1920,963,1920,1080,0-31-2024,21-20-57,19,VR_target_stimuli/s17_0.75x_1.8_285.png,250,0.75x,1.8,6,4855,247,feet,jsons/MX_seq26_2_VE250_flipped.json,406727,598273,38,Man
19,522025,final-intermixed-textured,v2,jsons/MX_seq26_2_VE250_flipped.json,http://54.235.29.9/FacialAge/BNav_EC2/DepthDuration/MX_fS_VE_MTurk/MX_fS_HTML.html#146,146,1920,963,1920,1080,0-31-2024,21-20-57,20,VR_target_stimuli/s5_1.3x_4_393.png,250,1.3x,4.0,10,4411,249,feet,jsons/MX_seq26_2_VE250_flipped.json,406727,598273,38,Man
20,522025,final-intermixed-textured,v2,jsons/MX_seq26_2_VE250_flipped.json,http://54.235.29.9/FacialAge/BNav_EC2/DepthDuration/MX_fS_VE_MTurk/MX_fS_HTML.html#146,146,1920,963,1920,1080,0-31-2024,21-20-57,21,VR_target_stimuli/s37_0.75x_3.3_567_BC.png,250,0.75x,3.3,6,7836,236,feet,jsons/MX_seq26_2_VE250_flipped.json,406727,598273,38,Man
21,522025,final-intermixed-textured,v2,jsons/MX_seq26_2_VE250_flipped.json,http://54.235.29.9/FacialAge/BNav_EC2/DepthDuration/MX_fS_VE_MTurk/MX_fS_HTML.html#146,146,1920,963,1920,1080,0-31-2024,21-20-57,22,VR_target_stimuli/s46_1x_2.42_348_BC.png,250,1x,2.42,12,7624,260,feet,jsons/MX_seq26_2_VE250_flipped.json,406727,598273,38,Man
22,522025,final-intermixed-textured,v2,jsons/MX_seq26_2_VE250_flipped.json,http://54.235.29.9/FacialAge/BNav_EC2/DepthDuration/MX_fS_VE_MTurk/MX_fS_HTML.html#146,146,1920,963,1920,1080,0-31-2024,21-20-57,23,VR_target_stimuli/s22_1.3x_4.29_364_BC.png,250,1.3x,4.29,11,5431,252,feet,jsons/MX_seq26_2_VE250_flipped.json,406727,598273,38,Man
23,522025,final-intermixed-textured,v2,jsons/MX_seq26_2_VE250_flipped.json,http://54.235.29.9/FacialAge/BNav_EC2/DepthDuration/MX_fS_VE_MTurk/MX_fS_HTML.html#146,146,1920,963,1920,1080,0-31-2024,21-20-57,24,VR_target_stimuli/s42_1x_3.2_303.png,250,1x,3.2,8,5583,260,feet,jsons/MX_seq26_2_VE250_flipped.json,406727,598273,38,Man
24,522025,final-intermixed-textured,v2,jsons/MX_seq26_2_VE250_flipped.json,http://54.235.29.9/FacialAge/BNav_EC2/DepthDuration/MX_fS_VE_MTurk/MX_fS_HTML.html#146,146,1920,963,1920,1080,0-31-2024,21-20-57,25,VR_target_stimuli/s25_0.75x_1.4_281.png,250,0.75x,1.4,4,4569,240,feet,jsons/MX_seq26_2_VE250_flipped.json,406727,598273,38,Man
25,522025,final-intermixed-textured,v2,jsons/MX_seq26_2_VE250_flipped.json,http://54.235.29.9/FacialAge/BNav_EC2/DepthDuration/MX_fS_VE_MTurk/MX_fS_HTML.html#146,146,1920,963,1920,1080,0-31-2024,21-20-57,26,catch_stimuli/c2_BC.png,250,,,0,3560,248,feet,jsons/MX_seq26_2_VE250_flipped.json,406727,598273,38,Man
26,522025,final-intermixed-textured,v2,jsons/MX_seq26_2_VE250_flipped.json,http://54.235.29.9/FacialAge/BNav_EC2/DepthDuration/MX_fS_VE_MTurk/MX_fS_HTML.html#146,146,1920,963,1920,1080,0-31-2024,21-20-57,27,VR_target_stimuli/s50_1.3x_4.53_518.png,250,1.3x,4.53,7,9156,244,feet,jsons/MX_seq26_2_VE250_flipped.json,406727,598273,38,Man
27,522025,final-intermixed-textured,v2,jsons/MX_seq26_2_VE250_flipped.json,http://54.235.29.9/FacialAge/BNav_EC2/DepthDuration/MX_fS_VE_MTurk/MX_fS_HTML.html#146,146,1920,963,1920,1080,0-31-2024,21-20-57,28,VR_target_stimuli/s53_1.3x_1.6_355.png,250,1.3x,1.6,3,4538,257,feet,jsons/MX_seq26_2_VE250_flipped.json,406727,598273,38,Man
28,522025,final-intermixed-textured,v2,jsons/MX_seq26_2_VE250_flipped.json,http://54.235.29.9/FacialAge/BNav_EC2/DepthDuration/MX_fS_VE_MTurk/MX_fS_HTML.html#146,146,1920,963,1920,1080,0-31-2024,21-20-57,29,VR_target_stimuli/s38_1x_3.55_353_BC.png,250,1x,3.55,10,9869,246,feet,jsons/MX_seq26_2_VE250_flipped.json,406727,598273,38,Man
29,522025,final-intermixed-textured,v2,jsons/MX_seq26_2_VE250_flipped.json,http://54.235.29.9/FacialAge/BNav_EC2/DepthDuration/MX_fS_VE_MTurk/MX_fS_HTML.html#146,146,1920,963,1920,1080,0-31-2024,21-20-57,30,VR_target_stimuli/s9_0.75x_1.2_260.png,250,0.75x,1.2,4,4919,245,feet,jsons/MX_seq26_2_VE250_flipped.json,406727,598273,38,Man
30,522025,final-intermixed-textured,v2,jsons/MX_seq26_2_VE250_flipped.json,http://54.235.29.9/FacialAge/BNav_EC2/DepthDuration/MX_fS_VE_MTurk/MX_fS_HTML.html#146,146,1920,963,1920,1080,0-31-2024,21-20-57,31,VR_target_stimuli/s44_1.3x_4.4_325_BC.png,250,1.3x,4.4,6,22107,253,feet,jsons/MX_seq26_2_VE250_flipped.json,406727,598273,38,Man
31,522025,final-intermixed-textured,v2,jsons/MX_seq26_2_VE250_flipped.json,http://54.235.29.9/FacialAge/BNav_EC2/DepthDuration/MX_fS_VE_MTurk/MX_fS_HTML.html#146,146,1920,963,1920,1080,0-31-2024,21-20-57,32,VR_target_stimuli/s3_0.75x_5_381_BC.png,250,0.75x,5.0,10,3618,250,feet,jsons/MX_seq26_2_VE250_flipped.json,406727,598273,38,Man
32,522025,final-intermixed-textured,v2,jsons/MX_seq26_2_VE250_flipped.json,http://54.235.29.9/FacialAge/BNav_EC2/DepthDuration/MX_fS_VE_MTurk/MX_fS_HTML.html#146,146,1920,963,1920,1080,0-31-2024,21-20-57,33,VR_target_stimuli/s1_1x_1.7_262.png,250,1x,1.7,8,3603,251,feet,jsons/MX_seq26_2_VE250_flipped.json,406727,598273,38,Man
33,522025,final-intermixed-textured,v2,jsons/MX_seq26_2_VE250_flipped.json,http://54.235.29.9/FacialAge/BNav_EC2/DepthDuration/MX_fS_VE_MTurk/MX_fS_HTML.html#146,146,1920,963,1920,1080,0-31-2024,21-20-57,34,catch_stimuli/c3_BC.png,250,,,0,3527,244,feet,jsons/MX_seq26_2_VE250_flipped.json,406727,598273,38,Man
34,522025,final-intermixed-textured,v2,jsons/MX_seq26_2_VE250_flipped.json,http://54.235.29.9/FacialAge/BNav_EC2/DepthDuration/MX_fS_VE_MTurk/MX_fS_HTML.html#146,146,1920,963,1920,1080,0-31-2024,21-20-57,35,VR_target_stimuli/s11_0.75x_5_359_BC.png,250,0.75x,5.0,9,10739,251,feet,jsons/MX_seq26_2_VE250_flipped.json,406727,598273,38,Man
35,522025,final-intermixed-textured,v2,jsons/MX_seq26_2_VE250_flipped.json,http://54.235.29.9/FacialAge/BNav_EC2/DepthDuration/MX_fS_VE_MTurk/MX_fS_HTML.html#146,146,1920,963,1920,1080,0-31-2024,21-20-57,36,VR_target_stimuli/s2_1.3x_2.7_397_BC.png,250,1.3x,2.7,6,14581,247,feet,jsons/MX_seq26_2_VE250_flipped.json,406727,598273,38,Man
36,522025,final-intermixed-textured,v2,jsons/MX_seq26_2_VE250_flipped.json,http://54.235.29.9/FacialAge/BNav_EC2/DepthDuration/MX_fS_VE_MTurk/MX_fS_HTML.html#146,146,1920,963,1920,1080,0-31-2024,21-20-57,37,VR_target_stimuli/s6_1x_2.1_293_BC.png,250,1x,2.1,8,5132,250,feet,jsons/MX_seq26_2_VE250_flipped.json,406727,598273,38,Man
37,522025,final-intermixed-textured,v2,jsons/MX_seq26_2_VE250_flipped.json,http://54.235.29.9/FacialAge/BNav_EC2/DepthDuration/MX_fS_VE_MTurk/MX_fS_HTML.html#146,146,1920,963,1920,1080,0-31-2024,21-20-57,38,VR_target_stimuli/s0_1x_2.6_351.png,250,1x,2.6,10,6114,246,feet,jsons/MX_seq26_2_VE250_flipped.json,406727,598273,38,Man
38,522025,final-intermixed-textured,v2,jsons/MX_seq26_2_VE250_flipped.json,http://54.235.29.9/FacialAge/BNav_EC2/DepthDuration/MX_fS_VE_MTurk/MX_fS_HTML.html#146,146,1920,963,1920,1080,0-31-2024,21-20-57,39,VR_target_stimuli/s34_0.75x_2.8_269.png,250,0.75x,2.8,10,6949,237,feet,jsons/MX_seq26_2_VE250_flipped.json,406727,598273,38,Man
39,522025,final-intermixed-textured,v2,jsons/MX_seq26_2_VE250_flipped.json,http://54.235.29.9/FacialAge/BNav_EC2/DepthDuration/MX_fS_VE_MTurk/MX_fS_HTML.html#146,146,1920,963,1920,1080,0-31-2024,21-20-57,40,VR_target_stimuli/s13_1.3x_2.4_313.png,250,1.3x,2.4,8,4416,256,feet,jsons/MX_seq26_2_VE250_flipped.json,406727,598273,38,Man
40,522025,final-intermixed-textured,v2,jsons/MX_seq26_2_VE250_flipped.json,http://54.235.29.9/FacialAge/BNav_EC2/DepthDuration/MX_fS_VE_MTurk/MX_fS_HTML.html#146,146,1920,963,1920,1080,0-31-2024,21-20-57,41,VR_target_stimuli/s14_0.75x_3.83_355_BC.png,250,0.75x,3.83,10,4308,245,feet,jsons/MX_seq26_2_VE250_flipped.json,406727,598273,38,Man
41,522025,final-intermixed-textured,v2,jsons/MX_seq26_2_VE250_flipped.json,http://54.235.29.9/FacialAge/BNav_EC2/DepthDuration/MX_fS_VE_MTurk/MX_fS_HTML.html#146,146,1920,963,1920,1080,0-31-2024,21-20-57,42,VR_target_stimuli/s47_1x_3.45_370.png,250,1x,3.45,12,6127,245,feet,jsons/MX_seq26_2_VE250_flipped.json,406727,598273,38,Man
42,522025,final-intermixed-textured,v2,jsons/MX_seq26_2_VE250_flipped.json,http://54.235.29.9/FacialAge/BNav_EC2/DepthDuration/MX_fS_VE_MTurk/MX_fS_HTML.html#146,146,1920,963,1920,1080,0-31-2024,21-20-57,43,VR_target_stimuli/s29_1.3x_1.3_253_BC.png,250,1.3x,1.3,8,6094,238,feet,jsons/MX_seq26_2_VE250_flipped.json,406727,598273,38,Man
43,522025,final-intermixed-textured,v2,jsons/MX_seq26_2_VE250_flipped.json,http://54.235.29.9/FacialAge/BNav_EC2/DepthDuration/MX_fS_VE_MTurk/MX_fS_HTML.html#146,146,1920,963,1920,1080,0-31-2024,21-20-57,44,VR_target_stimuli/s28_1x_3.2_362_BC.png,250,1x,3.2,10,3900,246,feet,jsons/MX_seq26_2_VE250_flipped.json,406727,598273,38,Man
44,522025,final-intermixed-textured,v2,jsons/MX_seq26_2_VE250_flipped.json,http://54.235.29.9/FacialAge/BNav_EC2/DepthDuration/MX_fS_VE_MTurk/MX_fS_HTML.html#146,146,1920,963,1920,1080,0-31-2024,21-20-57,45,catch_stimuli/c4_BC.png,250,,,0,3806,247,feet,jsons/MX_seq26_2_VE250_flipped.json,406727,598273,38,Man
45,522025,final-intermixed-textured,v2,jsons/MX_seq26_2_VE250_flipped.json,http://54.235.29.9/FacialAge/BNav_EC2/DepthDuration/MX_fS_VE_MTurk/MX_fS_HTML.html#146,146,1920,963,1920,1080,0-31-2024,21-20-57,46,VR_target_stimuli/s48_0.75x_2.55_243.png,250,0.75x,2.55,18,10603,253,feet,jsons/MX_seq26_2_VE250_flipped.json,406727,598273,38,Man
46,522025,final-intermixed-textured,v2,jsons/MX_seq26_2_VE250_flipped.json,http://54.235.29.9/FacialAge/BNav_EC2/DepthDuration/MX_fS_VE_MTurk/MX_fS_HTML.html#146,146,1920,963,1920,1080,0-31-2024,21-20-57,47,VR_target_stimuli/s19_1.3x_1.21_270.png,250,1.3x,1.21,4,5204,243,feet,jsons/MX_seq26_2_VE250_flipped.json,406727,598273,38,Man
47,522025,final-intermixed-textured,v2,jsons/MX_seq26_2_VE250_flipped.json,http://54.235.29.9/FacialAge/BNav_EC2/DepthDuration/MX_fS_VE_MTurk/MX_fS_HTML.html#146,146,1920,963,1920,1080,0-31-2024,21-20-57,48,VR_target_stimuli/s21_1.3x_4.22_384_BC.png,250,1.3x,4.22,14,8338,262,feet,jsons/MX_seq26_2_VE250_flipped.json,406727,598273,38,Man
48,522025,final-intermixed-textured,v2,jsons/MX_seq26_2_VE250_flipped.json,http://54.235.29.9/FacialAge/BNav_EC2/DepthDuration/MX_fS_VE_MTurk/MX_fS_HTML.html#146,146,1920,963,1920,1080,0-31-2024,21-20-57,49,VR_target_stimuli/s8_1x_3.1_332.png,250,1x,3.1,10,4344,253,feet,jsons/MX_seq26_2_VE250_flipped.json,406727,598273,38,Man
49,522025,final-intermixed-textured,v2,jsons/MX_seq26_2_VE250_flipped.json,http://54.235.29.9/FacialAge/BNav_EC2/DepthDuration/MX_fS_VE_MTurk/MX_fS_HTML.html#146,146,1920,963,1920,1080,0-31-2024,21-20-57,50,VR_target_stimuli/s27_0.75x_1.76_243.png,250,0.75x,1.76,8,3965,237,feet,jsons/MX_seq26_2_VE250_flipped.json,406727,598273,38,Man
50,522025,final-intermixed-textured,v2,jsons/MX_seq26_2_VE250_flipped.json,http://54.235.29.9/FacialAge/BNav_EC2/DepthDuration/MX_fS_VE_MTurk/MX_fS_HTML.html#146,146,1920,963,1920,1080,0-31-2024,21-20-57,51,VR_target_stimuli/s15_1x_4.2_390_BC.png,250,1x,4.2,14,5163,244,feet,jsons/MX_seq26_2_VE250_flipped.json,406727,598273,38,Man
51,522025,final-intermixed-textured,v2,jsons/MX_seq26_2_VE250_flipped.json,http://54.235.29.9/FacialAge/BNav_EC2/DepthDuration/MX_fS_VE_MTurk/MX_fS_HTML.html#146,146,1920,963,1920,1080,0-31-2024,21-20-57,52,VR_target_stimuli/s4_1.3x_1.4_328.png,250,1.3x,1.4,10,6217,262,feet,jsons/MX_seq26_2_VE250_flipped.json,406727,598273,38,Man
52,522025,final-intermixed-textured,v2,jsons/MX_seq26_2_VE250_flipped.json,http://54.235.29.9/FacialAge/BNav_EC2/DepthDuration/MX_fS_VE_MTurk/MX_fS_HTML.html#146,146,1920,963,1920,1080,0-31-2024,21-20-57,53,catch_stimuli/c5_BC.png,250,,,0,2864,254,feet,jsons/MX_seq26_2_VE250_flipped.json,406727,598273,38,Man
53,522025,final-intermixed-textured,v2,jsons/MX_seq26_2_VE250_flipped.json,http://54.235.29.9/FacialAge/BNav_EC2/DepthDuration/MX_fS_VE_MTurk/MX_fS_HTML.html#146,146,1920,963,1920,1080,0-31-2024,21-20-57,54,VR_target_stimuli/s35_0.75x_2_323_BC.png,250,0.75x,2.0,8,9153,248,feet,jsons/MX_seq26_2_VE250_flipped.json,406727,598273,38,Man
54,522025,final-intermixed-textured,v2,jsons/MX_seq26_2_VE250_flipped.json,http://54.235.29.9/FacialAge/BNav_EC2/DepthDuration/MX_fS_VE_MTurk/MX_fS_HTML.html#146,146,1920,963,1920,1080,0-31-2024,21-20-57,55,VR_target_stimuli/s49_1.3x_4.67_354.png,250,1.3x,4.67,12,5573,253,feet,jsons/MX_seq26_2_VE250_flipped.json,406727,598273,38,Man
55,522025,final-intermixed-textured,v2,jsons/MX_seq26_2_VE250_flipped.json,http://54.235.29.9/FacialAge/BNav_EC2/DepthDuration/MX_fS_VE_MTurk/MX_fS_HTML.html#146,146,1920,963,1920,1080,0-31-2024,21-20-57,56,VR_target_stimuli/s7_1x_1.5_255.png,250,1x,1.5,6,5624,254,feet,jsons/MX_seq26_2_VE250_flipped.json,406727,598273,38,Man
56,522025,final-intermixed-textured,v2,jsons/MX_seq26_2_VE250_flipped.json,http://54.235.29.9/FacialAge/BNav_EC2/DepthDuration/MX_fS_VE_MTurk/MX_fS_HTML.html#146,146,1920,963,1920,1080,0-31-2024,21-20-57,57,VR_target_stimuli/s20_0.75x_4.99_390.png,250,0.75x,4.99,0,4468,250,feet,jsons/MX_seq26_2_VE250_flipped.json,406727,598273,38,Man
57,522025,final-intermixed-textured,v2,jsons/MX_seq26_2_VE250_flipped.json,http://54.235.29.9/FacialAge/BNav_EC2/DepthDuration/MX_fS_VE_MTurk/MX_fS_HTML.html#146,146,1920,963,1920,1080,0-31-2024,21-20-57,58,VR_target_stimuli/s31_0.75x_4.96_329_BC.png,250,0.75x,4.96,20,4202,249,feet,jsons/MX_seq26_2_VE250_flipped.json,406727,598273,38,Man
58,522025,final-intermixed-textured,v2,jsons/MX_seq26_2_VE250_flipped.json,http://54.235.29.9/FacialAge/BNav_EC2/DepthDuration/MX_fS_VE_MTurk/MX_fS_HTML.html#146,146,1920,963,1920,1080,0-31-2024,21-20-57,59,VR_target_stimuli/s33_1.3x_3.1_378_BC.png,250,1.3x,3.1,8,4803,250,feet,jsons/MX_seq26_2_VE250_flipped.json,406727,598273,38,Man
59,522025,final-intermixed-textured,v2,jsons/MX_seq26_2_VE250_flipped.json,http://54.235.29.9/FacialAge/BNav_EC2/DepthDuration/MX_fS_VE_MTurk/MX_fS_HTML.html#146,146,1920,963,1920,1080,0-31-2024,21-20-57,60,VR_target_stimuli/s52_1x_3.2_275_BC.png,250,1x,3.2,6,4993,240,feet,jsons/MX_seq26_2_VE250_flipped.json,406727,598273,38,Man
