,subjID,experimentName,versionName,sequenceName,url,selected_row,windowWidth,windowHeight,screenWidth,screenHeight,startDate,startTime,trial,stimulus,duration,scale,actual_depth,depth_estimate,trial_RT,log_sceneDuration,unitSelection,seq_filepath,experimentTime,totalTime,age,gender
0,524047,final-intermixed-textured,v2,jsons/MX_seq24_1_VE250_flipped.json,http://54.235.29.9/FacialAge/BNav_EC2/DepthDuration/MX_fS_VE_MTurk/MX_fS_HTML.html#282,282,1366,625,1366,768,0-31-2024,19-20-48,1,VR_target_stimuli/s33_1.3x_3.1_378_BC.png,250,1.3x,3.1,6,5912,247,meters,jsons/MX_seq24_1_VE250_flipped.json,344654,680513,27,Woman
1,524047,final-intermixed-textured,v2,jsons/MX_seq24_1_VE250_flipped.json,http://54.235.29.9/FacialAge/BNav_EC2/DepthDuration/MX_fS_VE_MTurk/MX_fS_HTML.html#282,282,1366,625,1366,768,0-31-2024,19-20-48,2,VR_target_stimuli/s52_0.75x_3.2_270.png,250,0.75x,3.2,8,5485,248,meters,jsons/MX_seq24_1_VE250_flipped.json,344654,680513,27,Woman
2,524047,final-intermixed-textured,v2,jsons/MX_seq24_1_VE250_flipped.json,http://54.235.29.9/FacialAge/BNav_EC2/DepthDuration/MX_fS_VE_MTurk/MX_fS_HTML.html#282,282,1366,625,1366,768,0-31-2024,19-20-48,3,VR_target_stimuli/s32_1x_1.5_218_BC.png,250,1x,1.5,6,4626,248,meters,jsons/MX_seq24_1_VE250_flipped.json,344654,680513,27,Woman
3,524047,final-intermixed-textured,v2,jsons/MX_seq24_1_VE250_flipped.json,http://54.235.29.9/FacialAge/BNav_EC2/DepthDuration/MX_fS_VE_MTurk/MX_fS_HTML.html#282,282,1366,625,1366,768,0-31-2024,19-20-48,4,VR_target_stimuli/s18_0.75x_2.25_341_BC.png,250,0.75x,2.25,4,4701,255,meters,jsons/MX_seq24_1_VE250_flipped.json,344654,680513,27,Woman
4,524047,final-intermixed-textured,v2,jsons/MX_seq24_1_VE250_flipped.json,http://54.235.29.9/FacialAge/BNav_EC2/DepthDuration/MX_fS_VE_MTurk/MX_fS_HTML.html#282,282,1366,625,1366,768,0-31-2024,19-20-48,5,VR_target_stimuli/s39_1.3x_1_208.png,250,1.3x,1.0,2,4392,247,meters,jsons/MX_seq24_1_VE250_flipped.json,344654,680513,27,Woman
5,524047,final-intermixed-textured,v2,jsons/MX_seq24_1_VE250_flipped.json,http://54.235.29.9/FacialAge/BNav_EC2/DepthDuration/MX_fS_VE_MTurk/MX_fS_HTML.html#282,282,1366,625,1366,768,0-31-2024,19-20-48,6,VR_target_stimuli/s51_1x_3.64_461.png,250,1x,3.64,4,4313,255,meters,jsons/MX_seq24_1_VE250_flipped.json,344654,680513,27,Woman
6,524047,final-intermixed-textured,v2,jsons/MX_seq24_1_VE250_flipped.json,http://54.235.29.9/FacialAge/BNav_EC2/DepthDuration/MX_fS_VE_MTurk/MX_fS_HTML.html#282,282,1366,625,1366,768,0-31-2024,19-20-48,7,catch_stimuli/c0_BC.png,250,,,0,3594,256,meters,jsons/MX_seq24_1_VE250_flipped.json,344654,680513,27,Woman
7,524047,final-intermixed-textured,v2,jsons/MX_seq24_1_VE250_flipped.json,http://54.235.29.9/FacialAge/BNav_EC2/DepthDuration/MX_fS_VE_MTurk/MX_fS_HTML.html#282,282,1366,625,1366,768,0-31-2024,19-20-48,8,VR_target_stimuli/s43_1x_2.2_354_BC.png,250,1x,2.2,3,4846,256,meters,jsons/MX_seq24_1_VE250_flipped.json,344654,680513,27,Woman
8,524047,final-intermixed-textured,v2,jsons/MX_seq24_1_VE250_flipped.json,http://54.235.29.9/FacialAge/BNav_EC2/DepthDuration/MX_fS_VE_MTurk/MX_fS_HTML.html#282,282,1366,625,1366,768,0-31-2024,19-20-48,9,VR_target_stimuli/s24_0.75x_3.3_344.png,250,0.75x,3.3,6,4340,247,meters,jsons/MX_seq24_1_VE250_flipped.json,344654,680513,27,Woman
9,524047,final-intermixed-textured,v2,jsons/MX_seq24_1_VE250_flipped.json,http://54.235.29.9/FacialAge/BNav_EC2/DepthDuration/MX_fS_VE_MTurk/MX_fS_HTML.html#282,282,1366,625,1366,768,0-31-2024,19-20-48,10,VR_target_stimuli/s10_1.3x_2.7_325.png,250,1.3x,2.7,4,6739,248,meters,jsons/MX_seq24_1_VE250_flipped.json,344654,680513,27,Woman
10,524047,final-intermixed-textured,v2,jsons/MX_seq24_1_VE250_flipped.json,http://54.235.29.9/FacialAge/BNav_EC2/DepthDuration/MX_fS_VE_MTurk/MX_fS_HTML.html#282,282,1366,625,1366,768,0-31-2024,19-20-48,11,VR_target_stimuli/s36_0.75x_4.1_407_BC.png,250,0.75x,4.1,5,4258,247,meters,jsons/MX_seq24_1_VE250_flipped.json,344654,680513,27,Woman
11,524047,final-intermixed-textured,v2,jsons/MX_seq24_1_VE250_flipped.json,http://54.235.29.9/FacialAge/BNav_EC2/DepthDuration/MX_fS_VE_MTurk/MX_fS_HTML.html#282,282,1366,625,1366,768,0-31-2024,19-20-48,12,VR_target_stimuli/s40_1x_1.2_319.png,250,1x,1.2,2,4173,255,meters,jsons/MX_seq24_1_VE250_flipped.json,344654,680513,27,Woman
12,524047,final-intermixed-textured,v2,jsons/MX_seq24_1_VE250_flipped.json,http://54.235.29.9/FacialAge/BNav_EC2/DepthDuration/MX_fS_VE_MTurk/MX_fS_HTML.html#282,282,1366,625,1366,768,0-31-2024,19-20-48,13,VR_target_stimuli/s41_1.3x_2.1_294_BC.png,250,1.3x,2.1,4,4595,247,meters,jsons/MX_seq24_1_VE250_flipped.json,344654,680513,27,Woman
13,524047,final-intermixed-textured,v2,jsons/MX_seq24_1_VE250_flipped.json,http://54.235.29.9/FacialAge/BNav_EC2/DepthDuration/MX_fS_VE_MTurk/MX_fS_HTML.html#282,282,1366,625,1366,768,0-31-2024,19-20-48,14,VR_target_stimuli/s45_1x_3.5_368_BC.png,250,1x,3.5,6,7532,247,meters,jsons/MX_seq24_1_VE250_flipped.json,344654,680513,27,Woman
14,524047,final-intermixed-textured,v2,jsons/MX_seq24_1_VE250_flipped.json,http://54.235.29.9/FacialAge/BNav_EC2/DepthDuration/MX_fS_VE_MTurk/MX_fS_HTML.html#282,282,1366,625,1366,768,0-31-2024,19-20-48,15,VR_target_stimuli/s23_0.75x_3.65_351.png,250,0.75x,3.65,7,4471,248,meters,jsons/MX_seq24_1_VE250_flipped.json,344654,680513,27,Woman
15,524047,final-intermixed-textured,v2,jsons/MX_seq24_1_VE250_flipped.json,http://54.235.29.9/FacialAge/BNav_EC2/DepthDuration/MX_fS_VE_MTurk/MX_fS_HTML.html#282,282,1366,625,1366,768,0-31-2024,19-20-48,16,VR_target_stimuli/s26_1.3x_4_441.png,250,1.3x,4.0,4,4933,248,meters,jsons/MX_seq24_1_VE250_flipped.json,344654,680513,27,Woman
16,524047,final-intermixed-textured,v2,jsons/MX_seq24_1_VE250_flipped.json,http://54.235.29.9/FacialAge/BNav_EC2/DepthDuration/MX_fS_VE_MTurk/MX_fS_HTML.html#282,282,1366,625,1366,768,0-31-2024,19-20-48,17,catch_stimuli/c1_BC.png,250,,,0,4910,247,meters,jsons/MX_seq24_1_VE250_flipped.json,344654,680513,27,Woman
17,524047,final-intermixed-textured,v2,jsons/MX_seq24_1_VE250_flipped.json,http://54.235.29.9/FacialAge/BNav_EC2/DepthDuration/MX_fS_VE_MTurk/MX_fS_HTML.html#282,282,1366,625,1366,768,0-31-2024,19-20-48,18,VR_target_stimuli/s12_1.3x_3.1_375_BC.png,250,1.3x,3.1,3,6182,248,meters,jsons/MX_seq24_1_VE250_flipped.json,344654,680513,27,Woman
18,524047,final-intermixed-textured,v2,jsons/MX_seq24_1_VE250_flipped.json,http://54.235.29.9/FacialAge/BNav_EC2/DepthDuration/MX_fS_VE_MTurk/MX_fS_HTML.html#282,282,1366,625,1366,768,0-31-2024,19-20-48,19,VR_target_stimuli/s30_1x_2.3_334.png,250,1x,2.3,3,4364,247,meters,jsons/MX_seq24_1_VE250_flipped.json,344654,680513,27,Woman
19,524047,final-intermixed-textured,v2,jsons/MX_seq24_1_VE250_flipped.json,http://54.235.29.9/FacialAge/BNav_EC2/DepthDuration/MX_fS_VE_MTurk/MX_fS_HTML.html#282,282,1366,625,1366,768,0-31-2024,19-20-48,20,VR_target_stimuli/s16_0.75x_1_217_BC.png,250,0.75x,1.0,2,4215,255,meters,jsons/MX_seq24_1_VE250_flipped.json,344654,680513,27,Woman
20,524047,final-intermixed-textured,v2,jsons/MX_seq24_1_VE250_flipped.json,http://54.235.29.9/FacialAge/BNav_EC2/DepthDuration/MX_fS_VE_MTurk/MX_fS_HTML.html#282,282,1366,625,1366,768,0-31-2024,19-20-48,21,VR_target_stimuli/s17_1x_1.8_291_BC.png,250,1x,1.8,1,5786,247,meters,jsons/MX_seq24_1_VE250_flipped.json,344654,680513,27,Woman
21,524047,final-intermixed-textured,v2,jsons/MX_seq24_1_VE250_flipped.json,http://54.235.29.9/FacialAge/BNav_EC2/DepthDuration/MX_fS_VE_MTurk/MX_fS_HTML.html#282,282,1366,625,1366,768,0-31-2024,19-20-48,22,VR_target_stimuli/s5_1.3x_4_393.png,250,1.3x,4.0,3,5607,255,meters,jsons/MX_seq24_1_VE250_flipped.json,344654,680513,27,Woman
22,524047,final-intermixed-textured,v2,jsons/MX_seq24_1_VE250_flipped.json,http://54.235.29.9/FacialAge/BNav_EC2/DepthDuration/MX_fS_VE_MTurk/MX_fS_HTML.html#282,282,1366,625,1366,768,0-31-2024,19-20-48,23,VR_target_stimuli/s37_0.75x_3.3_567_BC.png,250,0.75x,3.3,2,5245,248,meters,jsons/MX_seq24_1_VE250_flipped.json,344654,680513,27,Woman
23,524047,final-intermixed-textured,v2,jsons/MX_seq24_1_VE250_flipped.json,http://54.235.29.9/FacialAge/BNav_EC2/DepthDuration/MX_fS_VE_MTurk/MX_fS_HTML.html#282,282,1366,625,1366,768,0-31-2024,19-20-48,24,VR_target_stimuli/s46_1.3x_2.42_354_BC.png,250,1.3x,2.42,4,4290,248,meters,jsons/MX_seq24_1_VE250_flipped.json,344654,680513,27,Woman
24,524047,final-intermixed-textured,v2,jsons/MX_seq24_1_VE250_flipped.json,http://54.235.29.9/FacialAge/BNav_EC2/DepthDuration/MX_fS_VE_MTurk/MX_fS_HTML.html#282,282,1366,625,1366,768,0-31-2024,19-20-48,25,VR_target_stimuli/s22_1x_4.29_354.png,250,1x,4.29,6,7598,255,meters,jsons/MX_seq24_1_VE250_flipped.json,344654,680513,27,Woman
25,524047,final-intermixed-textured,v2,jsons/MX_seq24_1_VE250_flipped.json,http://54.235.29.9/FacialAge/BNav_EC2/DepthDuration/MX_fS_VE_MTurk/MX_fS_HTML.html#282,282,1366,625,1366,768,0-31-2024,19-20-48,26,catch_stimuli/c2_BC.png,250,,,0,4617,246,meters,jsons/MX_seq24_1_VE250_flipped.json,344654,680513,27,Woman
26,524047,final-intermixed-textured,v2,jsons/MX_seq24_1_VE250_flipped.json,http://54.235.29.9/FacialAge/BNav_EC2/DepthDuration/MX_fS_VE_MTurk/MX_fS_HTML.html#282,282,1366,625,1366,768,0-31-2024,19-20-48,27,VR_target_stimuli/s42_0.75x_3.2_301.png,250,0.75x,3.2,4,6379,255,meters,jsons/MX_seq24_1_VE250_flipped.json,344654,680513,27,Woman
27,524047,final-intermixed-textured,v2,jsons/MX_seq24_1_VE250_flipped.json,http://54.235.29.9/FacialAge/BNav_EC2/DepthDuration/MX_fS_VE_MTurk/MX_fS_HTML.html#282,282,1366,625,1366,768,0-31-2024,19-20-48,28,VR_target_stimuli/s25_0.75x_1.4_281_BC.png,250,0.75x,1.4,3,4611,255,meters,jsons/MX_seq24_1_VE250_flipped.json,344654,680513,27,Woman
28,524047,final-intermixed-textured,v2,jsons/MX_seq24_1_VE250_flipped.json,http://54.235.29.9/FacialAge/BNav_EC2/DepthDuration/MX_fS_VE_MTurk/MX_fS_HTML.html#282,282,1366,625,1366,768,0-31-2024,19-20-48,29,VR_target_stimuli/s50_1.3x_4.53_518_BC.png,250,1.3x,4.53,4,4661,256,meters,jsons/MX_seq24_1_VE250_flipped.json,344654,680513,27,Woman
29,524047,final-intermixed-textured,v2,jsons/MX_seq24_1_VE250_flipped.json,http://54.235.29.9/FacialAge/BNav_EC2/DepthDuration/MX_fS_VE_MTurk/MX_fS_HTML.html#282,282,1366,625,1366,768,0-31-2024,19-20-48,30,VR_target_stimuli/s53_1x_1.6_387_BC.png,250,1x,1.6,1,5053,247,meters,jsons/MX_seq24_1_VE250_flipped.json,344654,680513,27,Woman
30,524047,final-intermixed-textured,v2,jsons/MX_seq24_1_VE250_flipped.json,http://54.235.29.9/FacialAge/BNav_EC2/DepthDuration/MX_fS_VE_MTurk/MX_fS_HTML.html#282,282,1366,625,1366,768,0-31-2024,19-20-48,31,VR_target_stimuli/s38_0.75x_3.55_346.png,250,0.75x,3.55,3,4716,247,meters,jsons/MX_seq24_1_VE250_flipped.json,344654,680513,27,Woman
31,524047,final-intermixed-textured,v2,jsons/MX_seq24_1_VE250_flipped.json,http://54.235.29.9/FacialAge/BNav_EC2/DepthDuration/MX_fS_VE_MTurk/MX_fS_HTML.html#282,282,1366,625,1366,768,0-31-2024,19-20-48,32,VR_target_stimuli/s9_1x_1.2_263.png,250,1x,1.2,2,4359,248,meters,jsons/MX_seq24_1_VE250_flipped.json,344654,680513,27,Woman
32,524047,final-intermixed-textured,v2,jsons/MX_seq24_1_VE250_flipped.json,http://54.235.29.9/FacialAge/BNav_EC2/DepthDuration/MX_fS_VE_MTurk/MX_fS_HTML.html#282,282,1366,625,1366,768,0-31-2024,19-20-48,33,VR_target_stimuli/s44_1.3x_4.4_325.png,250,1.3x,4.4,4,5097,248,meters,jsons/MX_seq24_1_VE250_flipped.json,344654,680513,27,Woman
33,524047,final-intermixed-textured,v2,jsons/MX_seq24_1_VE250_flipped.json,http://54.235.29.9/FacialAge/BNav_EC2/DepthDuration/MX_fS_VE_MTurk/MX_fS_HTML.html#282,282,1366,625,1366,768,0-31-2024,19-20-48,34,catch_stimuli/c3_BC.png,250,,,0,6244,255,meters,jsons/MX_seq24_1_VE250_flipped.json,344654,680513,27,Woman
34,524047,final-intermixed-textured,v2,jsons/MX_seq24_1_VE250_flipped.json,http://54.235.29.9/FacialAge/BNav_EC2/DepthDuration/MX_fS_VE_MTurk/MX_fS_HTML.html#282,282,1366,625,1366,768,0-31-2024,19-20-48,35,VR_target_stimuli/s3_1x_5_385.png,250,1x,5.0,6,8140,247,meters,jsons/MX_seq24_1_VE250_flipped.json,344654,680513,27,Woman
35,524047,final-intermixed-textured,v2,jsons/MX_seq24_1_VE250_flipped.json,http://54.235.29.9/FacialAge/BNav_EC2/DepthDuration/MX_fS_VE_MTurk/MX_fS_HTML.html#282,282,1366,625,1366,768,0-31-2024,19-20-48,36,VR_target_stimuli/s1_0.75x_1.7_265.png,250,0.75x,1.7,3,4766,247,meters,jsons/MX_seq24_1_VE250_flipped.json,344654,680513,27,Woman
36,524047,final-intermixed-textured,v2,jsons/MX_seq24_1_VE250_flipped.json,http://54.235.29.9/FacialAge/BNav_EC2/DepthDuration/MX_fS_VE_MTurk/MX_fS_HTML.html#282,282,1366,625,1366,768,0-31-2024,19-20-48,37,VR_target_stimuli/s11_1.3x_5_363.png,250,1.3x,5.0,5,4879,247,meters,jsons/MX_seq24_1_VE250_flipped.json,344654,680513,27,Woman
37,524047,final-intermixed-textured,v2,jsons/MX_seq24_1_VE250_flipped.json,http://54.235.29.9/FacialAge/BNav_EC2/DepthDuration/MX_fS_VE_MTurk/MX_fS_HTML.html#282,282,1366,625,1366,768,0-31-2024,19-20-48,38,VR_target_stimuli/s2_1.3x_2.7_397_BC.png,250,1.3x,2.7,3,6000,248,meters,jsons/MX_seq24_1_VE250_flipped.json,344654,680513,27,Woman
38,524047,final-intermixed-textured,v2,jsons/MX_seq24_1_VE250_flipped.json,http://54.235.29.9/FacialAge/BNav_EC2/DepthDuration/MX_fS_VE_MTurk/MX_fS_HTML.html#282,282,1366,625,1366,768,0-31-2024,19-20-48,39,VR_target_stimuli/s6_1x_2.1_293_BC.png,250,1x,2.1,4,5585,256,meters,jsons/MX_seq24_1_VE250_flipped.json,344654,680513,27,Woman
39,524047,final-intermixed-textured,v2,jsons/MX_seq24_1_VE250_flipped.json,http://54.235.29.9/FacialAge/BNav_EC2/DepthDuration/MX_fS_VE_MTurk/MX_fS_HTML.html#282,282,1366,625,1366,768,0-31-2024,19-20-48,40,VR_target_stimuli/s0_0.75x_2.6_345_BC.png,250,0.75x,2.6,3,4865,250,meters,jsons/MX_seq24_1_VE250_flipped.json,344654,680513,27,Woman
40,524047,final-intermixed-textured,v2,jsons/MX_seq24_1_VE250_flipped.json,http://54.235.29.9/FacialAge/BNav_EC2/DepthDuration/MX_fS_VE_MTurk/MX_fS_HTML.html#282,282,1366,625,1366,768,0-31-2024,19-20-48,41,VR_target_stimuli/s34_1x_2.8_283.png,250,1x,2.8,5,5214,243,meters,jsons/MX_seq24_1_VE250_flipped.json,344654,680513,27,Woman
41,524047,final-intermixed-textured,v2,jsons/MX_seq24_1_VE250_flipped.json,http://54.235.29.9/FacialAge/BNav_EC2/DepthDuration/MX_fS_VE_MTurk/MX_fS_HTML.html#282,282,1366,625,1366,768,0-31-2024,19-20-48,42,VR_target_stimuli/s13_1.3x_2.4_313_BC.png,250,1.3x,2.4,5,5137,255,meters,jsons/MX_seq24_1_VE250_flipped.json,344654,680513,27,Woman
42,524047,final-intermixed-textured,v2,jsons/MX_seq24_1_VE250_flipped.json,http://54.235.29.9/FacialAge/BNav_EC2/DepthDuration/MX_fS_VE_MTurk/MX_fS_HTML.html#282,282,1366,625,1366,768,0-31-2024,19-20-48,43,VR_target_stimuli/s14_0.75x_3.83_355_BC.png,250,0.75x,3.83,7,5747,255,meters,jsons/MX_seq24_1_VE250_flipped.json,344654,680513,27,Woman
43,524047,final-intermixed-textured,v2,jsons/MX_seq24_1_VE250_flipped.json,http://54.235.29.9/FacialAge/BNav_EC2/DepthDuration/MX_fS_VE_MTurk/MX_fS_HTML.html#282,282,1366,625,1366,768,0-31-2024,19-20-48,44,VR_target_stimuli/s47_1.3x_3.45_373.png,250,1.3x,3.45,7,6420,255,meters,jsons/MX_seq24_1_VE250_flipped.json,344654,680513,27,Woman
44,524047,final-intermixed-textured,v2,jsons/MX_seq24_1_VE250_flipped.json,http://54.235.29.9/FacialAge/BNav_EC2/DepthDuration/MX_fS_VE_MTurk/MX_fS_HTML.html#282,282,1366,625,1366,768,0-31-2024,19-20-48,45,catch_stimuli/c4_BC.png,250,,,0,4461,248,meters,jsons/MX_seq24_1_VE250_flipped.json,344654,680513,27,Woman
45,524047,final-intermixed-textured,v2,jsons/MX_seq24_1_VE250_flipped.json,http://54.235.29.9/FacialAge/BNav_EC2/DepthDuration/MX_fS_VE_MTurk/MX_fS_HTML.html#282,282,1366,625,1366,768,0-31-2024,19-20-48,46,VR_target_stimuli/s29_1x_1.3_250_BC.png,250,1x,1.3,2,6689,248,meters,jsons/MX_seq24_1_VE250_flipped.json,344654,680513,27,Woman
46,524047,final-intermixed-textured,v2,jsons/MX_seq24_1_VE250_flipped.json,http://54.235.29.9/FacialAge/BNav_EC2/DepthDuration/MX_fS_VE_MTurk/MX_fS_HTML.html#282,282,1366,625,1366,768,0-31-2024,19-20-48,47,VR_target_stimuli/s28_0.75x_3.2_357.png,250,0.75x,3.2,4,4964,255,meters,jsons/MX_seq24_1_VE250_flipped.json,344654,680513,27,Woman
47,524047,final-intermixed-textured,v2,jsons/MX_seq24_1_VE250_flipped.json,http://54.235.29.9/FacialAge/BNav_EC2/DepthDuration/MX_fS_VE_MTurk/MX_fS_HTML.html#282,282,1366,625,1366,768,0-31-2024,19-20-48,48,VR_target_stimuli/s48_0.75x_2.55_243_BC.png,250,0.75x,2.55,4,5164,248,meters,jsons/MX_seq24_1_VE250_flipped.json,344654,680513,27,Woman
48,524047,final-intermixed-textured,v2,jsons/MX_seq24_1_VE250_flipped.json,http://54.235.29.9/FacialAge/BNav_EC2/DepthDuration/MX_fS_VE_MTurk/MX_fS_HTML.html#282,282,1366,625,1366,768,0-31-2024,19-20-48,49,VR_target_stimuli/s19_1.3x_1.21_270.png,250,1.3x,1.21,2,5711,247,meters,jsons/MX_seq24_1_VE250_flipped.json,344654,680513,27,Woman
49,524047,final-intermixed-textured,v2,jsons/MX_seq24_1_VE250_flipped.json,http://54.235.29.9/FacialAge/BNav_EC2/DepthDuration/MX_fS_VE_MTurk/MX_fS_HTML.html#282,282,1366,625,1366,768,0-31-2024,19-20-48,50,VR_target_stimuli/s21_1x_4.22_379_BC.png,250,1x,4.22,6,5725,247,meters,jsons/MX_seq24_1_VE250_flipped.json,344654,680513,27,Woman
50,524047,final-intermixed-textured,v2,jsons/MX_seq24_1_VE250_flipped.json,http://54.235.29.9/FacialAge/BNav_EC2/DepthDuration/MX_fS_VE_MTurk/MX_fS_HTML.html#282,282,1366,625,1366,768,0-31-2024,19-20-48,51,VR_target_stimuli/s8_1.3x_3.1_345_BC.png,250,1.3x,3.1,4,5143,248,meters,jsons/MX_seq24_1_VE250_flipped.json,344654,680513,27,Woman
51,524047,final-intermixed-textured,v2,jsons/MX_seq24_1_VE250_flipped.json,http://54.235.29.9/FacialAge/BNav_EC2/DepthDuration/MX_fS_VE_MTurk/MX_fS_HTML.html#282,282,1366,625,1366,768,0-31-2024,19-20-48,52,VR_target_stimuli/s27_0.75x_1.76_243.png,250,0.75x,1.76,4,5705,248,meters,jsons/MX_seq24_1_VE250_flipped.json,344654,680513,27,Woman
52,524047,final-intermixed-textured,v2,jsons/MX_seq24_1_VE250_flipped.json,http://54.235.29.9/FacialAge/BNav_EC2/DepthDuration/MX_fS_VE_MTurk/MX_fS_HTML.html#282,282,1366,625,1366,768,0-31-2024,19-20-48,53,catch_stimuli/c5_BC.png,250,,,0,4120,247,meters,jsons/MX_seq24_1_VE250_flipped.json,344654,680513,27,Woman
53,524047,final-intermixed-textured,v2,jsons/MX_seq24_1_VE250_flipped.json,http://54.235.29.9/FacialAge/BNav_EC2/DepthDuration/MX_fS_VE_MTurk/MX_fS_HTML.html#282,282,1366,625,1366,768,0-31-2024,19-20-48,54,VR_target_stimuli/s15_1x_4.2_390.png,250,1x,4.2,8,5644,247,meters,jsons/MX_seq24_1_VE250_flipped.json,344654,680513,27,Woman
54,524047,final-intermixed-textured,v2,jsons/MX_seq24_1_VE250_flipped.json,http://54.235.29.9/FacialAge/BNav_EC2/DepthDuration/MX_fS_VE_MTurk/MX_fS_HTML.html#282,282,1366,625,1366,768,0-31-2024,19-20-48,55,VR_target_stimuli/s4_0.75x_1.4_301_BC.png,250,0.75x,1.4,2,6797,248,meters,jsons/MX_seq24_1_VE250_flipped.json,344654,680513,27,Woman
55,524047,final-intermixed-textured,v2,jsons/MX_seq24_1_VE250_flipped.json,http://54.235.29.9/FacialAge/BNav_EC2/DepthDuration/MX_fS_VE_MTurk/MX_fS_HTML.html#282,282,1366,625,1366,768,0-31-2024,19-20-48,56,VR_target_stimuli/s35_1.3x_2_338_BC.png,250,1.3x,2.0,2,5194,248,meters,jsons/MX_seq24_1_VE250_flipped.json,344654,680513,27,Woman
56,524047,final-intermixed-textured,v2,jsons/MX_seq24_1_VE250_flipped.json,http://54.235.29.9/FacialAge/BNav_EC2/DepthDuration/MX_fS_VE_MTurk/MX_fS_HTML.html#282,282,1366,625,1366,768,0-31-2024,19-20-48,57,VR_target_stimuli/s49_1x_4.67_341.png,250,1x,4.67,6,4633,247,meters,jsons/MX_seq24_1_VE250_flipped.json,344654,680513,27,Woman
57,524047,final-intermixed-textured,v2,jsons/MX_seq24_1_VE250_flipped.json,http://54.235.29.9/FacialAge/BNav_EC2/DepthDuration/MX_fS_VE_MTurk/MX_fS_HTML.html#282,282,1366,625,1366,768,0-31-2024,19-20-48,58,VR_target_stimuli/s7_1x_1.5_255_BC.png,250,1x,1.5,4,5188,247,meters,jsons/MX_seq24_1_VE250_flipped.json,344654,680513,27,Woman
58,524047,final-intermixed-textured,v2,jsons/MX_seq24_1_VE250_flipped.json,http://54.235.29.9/FacialAge/BNav_EC2/DepthDuration/MX_fS_VE_MTurk/MX_fS_HTML.html#282,282,1366,625,1366,768,0-31-2024,19-20-48,59,VR_target_stimuli/s20_0.75x_4.99_390.png,250,0.75x,4.99,6,4970,247,meters,jsons/MX_seq24_1_VE250_flipped.json,344654,680513,27,Woman
59,524047,final-intermixed-textured,v2,jsons/MX_seq24_1_VE250_flipped.json,http://54.235.29.9/FacialAge/BNav_EC2/DepthDuration/MX_fS_VE_MTurk/MX_fS_HTML.html#282,282,1366,625,1366,768,0-31-2024,19-20-48,60,VR_target_stimuli/s31_1.3x_4.96_342.png,250,1.3x,4.96,4,4622,255,meters,jsons/MX_seq24_1_VE250_flipped.json,344654,680513,27,Woman
