,subjID,experimentName,versionName,sequenceName,url,selected_row,windowWidth,windowHeight,screenWidth,screenHeight,startDate,startTime,trial,stimulus,duration,scale,actual_depth,depth_estimate,trial_RT,log_sceneDuration,unitSelection,seq_filepath,experimentTime,totalTime,age,gender
0,543159,final-intermixed-textured,v2,jsons/MX_seq33_2_VE250_flipped.json,http://54.235.29.9/FacialAge/BNav_EC2/DepthDuration/MX_fS_VE_MTurk/MX_fS_HTML.html#296,296,1280,585,1280,720,0-31-2024,23-1-52,1,VR_target_stimuli/s36_1x_4.1_423.png,250,1x,4.1,3,6103,250,meters,jsons/MX_seq33_2_VE250_flipped.json,159019,349293,28,Man
1,543159,final-intermixed-textured,v2,jsons/MX_seq33_2_VE250_flipped.json,http://54.235.29.9/FacialAge/BNav_EC2/DepthDuration/MX_fS_VE_MTurk/MX_fS_HTML.html#296,296,1280,585,1280,720,0-31-2024,23-1-52,2,VR_target_stimuli/s40_1.3x_1.2_332_BC.png,250,1.3x,1.2,1,4310,249,meters,jsons/MX_seq33_2_VE250_flipped.json,159019,349293,28,Man
2,543159,final-intermixed-textured,v2,jsons/MX_seq33_2_VE250_flipped.json,http://54.235.29.9/FacialAge/BNav_EC2/DepthDuration/MX_fS_VE_MTurk/MX_fS_HTML.html#296,296,1280,585,1280,720,0-31-2024,23-1-52,3,VR_target_stimuli/s41_0.75x_2.1_281_BC.png,250,0.75x,2.1,3,2099,251,meters,jsons/MX_seq33_2_VE250_flipped.json,159019,349293,28,Man
3,543159,final-intermixed-textured,v2,jsons/MX_seq33_2_VE250_flipped.json,http://54.235.29.9/FacialAge/BNav_EC2/DepthDuration/MX_fS_VE_MTurk/MX_fS_HTML.html#296,296,1280,585,1280,720,0-31-2024,23-1-52,4,VR_target_stimuli/s45_1.3x_3.5_377.png,250,1.3x,3.5,4,1805,249,meters,jsons/MX_seq33_2_VE250_flipped.json,159019,349293,28,Man
4,543159,final-intermixed-textured,v2,jsons/MX_seq33_2_VE250_flipped.json,http://54.235.29.9/FacialAge/BNav_EC2/DepthDuration/MX_fS_VE_MTurk/MX_fS_HTML.html#296,296,1280,585,1280,720,0-31-2024,23-1-52,5,VR_target_stimuli/s23_1x_3.65_353_BC.png,250,1x,3.65,4,2144,264,meters,jsons/MX_seq33_2_VE250_flipped.json,159019,349293,28,Man
5,543159,final-intermixed-textured,v2,jsons/MX_seq33_2_VE250_flipped.json,http://54.235.29.9/FacialAge/BNav_EC2/DepthDuration/MX_fS_VE_MTurk/MX_fS_HTML.html#296,296,1280,585,1280,720,0-31-2024,23-1-52,6,VR_target_stimuli/s26_0.75x_4_430.png,250,0.75x,4.0,3,1767,249,meters,jsons/MX_seq33_2_VE250_flipped.json,159019,349293,28,Man
6,543159,final-intermixed-textured,v2,jsons/MX_seq33_2_VE250_flipped.json,http://54.235.29.9/FacialAge/BNav_EC2/DepthDuration/MX_fS_VE_MTurk/MX_fS_HTML.html#296,296,1280,585,1280,720,0-31-2024,23-1-52,7,catch_stimuli/c0_BC.png,250,,,0,2440,250,meters,jsons/MX_seq33_2_VE250_flipped.json,159019,349293,28,Man
7,543159,final-intermixed-textured,v2,jsons/MX_seq33_2_VE250_flipped.json,http://54.235.29.9/FacialAge/BNav_EC2/DepthDuration/MX_fS_VE_MTurk/MX_fS_HTML.html#296,296,1280,585,1280,720,0-31-2024,23-1-52,8,VR_target_stimuli/s12_0.75x_3.1_364.png,250,0.75x,3.1,3,2140,250,meters,jsons/MX_seq33_2_VE250_flipped.json,159019,349293,28,Man
8,543159,final-intermixed-textured,v2,jsons/MX_seq33_2_VE250_flipped.json,http://54.235.29.9/FacialAge/BNav_EC2/DepthDuration/MX_fS_VE_MTurk/MX_fS_HTML.html#296,296,1280,585,1280,720,0-31-2024,23-1-52,9,VR_target_stimuli/s30_1.3x_2.3_337.png,250,1.3x,2.3,2,1867,241,meters,jsons/MX_seq33_2_VE250_flipped.json,159019,349293,28,Man
9,543159,final-intermixed-textured,v2,jsons/MX_seq33_2_VE250_flipped.json,http://54.235.29.9/FacialAge/BNav_EC2/DepthDuration/MX_fS_VE_MTurk/MX_fS_HTML.html#296,296,1280,585,1280,720,0-31-2024,23-1-52,10,VR_target_stimuli/s16_1x_1_219_BC.png,250,1x,1.0,1,1906,250,meters,jsons/MX_seq33_2_VE250_flipped.json,159019,349293,28,Man
10,543159,final-intermixed-textured,v2,jsons/MX_seq33_2_VE250_flipped.json,http://54.235.29.9/FacialAge/BNav_EC2/DepthDuration/MX_fS_VE_MTurk/MX_fS_HTML.html#296,296,1280,585,1280,720,0-31-2024,23-1-52,11,VR_target_stimuli/s17_1.3x_1.8_300_BC.png,250,1.3x,1.8,2,2039,251,meters,jsons/MX_seq33_2_VE250_flipped.json,159019,349293,28,Man
11,543159,final-intermixed-textured,v2,jsons/MX_seq33_2_VE250_flipped.json,http://54.235.29.9/FacialAge/BNav_EC2/DepthDuration/MX_fS_VE_MTurk/MX_fS_HTML.html#296,296,1280,585,1280,720,0-31-2024,23-1-52,12,VR_target_stimuli/s5_0.75x_4_375_BC.png,250,0.75x,4.0,4,1623,263,meters,jsons/MX_seq33_2_VE250_flipped.json,159019,349293,28,Man
12,543159,final-intermixed-textured,v2,jsons/MX_seq33_2_VE250_flipped.json,http://54.235.29.9/FacialAge/BNav_EC2/DepthDuration/MX_fS_VE_MTurk/MX_fS_HTML.html#296,296,1280,585,1280,720,0-31-2024,23-1-52,13,VR_target_stimuli/s37_1x_3.3_563.png,250,1x,3.3,2,1960,242,meters,jsons/MX_seq33_2_VE250_flipped.json,159019,349293,28,Man
13,543159,final-intermixed-textured,v2,jsons/MX_seq33_2_VE250_flipped.json,http://54.235.29.9/FacialAge/BNav_EC2/DepthDuration/MX_fS_VE_MTurk/MX_fS_HTML.html#296,296,1280,585,1280,720,0-31-2024,23-1-52,14,VR_target_stimuli/s46_0.75x_2.42_343.png,250,0.75x,2.42,3,1832,243,meters,jsons/MX_seq33_2_VE250_flipped.json,159019,349293,28,Man
14,543159,final-intermixed-textured,v2,jsons/MX_seq33_2_VE250_flipped.json,http://54.235.29.9/FacialAge/BNav_EC2/DepthDuration/MX_fS_VE_MTurk/MX_fS_HTML.html#296,296,1280,585,1280,720,0-31-2024,23-1-52,15,VR_target_stimuli/s22_1.3x_4.29_364_BC.png,250,1.3x,4.29,4,1992,251,meters,jsons/MX_seq33_2_VE250_flipped.json,159019,349293,28,Man
15,543159,final-intermixed-textured,v2,jsons/MX_seq33_2_VE250_flipped.json,http://54.235.29.9/FacialAge/BNav_EC2/DepthDuration/MX_fS_VE_MTurk/MX_fS_HTML.html#296,296,1280,585,1280,720,0-31-2024,23-1-52,16,VR_target_stimuli/s42_1x_3.2_303.png,250,1x,3.2,4,1751,264,meters,jsons/MX_seq33_2_VE250_flipped.json,159019,349293,28,Man
16,543159,final-intermixed-textured,v2,jsons/MX_seq33_2_VE250_flipped.json,http://54.235.29.9/FacialAge/BNav_EC2/DepthDuration/MX_fS_VE_MTurk/MX_fS_HTML.html#296,296,1280,585,1280,720,0-31-2024,23-1-52,17,catch_stimuli/c1_BC.png,250,,,0,2094,248,meters,jsons/MX_seq33_2_VE250_flipped.json,159019,349293,28,Man
17,543159,final-intermixed-textured,v2,jsons/MX_seq33_2_VE250_flipped.json,http://54.235.29.9/FacialAge/BNav_EC2/DepthDuration/MX_fS_VE_MTurk/MX_fS_HTML.html#296,296,1280,585,1280,720,0-31-2024,23-1-52,18,VR_target_stimuli/s25_1x_1.4_290_BC.png,250,1x,1.4,1,3709,241,meters,jsons/MX_seq33_2_VE250_flipped.json,159019,349293,28,Man
18,543159,final-intermixed-textured,v2,jsons/MX_seq33_2_VE250_flipped.json,http://54.235.29.9/FacialAge/BNav_EC2/DepthDuration/MX_fS_VE_MTurk/MX_fS_HTML.html#296,296,1280,585,1280,720,0-31-2024,23-1-52,19,VR_target_stimuli/s50_0.75x_4.53_517_BC.png,250,0.75x,4.53,3,1882,249,meters,jsons/MX_seq33_2_VE250_flipped.json,159019,349293,28,Man
19,543159,final-intermixed-textured,v2,jsons/MX_seq33_2_VE250_flipped.json,http://54.235.29.9/FacialAge/BNav_EC2/DepthDuration/MX_fS_VE_MTurk/MX_fS_HTML.html#296,296,1280,585,1280,720,0-31-2024,23-1-52,20,VR_target_stimuli/s53_1.3x_1.6_355.png,250,1.3x,1.6,1,1620,250,meters,jsons/MX_seq33_2_VE250_flipped.json,159019,349293,28,Man
20,543159,final-intermixed-textured,v2,jsons/MX_seq33_2_VE250_flipped.json,http://54.235.29.9/FacialAge/BNav_EC2/DepthDuration/MX_fS_VE_MTurk/MX_fS_HTML.html#296,296,1280,585,1280,720,0-31-2024,23-1-52,21,VR_target_stimuli/s38_0.75x_3.55_346.png,250,0.75x,3.55,3,2066,250,meters,jsons/MX_seq33_2_VE250_flipped.json,159019,349293,28,Man
21,543159,final-intermixed-textured,v2,jsons/MX_seq33_2_VE250_flipped.json,http://54.235.29.9/FacialAge/BNav_EC2/DepthDuration/MX_fS_VE_MTurk/MX_fS_HTML.html#296,296,1280,585,1280,720,0-31-2024,23-1-52,22,VR_target_stimuli/s9_1x_1.2_263_BC.png,250,1x,1.2,2,1694,250,meters,jsons/MX_seq33_2_VE250_flipped.json,159019,349293,28,Man
22,543159,final-intermixed-textured,v2,jsons/MX_seq33_2_VE250_flipped.json,http://54.235.29.9/FacialAge/BNav_EC2/DepthDuration/MX_fS_VE_MTurk/MX_fS_HTML.html#296,296,1280,585,1280,720,0-31-2024,23-1-52,23,VR_target_stimuli/s44_1.3x_4.4_325_BC.png,250,1.3x,4.4,4,1613,249,meters,jsons/MX_seq33_2_VE250_flipped.json,159019,349293,28,Man
23,543159,final-intermixed-textured,v2,jsons/MX_seq33_2_VE250_flipped.json,http://54.235.29.9/FacialAge/BNav_EC2/DepthDuration/MX_fS_VE_MTurk/MX_fS_HTML.html#296,296,1280,585,1280,720,0-31-2024,23-1-52,24,VR_target_stimuli/s3_1x_5_385.png,250,1x,5.0,5,1617,250,meters,jsons/MX_seq33_2_VE250_flipped.json,159019,349293,28,Man
24,543159,final-intermixed-textured,v2,jsons/MX_seq33_2_VE250_flipped.json,http://54.235.29.9/FacialAge/BNav_EC2/DepthDuration/MX_fS_VE_MTurk/MX_fS_HTML.html#296,296,1280,585,1280,720,0-31-2024,23-1-52,25,VR_target_stimuli/s1_0.75x_1.7_265_BC.png,250,0.75x,1.7,1,1684,250,meters,jsons/MX_seq33_2_VE250_flipped.json,159019,349293,28,Man
25,543159,final-intermixed-textured,v2,jsons/MX_seq33_2_VE250_flipped.json,http://54.235.29.9/FacialAge/BNav_EC2/DepthDuration/MX_fS_VE_MTurk/MX_fS_HTML.html#296,296,1280,585,1280,720,0-31-2024,23-1-52,26,catch_stimuli/c2_BC.png,250,,,0,2286,249,meters,jsons/MX_seq33_2_VE250_flipped.json,159019,349293,28,Man
26,543159,final-intermixed-textured,v2,jsons/MX_seq33_2_VE250_flipped.json,http://54.235.29.9/FacialAge/BNav_EC2/DepthDuration/MX_fS_VE_MTurk/MX_fS_HTML.html#296,296,1280,585,1280,720,0-31-2024,23-1-52,27,VR_target_stimuli/s11_1.3x_5_363.png,250,1.3x,5.0,3,1731,265,meters,jsons/MX_seq33_2_VE250_flipped.json,159019,349293,28,Man
27,543159,final-intermixed-textured,v2,jsons/MX_seq33_2_VE250_flipped.json,http://54.235.29.9/FacialAge/BNav_EC2/DepthDuration/MX_fS_VE_MTurk/MX_fS_HTML.html#296,296,1280,585,1280,720,0-31-2024,23-1-52,28,VR_target_stimuli/s2_1.3x_2.7_397_BC.png,250,1.3x,2.7,2,1527,264,meters,jsons/MX_seq33_2_VE250_flipped.json,159019,349293,28,Man
28,543159,final-intermixed-textured,v2,jsons/MX_seq33_2_VE250_flipped.json,http://54.235.29.9/FacialAge/BNav_EC2/DepthDuration/MX_fS_VE_MTurk/MX_fS_HTML.html#296,296,1280,585,1280,720,0-31-2024,23-1-52,29,VR_target_stimuli/s6_1x_2.1_293.png,250,1x,2.1,2,1491,241,meters,jsons/MX_seq33_2_VE250_flipped.json,159019,349293,28,Man
29,543159,final-intermixed-textured,v2,jsons/MX_seq33_2_VE250_flipped.json,http://54.235.29.9/FacialAge/BNav_EC2/DepthDuration/MX_fS_VE_MTurk/MX_fS_HTML.html#296,296,1280,585,1280,720,0-31-2024,23-1-52,30,VR_target_stimuli/s0_0.75x_2.6_345.png,250,0.75x,2.6,2,1624,249,meters,jsons/MX_seq33_2_VE250_flipped.json,159019,349293,28,Man
30,543159,final-intermixed-textured,v2,jsons/MX_seq33_2_VE250_flipped.json,http://54.235.29.9/FacialAge/BNav_EC2/DepthDuration/MX_fS_VE_MTurk/MX_fS_HTML.html#296,296,1280,585,1280,720,0-31-2024,23-1-52,31,VR_target_stimuli/s34_1.3x_2.8_294.png,250,1.3x,2.8,3,1453,248,meters,jsons/MX_seq33_2_VE250_flipped.json,159019,349293,28,Man
31,543159,final-intermixed-textured,v2,jsons/MX_seq33_2_VE250_flipped.json,http://54.235.29.9/FacialAge/BNav_EC2/DepthDuration/MX_fS_VE_MTurk/MX_fS_HTML.html#296,296,1280,585,1280,720,0-31-2024,23-1-52,32,VR_target_stimuli/s13_0.75x_2.4_308_BC.png,250,0.75x,2.4,2,1560,249,meters,jsons/MX_seq33_2_VE250_flipped.json,159019,349293,28,Man
32,543159,final-intermixed-textured,v2,jsons/MX_seq33_2_VE250_flipped.json,http://54.235.29.9/FacialAge/BNav_EC2/DepthDuration/MX_fS_VE_MTurk/MX_fS_HTML.html#296,296,1280,585,1280,720,0-31-2024,23-1-52,33,VR_target_stimuli/s14_1x_ 3.83_357_BC.png,250,1x,3.83,3,5080,248,meters,jsons/MX_seq33_2_VE250_flipped.json,159019,349293,28,Man
33,543159,final-intermixed-textured,v2,jsons/MX_seq33_2_VE250_flipped.json,http://54.235.29.9/FacialAge/BNav_EC2/DepthDuration/MX_fS_VE_MTurk/MX_fS_HTML.html#296,296,1280,585,1280,720,0-31-2024,23-1-52,34,catch_stimuli/c3_BC.png,250,,,0,2464,264,meters,jsons/MX_seq33_2_VE250_flipped.json,159019,349293,28,Man
34,543159,final-intermixed-textured,v2,jsons/MX_seq33_2_VE250_flipped.json,http://54.235.29.9/FacialAge/BNav_EC2/DepthDuration/MX_fS_VE_MTurk/MX_fS_HTML.html#296,296,1280,585,1280,720,0-31-2024,23-1-52,35,VR_target_stimuli/s47_0.75x_3.45_366.png,250,0.75x,3.45,2,3424,238,meters,jsons/MX_seq33_2_VE250_flipped.json,159019,349293,28,Man
35,543159,final-intermixed-textured,v2,jsons/MX_seq33_2_VE250_flipped.json,http://54.235.29.9/FacialAge/BNav_EC2/DepthDuration/MX_fS_VE_MTurk/MX_fS_HTML.html#296,296,1280,585,1280,720,0-31-2024,23-1-52,36,VR_target_stimuli/s29_1.3x_1.3_253_BC.png,250,1.3x,1.3,1,1972,252,meters,jsons/MX_seq33_2_VE250_flipped.json,159019,349293,28,Man
36,543159,final-intermixed-textured,v2,jsons/MX_seq33_2_VE250_flipped.json,http://54.235.29.9/FacialAge/BNav_EC2/DepthDuration/MX_fS_VE_MTurk/MX_fS_HTML.html#296,296,1280,585,1280,720,0-31-2024,23-1-52,37,VR_target_stimuli/s28_1x_3.2_362_BC.png,250,1x,3.2,2,2225,247,meters,jsons/MX_seq33_2_VE250_flipped.json,159019,349293,28,Man
37,543159,final-intermixed-textured,v2,jsons/MX_seq33_2_VE250_flipped.json,http://54.235.29.9/FacialAge/BNav_EC2/DepthDuration/MX_fS_VE_MTurk/MX_fS_HTML.html#296,296,1280,585,1280,720,0-31-2024,23-1-52,38,VR_target_stimuli/s48_1x_2.55_256.png,250,1x,2.55,2,2011,250,meters,jsons/MX_seq33_2_VE250_flipped.json,159019,349293,28,Man
38,543159,final-intermixed-textured,v2,jsons/MX_seq33_2_VE250_flipped.json,http://54.235.29.9/FacialAge/BNav_EC2/DepthDuration/MX_fS_VE_MTurk/MX_fS_HTML.html#296,296,1280,585,1280,720,0-31-2024,23-1-52,39,VR_target_stimuli/s19_0.75x_1.21_257_BC.png,250,0.75x,1.21,1,1582,253,meters,jsons/MX_seq33_2_VE250_flipped.json,159019,349293,28,Man
39,543159,final-intermixed-textured,v2,jsons/MX_seq33_2_VE250_flipped.json,http://54.235.29.9/FacialAge/BNav_EC2/DepthDuration/MX_fS_VE_MTurk/MX_fS_HTML.html#296,296,1280,585,1280,720,0-31-2024,23-1-52,40,VR_target_stimuli/s21_1.3x_4.22_384.png,250,1.3x,4.22,3,1564,249,meters,jsons/MX_seq33_2_VE250_flipped.json,159019,349293,28,Man
40,543159,final-intermixed-textured,v2,jsons/MX_seq33_2_VE250_flipped.json,http://54.235.29.9/FacialAge/BNav_EC2/DepthDuration/MX_fS_VE_MTurk/MX_fS_HTML.html#296,296,1280,585,1280,720,0-31-2024,23-1-52,41,VR_target_stimuli/s8_0.75x_3.1_325_BC.png,250,0.75x,3.1,2,1518,251,meters,jsons/MX_seq33_2_VE250_flipped.json,159019,349293,28,Man
41,543159,final-intermixed-textured,v2,jsons/MX_seq33_2_VE250_flipped.json,http://54.235.29.9/FacialAge/BNav_EC2/DepthDuration/MX_fS_VE_MTurk/MX_fS_HTML.html#296,296,1280,585,1280,720,0-31-2024,23-1-52,42,VR_target_stimuli/s27_1x_1.76_248.png,250,1x,1.76,2,2174,261,meters,jsons/MX_seq33_2_VE250_flipped.json,159019,349293,28,Man
42,543159,final-intermixed-textured,v2,jsons/MX_seq33_2_VE250_flipped.json,http://54.235.29.9/FacialAge/BNav_EC2/DepthDuration/MX_fS_VE_MTurk/MX_fS_HTML.html#296,296,1280,585,1280,720,0-31-2024,23-1-52,43,VR_target_stimuli/s15_1.3x_4.2_389_BC.png,250,1.3x,4.2,3,1471,264,meters,jsons/MX_seq33_2_VE250_flipped.json,159019,349293,28,Man
43,543159,final-intermixed-textured,v2,jsons/MX_seq33_2_VE250_flipped.json,http://54.235.29.9/FacialAge/BNav_EC2/DepthDuration/MX_fS_VE_MTurk/MX_fS_HTML.html#296,296,1280,585,1280,720,0-31-2024,23-1-52,44,VR_target_stimuli/s4_1x_1.4_313_BC.png,250,1x,1.4,1,1689,256,meters,jsons/MX_seq33_2_VE250_flipped.json,159019,349293,28,Man
44,543159,final-intermixed-textured,v2,jsons/MX_seq33_2_VE250_flipped.json,http://54.235.29.9/FacialAge/BNav_EC2/DepthDuration/MX_fS_VE_MTurk/MX_fS_HTML.html#296,296,1280,585,1280,720,0-31-2024,23-1-52,45,catch_stimuli/c4_BC.png,250,,,0,2116,247,meters,jsons/MX_seq33_2_VE250_flipped.json,159019,349293,28,Man
45,543159,final-intermixed-textured,v2,jsons/MX_seq33_2_VE250_flipped.json,http://54.235.29.9/FacialAge/BNav_EC2/DepthDuration/MX_fS_VE_MTurk/MX_fS_HTML.html#296,296,1280,585,1280,720,0-31-2024,23-1-52,46,VR_target_stimuli/s35_0.75x_2_323.png,250,0.75x,2.0,2,1959,251,meters,jsons/MX_seq33_2_VE250_flipped.json,159019,349293,28,Man
46,543159,final-intermixed-textured,v2,jsons/MX_seq33_2_VE250_flipped.json,http://54.235.29.9/FacialAge/BNav_EC2/DepthDuration/MX_fS_VE_MTurk/MX_fS_HTML.html#296,296,1280,585,1280,720,0-31-2024,23-1-52,47,VR_target_stimuli/s49_1.3x_4.67_354.png,250,1.3x,4.67,4,2054,249,meters,jsons/MX_seq33_2_VE250_flipped.json,159019,349293,28,Man
47,543159,final-intermixed-textured,v2,jsons/MX_seq33_2_VE250_flipped.json,http://54.235.29.9/FacialAge/BNav_EC2/DepthDuration/MX_fS_VE_MTurk/MX_fS_HTML.html#296,296,1280,585,1280,720,0-31-2024,23-1-52,48,VR_target_stimuli/s7_1.3x_1.5_256_BC.png,250,1.3x,1.5,2,1690,250,meters,jsons/MX_seq33_2_VE250_flipped.json,159019,349293,28,Man
48,543159,final-intermixed-textured,v2,jsons/MX_seq33_2_VE250_flipped.json,http://54.235.29.9/FacialAge/BNav_EC2/DepthDuration/MX_fS_VE_MTurk/MX_fS_HTML.html#296,296,1280,585,1280,720,0-31-2024,23-1-52,49,VR_target_stimuli/s20_1x_4.99_398.png,250,1x,4.99,3,1959,250,meters,jsons/MX_seq33_2_VE250_flipped.json,159019,349293,28,Man
49,543159,final-intermixed-textured,v2,jsons/MX_seq33_2_VE250_flipped.json,http://54.235.29.9/FacialAge/BNav_EC2/DepthDuration/MX_fS_VE_MTurk/MX_fS_HTML.html#296,296,1280,585,1280,720,0-31-2024,23-1-52,50,VR_target_stimuli/s31_0.75x_4.96_329_BC.png,250,0.75x,4.96,0,3272,251,meters,jsons/MX_seq33_2_VE250_flipped.json,159019,349293,28,Man
50,543159,final-intermixed-textured,v2,jsons/MX_seq33_2_VE250_flipped.json,http://54.235.29.9/FacialAge/BNav_EC2/DepthDuration/MX_fS_VE_MTurk/MX_fS_HTML.html#296,296,1280,585,1280,720,0-31-2024,23-1-52,51,VR_target_stimuli/s33_1x_3.1_366_BC.png,250,1x,3.1,3,1610,250,meters,jsons/MX_seq33_2_VE250_flipped.json,159019,349293,28,Man
51,543159,final-intermixed-textured,v2,jsons/MX_seq33_2_VE250_flipped.json,http://54.235.29.9/FacialAge/BNav_EC2/DepthDuration/MX_fS_VE_MTurk/MX_fS_HTML.html#296,296,1280,585,1280,720,0-31-2024,23-1-52,52,VR_target_stimuli/s52_1.3x_3.2_280.png,250,1.3x,3.2,3,1593,250,meters,jsons/MX_seq33_2_VE250_flipped.json,159019,349293,28,Man
52,543159,final-intermixed-textured,v2,jsons/MX_seq33_2_VE250_flipped.json,http://54.235.29.9/FacialAge/BNav_EC2/DepthDuration/MX_fS_VE_MTurk/MX_fS_HTML.html#296,296,1280,585,1280,720,0-31-2024,23-1-52,53,catch_stimuli/c5_BC.png,250,,,0,2631,248,meters,jsons/MX_seq33_2_VE250_flipped.json,159019,349293,28,Man
53,543159,final-intermixed-textured,v2,jsons/MX_seq33_2_VE250_flipped.json,http://54.235.29.9/FacialAge/BNav_EC2/DepthDuration/MX_fS_VE_MTurk/MX_fS_HTML.html#296,296,1280,585,1280,720,0-31-2024,23-1-52,54,VR_target_stimuli/s32_0.75x_1.5_213.png,250,0.75x,1.5,2,1786,247,meters,jsons/MX_seq33_2_VE250_flipped.json,159019,349293,28,Man
54,543159,final-intermixed-textured,v2,jsons/MX_seq33_2_VE250_flipped.json,http://54.235.29.9/FacialAge/BNav_EC2/DepthDuration/MX_fS_VE_MTurk/MX_fS_HTML.html#296,296,1280,585,1280,720,0-31-2024,23-1-52,55,VR_target_stimuli/s18_1.3x_2.25_368.png,250,1.3x,2.25,3,1617,249,meters,jsons/MX_seq33_2_VE250_flipped.json,159019,349293,28,Man
55,543159,final-intermixed-textured,v2,jsons/MX_seq33_2_VE250_flipped.json,http://54.235.29.9/FacialAge/BNav_EC2/DepthDuration/MX_fS_VE_MTurk/MX_fS_HTML.html#296,296,1280,585,1280,720,0-31-2024,23-1-52,56,VR_target_stimuli/s39_1x_1_207.png,250,1x,1.0,1,1630,260,meters,jsons/MX_seq33_2_VE250_flipped.json,159019,349293,28,Man
56,543159,final-intermixed-textured,v2,jsons/MX_seq33_2_VE250_flipped.json,http://54.235.29.9/FacialAge/BNav_EC2/DepthDuration/MX_fS_VE_MTurk/MX_fS_HTML.html#296,296,1280,585,1280,720,0-31-2024,23-1-52,57,VR_target_stimuli/s51_0.75x_3.64_460.png,250,0.75x,3.64,2,1932,255,meters,jsons/MX_seq33_2_VE250_flipped.json,159019,349293,28,Man
57,543159,final-intermixed-textured,v2,jsons/MX_seq33_2_VE250_flipped.json,http://54.235.29.9/FacialAge/BNav_EC2/DepthDuration/MX_fS_VE_MTurk/MX_fS_HTML.html#296,296,1280,585,1280,720,0-31-2024,23-1-52,58,VR_target_stimuli/s43_0.75x_2.2_348_BC.png,250,0.75x,2.2,2,2084,249,meters,jsons/MX_seq33_2_VE250_flipped.json,159019,349293,28,Man
58,543159,final-intermixed-textured,v2,jsons/MX_seq33_2_VE250_flipped.json,http://54.235.29.9/FacialAge/BNav_EC2/DepthDuration/MX_fS_VE_MTurk/MX_fS_HTML.html#296,296,1280,585,1280,720,0-31-2024,23-1-52,59,VR_target_stimuli/s24_1.3x_3.3_352_BC.png,250,1.3x,3.3,2,3495,258,meters,jsons/MX_seq33_2_VE250_flipped.json,159019,349293,28,Man
59,543159,final-intermixed-textured,v2,jsons/MX_seq33_2_VE250_flipped.json,http://54.235.29.9/FacialAge/BNav_EC2/DepthDuration/MX_fS_VE_MTurk/MX_fS_HTML.html#296,296,1280,585,1280,720,0-31-2024,23-1-52,60,VR_target_stimuli/s10_1x_2.7_324_BC.png,250,1x,2.7,2,2613,250,meters,jsons/MX_seq33_2_VE250_flipped.json,159019,349293,28,Man
