,subjID,experimentName,versionName,sequenceName,url,selected_row,windowWidth,windowHeight,screenWidth,screenHeight,startDate,startTime,trial,stimulus,duration,scale,actual_depth,depth_estimate,trial_RT,log_sceneDuration,unitSelection,seq_filepath,experimentTime,totalTime,age,gender
0,550860,final-intermixed-textured,v2,jsons/MX_seq27_1_VE250_flipped.json,http://54.235.29.9/FacialAge/BNav_EC2/DepthDuration/MX_fS_VE_MTurk/MX_fS_HTML.html#37,37,980,1791,360,800,0-31-2024,22-13-20,1,VR_target_stimuli/s18_1.3x_2.25_368_BC.png,250,1.3x,2.25,1,8064,249,meters,jsons/MX_seq27_1_VE250_flipped.json,415092,831897,30,Man
1,550860,final-intermixed-textured,v2,jsons/MX_seq27_1_VE250_flipped.json,http://54.235.29.9/FacialAge/BNav_EC2/DepthDuration/MX_fS_VE_MTurk/MX_fS_HTML.html#37,37,980,1791,360,800,0-31-2024,22-13-20,2,VR_target_stimuli/s39_0.75x_1_205.png,250,0.75x,1.0,2,7489,249,meters,jsons/MX_seq27_1_VE250_flipped.json,415092,831897,30,Man
2,550860,final-intermixed-textured,v2,jsons/MX_seq27_1_VE250_flipped.json,http://54.235.29.9/FacialAge/BNav_EC2/DepthDuration/MX_fS_VE_MTurk/MX_fS_HTML.html#37,37,980,1791,360,800,0-31-2024,22-13-20,3,VR_target_stimuli/s51_1x_3.64_461.png,250,1x,3.64,0,6617,249,meters,jsons/MX_seq27_1_VE250_flipped.json,415092,831897,30,Man
3,550860,final-intermixed-textured,v2,jsons/MX_seq27_1_VE250_flipped.json,http://54.235.29.9/FacialAge/BNav_EC2/DepthDuration/MX_fS_VE_MTurk/MX_fS_HTML.html#37,37,980,1791,360,800,0-31-2024,22-13-20,4,VR_target_stimuli/s43_0.75x_2.2_348_BC.png,250,0.75x,2.2,3,6003,249,meters,jsons/MX_seq27_1_VE250_flipped.json,415092,831897,30,Man
4,550860,final-intermixed-textured,v2,jsons/MX_seq27_1_VE250_flipped.json,http://54.235.29.9/FacialAge/BNav_EC2/DepthDuration/MX_fS_VE_MTurk/MX_fS_HTML.html#37,37,980,1791,360,800,0-31-2024,22-13-20,5,VR_target_stimuli/s24_1.3x_3.3_352.png,250,1.3x,3.3,5,5239,249,meters,jsons/MX_seq27_1_VE250_flipped.json,415092,831897,30,Man
5,550860,final-intermixed-textured,v2,jsons/MX_seq27_1_VE250_flipped.json,http://54.235.29.9/FacialAge/BNav_EC2/DepthDuration/MX_fS_VE_MTurk/MX_fS_HTML.html#37,37,980,1791,360,800,0-31-2024,22-13-20,6,VR_target_stimuli/s10_1x_2.7_324_BC.png,250,1x,2.7,5,5651,248,meters,jsons/MX_seq27_1_VE250_flipped.json,415092,831897,30,Man
6,550860,final-intermixed-textured,v2,jsons/MX_seq27_1_VE250_flipped.json,http://54.235.29.9/FacialAge/BNav_EC2/DepthDuration/MX_fS_VE_MTurk/MX_fS_HTML.html#37,37,980,1791,360,800,0-31-2024,22-13-20,7,catch_stimuli/c0_BC.png,250,,,2,9866,249,meters,jsons/MX_seq27_1_VE250_flipped.json,415092,831897,30,Man
7,550860,final-intermixed-textured,v2,jsons/MX_seq27_1_VE250_flipped.json,http://54.235.29.9/FacialAge/BNav_EC2/DepthDuration/MX_fS_VE_MTurk/MX_fS_HTML.html#37,37,980,1791,360,800,0-31-2024,22-13-20,8,VR_target_stimuli/s36_1x_4.1_423.png,250,1x,4.1,10,6214,250,meters,jsons/MX_seq27_1_VE250_flipped.json,415092,831897,30,Man
8,550860,final-intermixed-textured,v2,jsons/MX_seq27_1_VE250_flipped.json,http://54.235.29.9/FacialAge/BNav_EC2/DepthDuration/MX_fS_VE_MTurk/MX_fS_HTML.html#37,37,980,1791,360,800,0-31-2024,22-13-20,9,VR_target_stimuli/s40_0.75x_1.2_308.png,250,0.75x,1.2,0,20734,250,meters,jsons/MX_seq27_1_VE250_flipped.json,415092,831897,30,Man
9,550860,final-intermixed-textured,v2,jsons/MX_seq27_1_VE250_flipped.json,http://54.235.29.9/FacialAge/BNav_EC2/DepthDuration/MX_fS_VE_MTurk/MX_fS_HTML.html#37,37,980,1791,360,800,0-31-2024,22-13-20,10,VR_target_stimuli/s41_1.3x_2.1_294.png,250,1.3x,2.1,0,9774,250,meters,jsons/MX_seq27_1_VE250_flipped.json,415092,831897,30,Man
10,550860,final-intermixed-textured,v2,jsons/MX_seq27_1_VE250_flipped.json,http://54.235.29.9/FacialAge/BNav_EC2/DepthDuration/MX_fS_VE_MTurk/MX_fS_HTML.html#37,37,980,1791,360,800,0-31-2024,22-13-20,11,VR_target_stimuli/s45_0.75x_3.5_362_BC.png,250,0.75x,3.5,10,5786,249,meters,jsons/MX_seq27_1_VE250_flipped.json,415092,831897,30,Man
11,550860,final-intermixed-textured,v2,jsons/MX_seq27_1_VE250_flipped.json,http://54.235.29.9/FacialAge/BNav_EC2/DepthDuration/MX_fS_VE_MTurk/MX_fS_HTML.html#37,37,980,1791,360,800,0-31-2024,22-13-20,12,VR_target_stimuli/s23_1x_3.65_353_BC.png,250,1x,3.65,4,4807,249,meters,jsons/MX_seq27_1_VE250_flipped.json,415092,831897,30,Man
12,550860,final-intermixed-textured,v2,jsons/MX_seq27_1_VE250_flipped.json,http://54.235.29.9/FacialAge/BNav_EC2/DepthDuration/MX_fS_VE_MTurk/MX_fS_HTML.html#37,37,980,1791,360,800,0-31-2024,22-13-20,13,VR_target_stimuli/s26_1.3x_4_441_BC.png,250,1.3x,4.0,0,7247,249,meters,jsons/MX_seq27_1_VE250_flipped.json,415092,831897,30,Man
13,550860,final-intermixed-textured,v2,jsons/MX_seq27_1_VE250_flipped.json,http://54.235.29.9/FacialAge/BNav_EC2/DepthDuration/MX_fS_VE_MTurk/MX_fS_HTML.html#37,37,980,1791,360,800,0-31-2024,22-13-20,14,VR_target_stimuli/s12_1x_3.1_372.png,250,1x,3.1,4,5222,250,meters,jsons/MX_seq27_1_VE250_flipped.json,415092,831897,30,Man
14,550860,final-intermixed-textured,v2,jsons/MX_seq27_1_VE250_flipped.json,http://54.235.29.9/FacialAge/BNav_EC2/DepthDuration/MX_fS_VE_MTurk/MX_fS_HTML.html#37,37,980,1791,360,800,0-31-2024,22-13-20,15,VR_target_stimuli/s30_0.75x_2.3_332_BC.png,250,0.75x,2.3,0,5524,249,meters,jsons/MX_seq27_1_VE250_flipped.json,415092,831897,30,Man
15,550860,final-intermixed-textured,v2,jsons/MX_seq27_1_VE250_flipped.json,http://54.235.29.9/FacialAge/BNav_EC2/DepthDuration/MX_fS_VE_MTurk/MX_fS_HTML.html#37,37,980,1791,360,800,0-31-2024,22-13-20,16,VR_target_stimuli/s16_1.3x_1_223.png,250,1.3x,1.0,2,5468,250,meters,jsons/MX_seq27_1_VE250_flipped.json,415092,831897,30,Man
16,550860,final-intermixed-textured,v2,jsons/MX_seq27_1_VE250_flipped.json,http://54.235.29.9/FacialAge/BNav_EC2/DepthDuration/MX_fS_VE_MTurk/MX_fS_HTML.html#37,37,980,1791,360,800,0-31-2024,22-13-20,17,catch_stimuli/c1_BC.png,250,,,5,5685,248,meters,jsons/MX_seq27_1_VE250_flipped.json,415092,831897,30,Man
17,550860,final-intermixed-textured,v2,jsons/MX_seq27_1_VE250_flipped.json,http://54.235.29.9/FacialAge/BNav_EC2/DepthDuration/MX_fS_VE_MTurk/MX_fS_HTML.html#37,37,980,1791,360,800,0-31-2024,22-13-20,18,VR_target_stimuli/s17_1.3x_1.8_300_BC.png,250,1.3x,1.8,1,5622,249,meters,jsons/MX_seq27_1_VE250_flipped.json,415092,831897,30,Man
18,550860,final-intermixed-textured,v2,jsons/MX_seq27_1_VE250_flipped.json,http://54.235.29.9/FacialAge/BNav_EC2/DepthDuration/MX_fS_VE_MTurk/MX_fS_HTML.html#37,37,980,1791,360,800,0-31-2024,22-13-20,19,VR_target_stimuli/s5_1x_4_378_BC.png,250,1x,4.0,3,5906,250,meters,jsons/MX_seq27_1_VE250_flipped.json,415092,831897,30,Man
19,550860,final-intermixed-textured,v2,jsons/MX_seq27_1_VE250_flipped.json,http://54.235.29.9/FacialAge/BNav_EC2/DepthDuration/MX_fS_VE_MTurk/MX_fS_HTML.html#37,37,980,1791,360,800,0-31-2024,22-13-20,20,VR_target_stimuli/s37_0.75x_3.3_567.png,250,0.75x,3.3,0,5599,249,meters,jsons/MX_seq27_1_VE250_flipped.json,415092,831897,30,Man
20,550860,final-intermixed-textured,v2,jsons/MX_seq27_1_VE250_flipped.json,http://54.235.29.9/FacialAge/BNav_EC2/DepthDuration/MX_fS_VE_MTurk/MX_fS_HTML.html#37,37,980,1791,360,800,0-31-2024,22-13-20,21,VR_target_stimuli/s46_1x_2.42_348.png,250,1x,2.42,0,10027,249,meters,jsons/MX_seq27_1_VE250_flipped.json,415092,831897,30,Man
21,550860,final-intermixed-textured,v2,jsons/MX_seq27_1_VE250_flipped.json,http://54.235.29.9/FacialAge/BNav_EC2/DepthDuration/MX_fS_VE_MTurk/MX_fS_HTML.html#37,37,980,1791,360,800,0-31-2024,22-13-20,22,VR_target_stimuli/s22_1.3x_4.29_364.png,250,1.3x,4.29,0,5005,250,meters,jsons/MX_seq27_1_VE250_flipped.json,415092,831897,30,Man
22,550860,final-intermixed-textured,v2,jsons/MX_seq27_1_VE250_flipped.json,http://54.235.29.9/FacialAge/BNav_EC2/DepthDuration/MX_fS_VE_MTurk/MX_fS_HTML.html#37,37,980,1791,360,800,0-31-2024,22-13-20,23,VR_target_stimuli/s42_0.75x_3.2_301.png,250,0.75x,3.2,0,4939,250,meters,jsons/MX_seq27_1_VE250_flipped.json,415092,831897,30,Man
23,550860,final-intermixed-textured,v2,jsons/MX_seq27_1_VE250_flipped.json,http://54.235.29.9/FacialAge/BNav_EC2/DepthDuration/MX_fS_VE_MTurk/MX_fS_HTML.html#37,37,980,1791,360,800,0-31-2024,22-13-20,24,VR_target_stimuli/s25_1.3x_1.4_299_BC.png,250,1.3x,1.4,3,5022,250,meters,jsons/MX_seq27_1_VE250_flipped.json,415092,831897,30,Man
24,550860,final-intermixed-textured,v2,jsons/MX_seq27_1_VE250_flipped.json,http://54.235.29.9/FacialAge/BNav_EC2/DepthDuration/MX_fS_VE_MTurk/MX_fS_HTML.html#37,37,980,1791,360,800,0-31-2024,22-13-20,25,VR_target_stimuli/s50_1x_4.53_518_BC.png,250,1x,4.53,3,5174,250,meters,jsons/MX_seq27_1_VE250_flipped.json,415092,831897,30,Man
25,550860,final-intermixed-textured,v2,jsons/MX_seq27_1_VE250_flipped.json,http://54.235.29.9/FacialAge/BNav_EC2/DepthDuration/MX_fS_VE_MTurk/MX_fS_HTML.html#37,37,980,1791,360,800,0-31-2024,22-13-20,26,catch_stimuli/c2_BC.png,250,,,1,6865,249,meters,jsons/MX_seq27_1_VE250_flipped.json,415092,831897,30,Man
26,550860,final-intermixed-textured,v2,jsons/MX_seq27_1_VE250_flipped.json,http://54.235.29.9/FacialAge/BNav_EC2/DepthDuration/MX_fS_VE_MTurk/MX_fS_HTML.html#37,37,980,1791,360,800,0-31-2024,22-13-20,27,VR_target_stimuli/s53_0.75x_1.6_403_BC.png,250,0.75x,1.6,3,5025,249,meters,jsons/MX_seq27_1_VE250_flipped.json,415092,831897,30,Man
27,550860,final-intermixed-textured,v2,jsons/MX_seq27_1_VE250_flipped.json,http://54.235.29.9/FacialAge/BNav_EC2/DepthDuration/MX_fS_VE_MTurk/MX_fS_HTML.html#37,37,980,1791,360,800,0-31-2024,22-13-20,28,VR_target_stimuli/s38_0.75x_3.55_346.png,250,0.75x,3.55,2,4603,248,meters,jsons/MX_seq27_1_VE250_flipped.json,415092,831897,30,Man
28,550860,final-intermixed-textured,v2,jsons/MX_seq27_1_VE250_flipped.json,http://54.235.29.9/FacialAge/BNav_EC2/DepthDuration/MX_fS_VE_MTurk/MX_fS_HTML.html#37,37,980,1791,360,800,0-31-2024,22-13-20,29,VR_target_stimuli/s9_1.3x_1.2_276_BC.png,250,1.3x,1.2,1,4958,250,meters,jsons/MX_seq27_1_VE250_flipped.json,415092,831897,30,Man
29,550860,final-intermixed-textured,v2,jsons/MX_seq27_1_VE250_flipped.json,http://54.235.29.9/FacialAge/BNav_EC2/DepthDuration/MX_fS_VE_MTurk/MX_fS_HTML.html#37,37,980,1791,360,800,0-31-2024,22-13-20,30,VR_target_stimuli/s44_1x_4.4_317.png,250,1x,4.4,1,5025,249,meters,jsons/MX_seq27_1_VE250_flipped.json,415092,831897,30,Man
30,550860,final-intermixed-textured,v2,jsons/MX_seq27_1_VE250_flipped.json,http://54.235.29.9/FacialAge/BNav_EC2/DepthDuration/MX_fS_VE_MTurk/MX_fS_HTML.html#37,37,980,1791,360,800,0-31-2024,22-13-20,31,VR_target_stimuli/s3_0.75x_5_381_BC.png,250,0.75x,5.0,3,4863,250,meters,jsons/MX_seq27_1_VE250_flipped.json,415092,831897,30,Man
31,550860,final-intermixed-textured,v2,jsons/MX_seq27_1_VE250_flipped.json,http://54.235.29.9/FacialAge/BNav_EC2/DepthDuration/MX_fS_VE_MTurk/MX_fS_HTML.html#37,37,980,1791,360,800,0-31-2024,22-13-20,32,VR_target_stimuli/s1_1x_1.7_262_BC.png,250,1x,1.7,4,6369,249,meters,jsons/MX_seq27_1_VE250_flipped.json,415092,831897,30,Man
32,550860,final-intermixed-textured,v2,jsons/MX_seq27_1_VE250_flipped.json,http://54.235.29.9/FacialAge/BNav_EC2/DepthDuration/MX_fS_VE_MTurk/MX_fS_HTML.html#37,37,980,1791,360,800,0-31-2024,22-13-20,33,VR_target_stimuli/s11_1.3x_5_363.png,250,1.3x,5.0,2,11981,250,meters,jsons/MX_seq27_1_VE250_flipped.json,415092,831897,30,Man
33,550860,final-intermixed-textured,v2,jsons/MX_seq27_1_VE250_flipped.json,http://54.235.29.9/FacialAge/BNav_EC2/DepthDuration/MX_fS_VE_MTurk/MX_fS_HTML.html#37,37,980,1791,360,800,0-31-2024,22-13-20,34,catch_stimuli/c3_BC.png,250,,,3,7100,249,meters,jsons/MX_seq27_1_VE250_flipped.json,415092,831897,30,Man
34,550860,final-intermixed-textured,v2,jsons/MX_seq27_1_VE250_flipped.json,http://54.235.29.9/FacialAge/BNav_EC2/DepthDuration/MX_fS_VE_MTurk/MX_fS_HTML.html#37,37,980,1791,360,800,0-31-2024,22-13-20,35,VR_target_stimuli/s2_1x_2.7_390_BC.png,250,1x,2.7,2,5256,250,meters,jsons/MX_seq27_1_VE250_flipped.json,415092,831897,30,Man
35,550860,final-intermixed-textured,v2,jsons/MX_seq27_1_VE250_flipped.json,http://54.235.29.9/FacialAge/BNav_EC2/DepthDuration/MX_fS_VE_MTurk/MX_fS_HTML.html#37,37,980,1791,360,800,0-31-2024,22-13-20,36,VR_target_stimuli/s6_0.75x_2.1_290.png,250,0.75x,2.1,2,5119,250,meters,jsons/MX_seq27_1_VE250_flipped.json,415092,831897,30,Man
36,550860,final-intermixed-textured,v2,jsons/MX_seq27_1_VE250_flipped.json,http://54.235.29.9/FacialAge/BNav_EC2/DepthDuration/MX_fS_VE_MTurk/MX_fS_HTML.html#37,37,980,1791,360,800,0-31-2024,22-13-20,37,VR_target_stimuli/s0_1.3x_2.6_356.png,250,1.3x,2.6,0,5900,249,meters,jsons/MX_seq27_1_VE250_flipped.json,415092,831897,30,Man
37,550860,final-intermixed-textured,v2,jsons/MX_seq27_1_VE250_flipped.json,http://54.235.29.9/FacialAge/BNav_EC2/DepthDuration/MX_fS_VE_MTurk/MX_fS_HTML.html#37,37,980,1791,360,800,0-31-2024,22-13-20,38,VR_target_stimuli/s34_1.3x_2.8_294_BC.png,250,1.3x,2.8,0,8297,249,meters,jsons/MX_seq27_1_VE250_flipped.json,415092,831897,30,Man
38,550860,final-intermixed-textured,v2,jsons/MX_seq27_1_VE250_flipped.json,http://54.235.29.9/FacialAge/BNav_EC2/DepthDuration/MX_fS_VE_MTurk/MX_fS_HTML.html#37,37,980,1791,360,800,0-31-2024,22-13-20,39,VR_target_stimuli/s13_1x_2.4_310.png,250,1x,2.4,2,5388,249,meters,jsons/MX_seq27_1_VE250_flipped.json,415092,831897,30,Man
39,550860,final-intermixed-textured,v2,jsons/MX_seq27_1_VE250_flipped.json,http://54.235.29.9/FacialAge/BNav_EC2/DepthDuration/MX_fS_VE_MTurk/MX_fS_HTML.html#37,37,980,1791,360,800,0-31-2024,22-13-20,40,VR_target_stimuli/s14_0.75x_3.83_355_BC.png,250,0.75x,3.83,2,4804,249,meters,jsons/MX_seq27_1_VE250_flipped.json,415092,831897,30,Man
40,550860,final-intermixed-textured,v2,jsons/MX_seq27_1_VE250_flipped.json,http://54.235.29.9/FacialAge/BNav_EC2/DepthDuration/MX_fS_VE_MTurk/MX_fS_HTML.html#37,37,980,1791,360,800,0-31-2024,22-13-20,41,VR_target_stimuli/s47_1x_3.45_370.png,250,1x,3.45,1,8140,249,meters,jsons/MX_seq27_1_VE250_flipped.json,415092,831897,30,Man
41,550860,final-intermixed-textured,v2,jsons/MX_seq27_1_VE250_flipped.json,http://54.235.29.9/FacialAge/BNav_EC2/DepthDuration/MX_fS_VE_MTurk/MX_fS_HTML.html#37,37,980,1791,360,800,0-31-2024,22-13-20,42,VR_target_stimuli/s29_1.3x_1.3_253.png,250,1.3x,1.3,2,5315,249,meters,jsons/MX_seq27_1_VE250_flipped.json,415092,831897,30,Man
42,550860,final-intermixed-textured,v2,jsons/MX_seq27_1_VE250_flipped.json,http://54.235.29.9/FacialAge/BNav_EC2/DepthDuration/MX_fS_VE_MTurk/MX_fS_HTML.html#37,37,980,1791,360,800,0-31-2024,22-13-20,43,VR_target_stimuli/s28_0.75x_3.2_357.png,250,0.75x,3.2,1,5419,248,meters,jsons/MX_seq27_1_VE250_flipped.json,415092,831897,30,Man
43,550860,final-intermixed-textured,v2,jsons/MX_seq27_1_VE250_flipped.json,http://54.235.29.9/FacialAge/BNav_EC2/DepthDuration/MX_fS_VE_MTurk/MX_fS_HTML.html#37,37,980,1791,360,800,0-31-2024,22-13-20,44,VR_target_stimuli/s48_1.3x_2.55_255_BC.png,250,1.3x,2.55,0,5835,250,meters,jsons/MX_seq27_1_VE250_flipped.json,415092,831897,30,Man
44,550860,final-intermixed-textured,v2,jsons/MX_seq27_1_VE250_flipped.json,http://54.235.29.9/FacialAge/BNav_EC2/DepthDuration/MX_fS_VE_MTurk/MX_fS_HTML.html#37,37,980,1791,360,800,0-31-2024,22-13-20,45,catch_stimuli/c4_BC.png,250,,,2,5622,249,meters,jsons/MX_seq27_1_VE250_flipped.json,415092,831897,30,Man
45,550860,final-intermixed-textured,v2,jsons/MX_seq27_1_VE250_flipped.json,http://54.235.29.9/FacialAge/BNav_EC2/DepthDuration/MX_fS_VE_MTurk/MX_fS_HTML.html#37,37,980,1791,360,800,0-31-2024,22-13-20,46,VR_target_stimuli/s19_1x_1.21_263_BC.png,250,1x,1.21,2,4871,249,meters,jsons/MX_seq27_1_VE250_flipped.json,415092,831897,30,Man
46,550860,final-intermixed-textured,v2,jsons/MX_seq27_1_VE250_flipped.json,http://54.235.29.9/FacialAge/BNav_EC2/DepthDuration/MX_fS_VE_MTurk/MX_fS_HTML.html#37,37,980,1791,360,800,0-31-2024,22-13-20,47,VR_target_stimuli/s21_0.75x_4.22_374_BC.png,250,0.75x,4.22,1,5070,249,meters,jsons/MX_seq27_1_VE250_flipped.json,415092,831897,30,Man
47,550860,final-intermixed-textured,v2,jsons/MX_seq27_1_VE250_flipped.json,http://54.235.29.9/FacialAge/BNav_EC2/DepthDuration/MX_fS_VE_MTurk/MX_fS_HTML.html#37,37,980,1791,360,800,0-31-2024,22-13-20,48,VR_target_stimuli/s8_0.75x_3.1_325_BC.png,250,0.75x,3.1,3,8019,250,meters,jsons/MX_seq27_1_VE250_flipped.json,415092,831897,30,Man
48,550860,final-intermixed-textured,v2,jsons/MX_seq27_1_VE250_flipped.json,http://54.235.29.9/FacialAge/BNav_EC2/DepthDuration/MX_fS_VE_MTurk/MX_fS_HTML.html#37,37,980,1791,360,800,0-31-2024,22-13-20,49,VR_target_stimuli/s27_1.3x_1.76_250.png,250,1.3x,1.76,1,7000,249,meters,jsons/MX_seq27_1_VE250_flipped.json,415092,831897,30,Man
49,550860,final-intermixed-textured,v2,jsons/MX_seq27_1_VE250_flipped.json,http://54.235.29.9/FacialAge/BNav_EC2/DepthDuration/MX_fS_VE_MTurk/MX_fS_HTML.html#37,37,980,1791,360,800,0-31-2024,22-13-20,50,VR_target_stimuli/s15_1x_4.2_390_BC.png,250,1x,4.2,2,5654,249,meters,jsons/MX_seq27_1_VE250_flipped.json,415092,831897,30,Man
50,550860,final-intermixed-textured,v2,jsons/MX_seq27_1_VE250_flipped.json,http://54.235.29.9/FacialAge/BNav_EC2/DepthDuration/MX_fS_VE_MTurk/MX_fS_HTML.html#37,37,980,1791,360,800,0-31-2024,22-13-20,51,VR_target_stimuli/s4_1.3x_1.4_328_BC.png,250,1.3x,1.4,1,4839,249,meters,jsons/MX_seq27_1_VE250_flipped.json,415092,831897,30,Man
51,550860,final-intermixed-textured,v2,jsons/MX_seq27_1_VE250_flipped.json,http://54.235.29.9/FacialAge/BNav_EC2/DepthDuration/MX_fS_VE_MTurk/MX_fS_HTML.html#37,37,980,1791,360,800,0-31-2024,22-13-20,52,VR_target_stimuli/s35_0.75x_2_323.png,250,0.75x,2.0,3,5058,249,meters,jsons/MX_seq27_1_VE250_flipped.json,415092,831897,30,Man
52,550860,final-intermixed-textured,v2,jsons/MX_seq27_1_VE250_flipped.json,http://54.235.29.9/FacialAge/BNav_EC2/DepthDuration/MX_fS_VE_MTurk/MX_fS_HTML.html#37,37,980,1791,360,800,0-31-2024,22-13-20,53,catch_stimuli/c5_BC.png,250,,,3,4864,250,meters,jsons/MX_seq27_1_VE250_flipped.json,415092,831897,30,Man
53,550860,final-intermixed-textured,v2,jsons/MX_seq27_1_VE250_flipped.json,http://54.235.29.9/FacialAge/BNav_EC2/DepthDuration/MX_fS_VE_MTurk/MX_fS_HTML.html#37,37,980,1791,360,800,0-31-2024,22-13-20,54,VR_target_stimuli/s49_1x_4.67_341.png,250,1x,4.67,5,8205,248,meters,jsons/MX_seq27_1_VE250_flipped.json,415092,831897,30,Man
54,550860,final-intermixed-textured,v2,jsons/MX_seq27_1_VE250_flipped.json,http://54.235.29.9/FacialAge/BNav_EC2/DepthDuration/MX_fS_VE_MTurk/MX_fS_HTML.html#37,37,980,1791,360,800,0-31-2024,22-13-20,55,VR_target_stimuli/s7_0.75x_1.5_253.png,250,0.75x,1.5,2,6464,249,meters,jsons/MX_seq27_1_VE250_flipped.json,415092,831897,30,Man
55,550860,final-intermixed-textured,v2,jsons/MX_seq27_1_VE250_flipped.json,http://54.235.29.9/FacialAge/BNav_EC2/DepthDuration/MX_fS_VE_MTurk/MX_fS_HTML.html#37,37,980,1791,360,800,0-31-2024,22-13-20,56,VR_target_stimuli/s20_1.3x_4.99_412.png,250,1.3x,4.99,2,6104,263,meters,jsons/MX_seq27_1_VE250_flipped.json,415092,831897,30,Man
56,550860,final-intermixed-textured,v2,jsons/MX_seq27_1_VE250_flipped.json,http://54.235.29.9/FacialAge/BNav_EC2/DepthDuration/MX_fS_VE_MTurk/MX_fS_HTML.html#37,37,980,1791,360,800,0-31-2024,22-13-20,57,VR_target_stimuli/s31_1x_4.96_333_BC.png,250,1x,4.96,0,6036,249,meters,jsons/MX_seq27_1_VE250_flipped.json,415092,831897,30,Man
57,550860,final-intermixed-textured,v2,jsons/MX_seq27_1_VE250_flipped.json,http://54.235.29.9/FacialAge/BNav_EC2/DepthDuration/MX_fS_VE_MTurk/MX_fS_HTML.html#37,37,980,1791,360,800,0-31-2024,22-13-20,58,VR_target_stimuli/s33_1x_3.1_366.png,250,1x,3.1,2,5871,248,meters,jsons/MX_seq27_1_VE250_flipped.json,415092,831897,30,Man
58,550860,final-intermixed-textured,v2,jsons/MX_seq27_1_VE250_flipped.json,http://54.235.29.9/FacialAge/BNav_EC2/DepthDuration/MX_fS_VE_MTurk/MX_fS_HTML.html#37,37,980,1791,360,800,0-31-2024,22-13-20,59,VR_target_stimuli/s52_0.75x_3.2_270_BC.png,250,0.75x,3.2,1,5999,249,meters,jsons/MX_seq27_1_VE250_flipped.json,415092,831897,30,Man
59,550860,final-intermixed-textured,v2,jsons/MX_seq27_1_VE250_flipped.json,http://54.235.29.9/FacialAge/BNav_EC2/DepthDuration/MX_fS_VE_MTurk/MX_fS_HTML.html#37,37,980,1791,360,800,0-31-2024,22-13-20,60,VR_target_stimuli/s32_1.3x_1.5_224_BC.png,250,1.3x,1.5,2,6288,249,meters,jsons/MX_seq27_1_VE250_flipped.json,415092,831897,30,Man
