,subjID,experimentName,versionName,sequenceName,url,selected_row,windowWidth,windowHeight,screenWidth,screenHeight,startDate,startTime,trial,stimulus,duration,scale,actual_depth,depth_estimate,trial_RT,log_sceneDuration,unitSelection,seq_filepath,experimentTime,totalTime,age,gender
0,559361,final-intermixed-textured,v2,jsons/MX_seq31_1_VE250.json,http://54.235.29.9/FacialAge/BNav_EC2/DepthDuration/MX_fS_VE_MTurk/MX_fS_HTML.html#265,265,1920,1080,1920,1080,0-31-2024,19-10-9,1,VR_target_stimuli/s24_1.3x_3.3_352_BC.png,250,1.3x,3.3,3.0,3094,253,meters,jsons/MX_seq31_1_VE250.json,284436,758607,18,Man
1,559361,final-intermixed-textured,v2,jsons/MX_seq31_1_VE250.json,http://54.235.29.9/FacialAge/BNav_EC2/DepthDuration/MX_fS_VE_MTurk/MX_fS_HTML.html#265,265,1920,1080,1920,1080,0-31-2024,19-10-9,2,VR_target_stimuli/s10_0.75x_2.7_321.png,250,0.75x,2.7,2.0,34554,249,meters,jsons/MX_seq31_1_VE250.json,284436,758607,18,Man
2,559361,final-intermixed-textured,v2,jsons/MX_seq31_1_VE250.json,http://54.235.29.9/FacialAge/BNav_EC2/DepthDuration/MX_fS_VE_MTurk/MX_fS_HTML.html#265,265,1920,1080,1920,1080,0-31-2024,19-10-9,3,VR_target_stimuli/s36_1x_4.1_423_BC.png,250,1x,4.1,3.0,3051,251,meters,jsons/MX_seq31_1_VE250.json,284436,758607,18,Man
3,559361,final-intermixed-textured,v2,jsons/MX_seq31_1_VE250.json,http://54.235.29.9/FacialAge/BNav_EC2/DepthDuration/MX_fS_VE_MTurk/MX_fS_HTML.html#265,265,1920,1080,1920,1080,0-31-2024,19-10-9,4,VR_target_stimuli/s40_0.75x_1.2_308_BC.png,250,0.75x,1.2,0.8,11557,242,meters,jsons/MX_seq31_1_VE250.json,284436,758607,18,Man
4,559361,final-intermixed-textured,v2,jsons/MX_seq31_1_VE250.json,http://54.235.29.9/FacialAge/BNav_EC2/DepthDuration/MX_fS_VE_MTurk/MX_fS_HTML.html#265,265,1920,1080,1920,1080,0-31-2024,19-10-9,5,VR_target_stimuli/s41_1.3x_2.1_294.png,250,1.3x,2.1,1.3,11284,250,meters,jsons/MX_seq31_1_VE250.json,284436,758607,18,Man
5,559361,final-intermixed-textured,v2,jsons/MX_seq31_1_VE250.json,http://54.235.29.9/FacialAge/BNav_EC2/DepthDuration/MX_fS_VE_MTurk/MX_fS_HTML.html#265,265,1920,1080,1920,1080,0-31-2024,19-10-9,6,VR_target_stimuli/s45_1x_3.5_368.png,250,1x,3.5,2.8,4724,252,meters,jsons/MX_seq31_1_VE250.json,284436,758607,18,Man
6,559361,final-intermixed-textured,v2,jsons/MX_seq31_1_VE250.json,http://54.235.29.9/FacialAge/BNav_EC2/DepthDuration/MX_fS_VE_MTurk/MX_fS_HTML.html#265,265,1920,1080,1920,1080,0-31-2024,19-10-9,7,catch_stimuli/c0.png,250,,,0.0,2804,251,meters,jsons/MX_seq31_1_VE250.json,284436,758607,18,Man
7,559361,final-intermixed-textured,v2,jsons/MX_seq31_1_VE250.json,http://54.235.29.9/FacialAge/BNav_EC2/DepthDuration/MX_fS_VE_MTurk/MX_fS_HTML.html#265,265,1920,1080,1920,1080,0-31-2024,19-10-9,8,VR_target_stimuli/s23_1x_3.65_353_BC.png,250,1x,3.65,2.2,5524,252,meters,jsons/MX_seq31_1_VE250.json,284436,758607,18,Man
8,559361,final-intermixed-textured,v2,jsons/MX_seq31_1_VE250.json,http://54.235.29.9/FacialAge/BNav_EC2/DepthDuration/MX_fS_VE_MTurk/MX_fS_HTML.html#265,265,1920,1080,1920,1080,0-31-2024,19-10-9,9,VR_target_stimuli/s26_0.75x_4_430_BC.png,250,0.75x,4.0,2.7,8709,250,meters,jsons/MX_seq31_1_VE250.json,284436,758607,18,Man
9,559361,final-intermixed-textured,v2,jsons/MX_seq31_1_VE250.json,http://54.235.29.9/FacialAge/BNav_EC2/DepthDuration/MX_fS_VE_MTurk/MX_fS_HTML.html#265,265,1920,1080,1920,1080,0-31-2024,19-10-9,10,VR_target_stimuli/s12_1.3x_3.1_375_BC.png,250,1.3x,3.1,2.5,3993,253,meters,jsons/MX_seq31_1_VE250.json,284436,758607,18,Man
10,559361,final-intermixed-textured,v2,jsons/MX_seq31_1_VE250.json,http://54.235.29.9/FacialAge/BNav_EC2/DepthDuration/MX_fS_VE_MTurk/MX_fS_HTML.html#265,265,1920,1080,1920,1080,0-31-2024,19-10-9,11,VR_target_stimuli/s30_0.75x_2.3_332.png,250,0.75x,2.3,3.0,2637,250,meters,jsons/MX_seq31_1_VE250.json,284436,758607,18,Man
11,559361,final-intermixed-textured,v2,jsons/MX_seq31_1_VE250.json,http://54.235.29.9/FacialAge/BNav_EC2/DepthDuration/MX_fS_VE_MTurk/MX_fS_HTML.html#265,265,1920,1080,1920,1080,0-31-2024,19-10-9,12,VR_target_stimuli/s16_1x_1_219.png,250,1x,1.0,1.2,3433,247,meters,jsons/MX_seq31_1_VE250.json,284436,758607,18,Man
12,559361,final-intermixed-textured,v2,jsons/MX_seq31_1_VE250.json,http://54.235.29.9/FacialAge/BNav_EC2/DepthDuration/MX_fS_VE_MTurk/MX_fS_HTML.html#265,265,1920,1080,1920,1080,0-31-2024,19-10-9,13,VR_target_stimuli/s17_1.3x_1.8_300.png,250,1.3x,1.8,1.8,3654,248,meters,jsons/MX_seq31_1_VE250.json,284436,758607,18,Man
13,559361,final-intermixed-textured,v2,jsons/MX_seq31_1_VE250.json,http://54.235.29.9/FacialAge/BNav_EC2/DepthDuration/MX_fS_VE_MTurk/MX_fS_HTML.html#265,265,1920,1080,1920,1080,0-31-2024,19-10-9,14,VR_target_stimuli/s5_1x_4_378.png,250,1x,4.0,4.0,2428,254,meters,jsons/MX_seq31_1_VE250.json,284436,758607,18,Man
14,559361,final-intermixed-textured,v2,jsons/MX_seq31_1_VE250.json,http://54.235.29.9/FacialAge/BNav_EC2/DepthDuration/MX_fS_VE_MTurk/MX_fS_HTML.html#265,265,1920,1080,1920,1080,0-31-2024,19-10-9,15,VR_target_stimuli/s37_0.75x_3.3_567_BC.png,250,0.75x,3.3,2.7,3847,250,meters,jsons/MX_seq31_1_VE250.json,284436,758607,18,Man
15,559361,final-intermixed-textured,v2,jsons/MX_seq31_1_VE250.json,http://54.235.29.9/FacialAge/BNav_EC2/DepthDuration/MX_fS_VE_MTurk/MX_fS_HTML.html#265,265,1920,1080,1920,1080,0-31-2024,19-10-9,16,VR_target_stimuli/s46_1.3x_2.42_354_BC.png,250,1.3x,2.42,2.3,5641,254,meters,jsons/MX_seq31_1_VE250.json,284436,758607,18,Man
16,559361,final-intermixed-textured,v2,jsons/MX_seq31_1_VE250.json,http://54.235.29.9/FacialAge/BNav_EC2/DepthDuration/MX_fS_VE_MTurk/MX_fS_HTML.html#265,265,1920,1080,1920,1080,0-31-2024,19-10-9,17,catch_stimuli/c1.png,250,,,0.0,2496,252,meters,jsons/MX_seq31_1_VE250.json,284436,758607,18,Man
17,559361,final-intermixed-textured,v2,jsons/MX_seq31_1_VE250.json,http://54.235.29.9/FacialAge/BNav_EC2/DepthDuration/MX_fS_VE_MTurk/MX_fS_HTML.html#265,265,1920,1080,1920,1080,0-31-2024,19-10-9,18,VR_target_stimuli/s22_1.3x_4.29_364.png,250,1.3x,4.29,3.4,3655,251,meters,jsons/MX_seq31_1_VE250.json,284436,758607,18,Man
18,559361,final-intermixed-textured,v2,jsons/MX_seq31_1_VE250.json,http://54.235.29.9/FacialAge/BNav_EC2/DepthDuration/MX_fS_VE_MTurk/MX_fS_HTML.html#265,265,1920,1080,1920,1080,0-31-2024,19-10-9,19,VR_target_stimuli/s42_1x_3.2_303_BC.png,250,1x,3.2,3.6,4400,248,meters,jsons/MX_seq31_1_VE250.json,284436,758607,18,Man
19,559361,final-intermixed-textured,v2,jsons/MX_seq31_1_VE250.json,http://54.235.29.9/FacialAge/BNav_EC2/DepthDuration/MX_fS_VE_MTurk/MX_fS_HTML.html#265,265,1920,1080,1920,1080,0-31-2024,19-10-9,20,VR_target_stimuli/s25_0.75x_1.4_281.png,250,0.75x,1.4,1.3,3313,250,meters,jsons/MX_seq31_1_VE250.json,284436,758607,18,Man
20,559361,final-intermixed-textured,v2,jsons/MX_seq31_1_VE250.json,http://54.235.29.9/FacialAge/BNav_EC2/DepthDuration/MX_fS_VE_MTurk/MX_fS_HTML.html#265,265,1920,1080,1920,1080,0-31-2024,19-10-9,21,VR_target_stimuli/s50_1x_4.53_518_BC.png,250,1x,4.53,2.5,3351,244,meters,jsons/MX_seq31_1_VE250.json,284436,758607,18,Man
21,559361,final-intermixed-textured,v2,jsons/MX_seq31_1_VE250.json,http://54.235.29.9/FacialAge/BNav_EC2/DepthDuration/MX_fS_VE_MTurk/MX_fS_HTML.html#265,265,1920,1080,1920,1080,0-31-2024,19-10-9,22,VR_target_stimuli/s53_1.3x_1.6_355.png,250,1.3x,1.6,0.5,3424,248,meters,jsons/MX_seq31_1_VE250.json,284436,758607,18,Man
22,559361,final-intermixed-textured,v2,jsons/MX_seq31_1_VE250.json,http://54.235.29.9/FacialAge/BNav_EC2/DepthDuration/MX_fS_VE_MTurk/MX_fS_HTML.html#265,265,1920,1080,1920,1080,0-31-2024,19-10-9,23,VR_target_stimuli/s38_0.75x_3.55_346_BC.png,250,0.75x,3.55,3.1,3731,257,meters,jsons/MX_seq31_1_VE250.json,284436,758607,18,Man
23,559361,final-intermixed-textured,v2,jsons/MX_seq31_1_VE250.json,http://54.235.29.9/FacialAge/BNav_EC2/DepthDuration/MX_fS_VE_MTurk/MX_fS_HTML.html#265,265,1920,1080,1920,1080,0-31-2024,19-10-9,24,VR_target_stimuli/s9_1.3x_1.2_276_BC.png,250,1.3x,1.2,0.7,5409,256,meters,jsons/MX_seq31_1_VE250.json,284436,758607,18,Man
24,559361,final-intermixed-textured,v2,jsons/MX_seq31_1_VE250.json,http://54.235.29.9/FacialAge/BNav_EC2/DepthDuration/MX_fS_VE_MTurk/MX_fS_HTML.html#265,265,1920,1080,1920,1080,0-31-2024,19-10-9,25,VR_target_stimuli/s44_1x_4.4_317.png,250,1x,4.4,4.0,3195,252,meters,jsons/MX_seq31_1_VE250.json,284436,758607,18,Man
25,559361,final-intermixed-textured,v2,jsons/MX_seq31_1_VE250.json,http://54.235.29.9/FacialAge/BNav_EC2/DepthDuration/MX_fS_VE_MTurk/MX_fS_HTML.html#265,265,1920,1080,1920,1080,0-31-2024,19-10-9,26,catch_stimuli/c2.png,250,,,0.0,2378,249,meters,jsons/MX_seq31_1_VE250.json,284436,758607,18,Man
26,559361,final-intermixed-textured,v2,jsons/MX_seq31_1_VE250.json,http://54.235.29.9/FacialAge/BNav_EC2/DepthDuration/MX_fS_VE_MTurk/MX_fS_HTML.html#265,265,1920,1080,1920,1080,0-31-2024,19-10-9,27,VR_target_stimuli/s3_0.75x_5_381.png,250,0.75x,5.0,4.6,3437,254,meters,jsons/MX_seq31_1_VE250.json,284436,758607,18,Man
27,559361,final-intermixed-textured,v2,jsons/MX_seq31_1_VE250.json,http://54.235.29.9/FacialAge/BNav_EC2/DepthDuration/MX_fS_VE_MTurk/MX_fS_HTML.html#265,265,1920,1080,1920,1080,0-31-2024,19-10-9,28,VR_target_stimuli/s1_0.75x_1.7_265_BC.png,250,0.75x,1.7,0.9,3228,239,meters,jsons/MX_seq31_1_VE250.json,284436,758607,18,Man
28,559361,final-intermixed-textured,v2,jsons/MX_seq31_1_VE250.json,http://54.235.29.9/FacialAge/BNav_EC2/DepthDuration/MX_fS_VE_MTurk/MX_fS_HTML.html#265,265,1920,1080,1920,1080,0-31-2024,19-10-9,29,VR_target_stimuli/s11_1.3x_5_363.png,250,1.3x,5.0,4.2,3348,251,meters,jsons/MX_seq31_1_VE250.json,284436,758607,18,Man
29,559361,final-intermixed-textured,v2,jsons/MX_seq31_1_VE250.json,http://54.235.29.9/FacialAge/BNav_EC2/DepthDuration/MX_fS_VE_MTurk/MX_fS_HTML.html#265,265,1920,1080,1920,1080,0-31-2024,19-10-9,30,VR_target_stimuli/s2_1x_2.7_390_BC.png,250,1x,2.7,2.0,2964,250,meters,jsons/MX_seq31_1_VE250.json,284436,758607,18,Man
30,559361,final-intermixed-textured,v2,jsons/MX_seq31_1_VE250.json,http://54.235.29.9/FacialAge/BNav_EC2/DepthDuration/MX_fS_VE_MTurk/MX_fS_HTML.html#265,265,1920,1080,1920,1080,0-31-2024,19-10-9,31,VR_target_stimuli/s6_0.75x_2.1_290.png,250,0.75x,2.1,1.7,3555,257,meters,jsons/MX_seq31_1_VE250.json,284436,758607,18,Man
31,559361,final-intermixed-textured,v2,jsons/MX_seq31_1_VE250.json,http://54.235.29.9/FacialAge/BNav_EC2/DepthDuration/MX_fS_VE_MTurk/MX_fS_HTML.html#265,265,1920,1080,1920,1080,0-31-2024,19-10-9,32,VR_target_stimuli/s0_1x_2.6_351.png,250,1x,2.6,2.3,3322,248,meters,jsons/MX_seq31_1_VE250.json,284436,758607,18,Man
32,559361,final-intermixed-textured,v2,jsons/MX_seq31_1_VE250.json,http://54.235.29.9/FacialAge/BNav_EC2/DepthDuration/MX_fS_VE_MTurk/MX_fS_HTML.html#265,265,1920,1080,1920,1080,0-31-2024,19-10-9,33,VR_target_stimuli/s34_1.3x_2.8_294_BC.png,250,1.3x,2.8,2.1,3820,262,meters,jsons/MX_seq31_1_VE250.json,284436,758607,18,Man
33,559361,final-intermixed-textured,v2,jsons/MX_seq31_1_VE250.json,http://54.235.29.9/FacialAge/BNav_EC2/DepthDuration/MX_fS_VE_MTurk/MX_fS_HTML.html#265,265,1920,1080,1920,1080,0-31-2024,19-10-9,34,catch_stimuli/c3.png,250,,,0.0,2543,251,meters,jsons/MX_seq31_1_VE250.json,284436,758607,18,Man
34,559361,final-intermixed-textured,v2,jsons/MX_seq31_1_VE250.json,http://54.235.29.9/FacialAge/BNav_EC2/DepthDuration/MX_fS_VE_MTurk/MX_fS_HTML.html#265,265,1920,1080,1920,1080,0-31-2024,19-10-9,35,VR_target_stimuli/s13_1x_2.4_310_BC.png,250,1x,2.4,1.8,3198,247,meters,jsons/MX_seq31_1_VE250.json,284436,758607,18,Man
35,559361,final-intermixed-textured,v2,jsons/MX_seq31_1_VE250.json,http://54.235.29.9/FacialAge/BNav_EC2/DepthDuration/MX_fS_VE_MTurk/MX_fS_HTML.html#265,265,1920,1080,1920,1080,0-31-2024,19-10-9,36,VR_target_stimuli/s14_0.75x_3.83_355_BC.png,250,0.75x,3.83,3.3,2957,247,meters,jsons/MX_seq31_1_VE250.json,284436,758607,18,Man
36,559361,final-intermixed-textured,v2,jsons/MX_seq31_1_VE250.json,http://54.235.29.9/FacialAge/BNav_EC2/DepthDuration/MX_fS_VE_MTurk/MX_fS_HTML.html#265,265,1920,1080,1920,1080,0-31-2024,19-10-9,37,VR_target_stimuli/s47_1.3x_3.45_373.png,250,1.3x,3.45,2.0,3711,257,meters,jsons/MX_seq31_1_VE250.json,284436,758607,18,Man
37,559361,final-intermixed-textured,v2,jsons/MX_seq31_1_VE250.json,http://54.235.29.9/FacialAge/BNav_EC2/DepthDuration/MX_fS_VE_MTurk/MX_fS_HTML.html#265,265,1920,1080,1920,1080,0-31-2024,19-10-9,38,VR_target_stimuli/s29_1.3x_1.3_253_BC.png,250,1.3x,1.3,0.9,2938,250,meters,jsons/MX_seq31_1_VE250.json,284436,758607,18,Man
38,559361,final-intermixed-textured,v2,jsons/MX_seq31_1_VE250.json,http://54.235.29.9/FacialAge/BNav_EC2/DepthDuration/MX_fS_VE_MTurk/MX_fS_HTML.html#265,265,1920,1080,1920,1080,0-31-2024,19-10-9,39,VR_target_stimuli/s28_1x_3.2_362.png,250,1x,3.2,1.9,5655,256,meters,jsons/MX_seq31_1_VE250.json,284436,758607,18,Man
39,559361,final-intermixed-textured,v2,jsons/MX_seq31_1_VE250.json,http://54.235.29.9/FacialAge/BNav_EC2/DepthDuration/MX_fS_VE_MTurk/MX_fS_HTML.html#265,265,1920,1080,1920,1080,0-31-2024,19-10-9,40,VR_target_stimuli/s48_0.75x_2.55_243.png,250,0.75x,2.55,3.0,3216,252,meters,jsons/MX_seq31_1_VE250.json,284436,758607,18,Man
40,559361,final-intermixed-textured,v2,jsons/MX_seq31_1_VE250.json,http://54.235.29.9/FacialAge/BNav_EC2/DepthDuration/MX_fS_VE_MTurk/MX_fS_HTML.html#265,265,1920,1080,1920,1080,0-31-2024,19-10-9,41,VR_target_stimuli/s19_1x_1.21_263.png,250,1x,1.21,0.7,3780,261,meters,jsons/MX_seq31_1_VE250.json,284436,758607,18,Man
41,559361,final-intermixed-textured,v2,jsons/MX_seq31_1_VE250.json,http://54.235.29.9/FacialAge/BNav_EC2/DepthDuration/MX_fS_VE_MTurk/MX_fS_HTML.html#265,265,1920,1080,1920,1080,0-31-2024,19-10-9,42,VR_target_stimuli/s21_1.3x_4.22_384.png,250,1.3x,4.22,3.0,2628,246,meters,jsons/MX_seq31_1_VE250.json,284436,758607,18,Man
42,559361,final-intermixed-textured,v2,jsons/MX_seq31_1_VE250.json,http://54.235.29.9/FacialAge/BNav_EC2/DepthDuration/MX_fS_VE_MTurk/MX_fS_HTML.html#265,265,1920,1080,1920,1080,0-31-2024,19-10-9,43,VR_target_stimuli/s8_0.75x_3.1_325.png,250,0.75x,3.1,2.7,2949,242,meters,jsons/MX_seq31_1_VE250.json,284436,758607,18,Man
43,559361,final-intermixed-textured,v2,jsons/MX_seq31_1_VE250.json,http://54.235.29.9/FacialAge/BNav_EC2/DepthDuration/MX_fS_VE_MTurk/MX_fS_HTML.html#265,265,1920,1080,1920,1080,0-31-2024,19-10-9,44,VR_target_stimuli/s27_1.3x_1.76_250_BC.png,250,1.3x,1.76,2.0,3014,255,meters,jsons/MX_seq31_1_VE250.json,284436,758607,18,Man
44,559361,final-intermixed-textured,v2,jsons/MX_seq31_1_VE250.json,http://54.235.29.9/FacialAge/BNav_EC2/DepthDuration/MX_fS_VE_MTurk/MX_fS_HTML.html#265,265,1920,1080,1920,1080,0-31-2024,19-10-9,45,catch_stimuli/c4.png,250,,,0.0,2675,257,meters,jsons/MX_seq31_1_VE250.json,284436,758607,18,Man
45,559361,final-intermixed-textured,v2,jsons/MX_seq31_1_VE250.json,http://54.235.29.9/FacialAge/BNav_EC2/DepthDuration/MX_fS_VE_MTurk/MX_fS_HTML.html#265,265,1920,1080,1920,1080,0-31-2024,19-10-9,46,VR_target_stimuli/s15_1x_4.2_390_BC.png,250,1x,4.2,3.0,2197,249,meters,jsons/MX_seq31_1_VE250.json,284436,758607,18,Man
46,559361,final-intermixed-textured,v2,jsons/MX_seq31_1_VE250.json,http://54.235.29.9/FacialAge/BNav_EC2/DepthDuration/MX_fS_VE_MTurk/MX_fS_HTML.html#265,265,1920,1080,1920,1080,0-31-2024,19-10-9,47,VR_target_stimuli/s4_0.75x_1.4_301_BC.png,250,0.75x,1.4,0.9,3116,249,meters,jsons/MX_seq31_1_VE250.json,284436,758607,18,Man
47,559361,final-intermixed-textured,v2,jsons/MX_seq31_1_VE250.json,http://54.235.29.9/FacialAge/BNav_EC2/DepthDuration/MX_fS_VE_MTurk/MX_fS_HTML.html#265,265,1920,1080,1920,1080,0-31-2024,19-10-9,48,VR_target_stimuli/s35_0.75x_2_323_BC.png,250,0.75x,2.0,1.0,2903,248,meters,jsons/MX_seq31_1_VE250.json,284436,758607,18,Man
48,559361,final-intermixed-textured,v2,jsons/MX_seq31_1_VE250.json,http://54.235.29.9/FacialAge/BNav_EC2/DepthDuration/MX_fS_VE_MTurk/MX_fS_HTML.html#265,265,1920,1080,1920,1080,0-31-2024,19-10-9,49,VR_target_stimuli/s49_1.3x_4.67_354_BC.png,250,1.3x,4.67,2.0,2629,248,meters,jsons/MX_seq31_1_VE250.json,284436,758607,18,Man
49,559361,final-intermixed-textured,v2,jsons/MX_seq31_1_VE250.json,http://54.235.29.9/FacialAge/BNav_EC2/DepthDuration/MX_fS_VE_MTurk/MX_fS_HTML.html#265,265,1920,1080,1920,1080,0-31-2024,19-10-9,50,VR_target_stimuli/s7_1x_1.5_255_BC.png,250,1x,1.5,1.0,3348,252,meters,jsons/MX_seq31_1_VE250.json,284436,758607,18,Man
50,559361,final-intermixed-textured,v2,jsons/MX_seq31_1_VE250.json,http://54.235.29.9/FacialAge/BNav_EC2/DepthDuration/MX_fS_VE_MTurk/MX_fS_HTML.html#265,265,1920,1080,1920,1080,0-31-2024,19-10-9,51,VR_target_stimuli/s20_1.3x_4.99_412.png,250,1.3x,4.99,2.4,2979,250,meters,jsons/MX_seq31_1_VE250.json,284436,758607,18,Man
51,559361,final-intermixed-textured,v2,jsons/MX_seq31_1_VE250.json,http://54.235.29.9/FacialAge/BNav_EC2/DepthDuration/MX_fS_VE_MTurk/MX_fS_HTML.html#265,265,1920,1080,1920,1080,0-31-2024,19-10-9,52,VR_target_stimuli/s31_0.75x_4.96_329.png,250,0.75x,4.96,2.5,2812,250,meters,jsons/MX_seq31_1_VE250.json,284436,758607,18,Man
52,559361,final-intermixed-textured,v2,jsons/MX_seq31_1_VE250.json,http://54.235.29.9/FacialAge/BNav_EC2/DepthDuration/MX_fS_VE_MTurk/MX_fS_HTML.html#265,265,1920,1080,1920,1080,0-31-2024,19-10-9,53,catch_stimuli/c5.png,250,,,0.0,2205,249,meters,jsons/MX_seq31_1_VE250.json,284436,758607,18,Man
53,559361,final-intermixed-textured,v2,jsons/MX_seq31_1_VE250.json,http://54.235.29.9/FacialAge/BNav_EC2/DepthDuration/MX_fS_VE_MTurk/MX_fS_HTML.html#265,265,1920,1080,1920,1080,0-31-2024,19-10-9,54,VR_target_stimuli/s33_1x_3.1_366.png,250,1x,3.1,2.4,4078,251,meters,jsons/MX_seq31_1_VE250.json,284436,758607,18,Man
54,559361,final-intermixed-textured,v2,jsons/MX_seq31_1_VE250.json,http://54.235.29.9/FacialAge/BNav_EC2/DepthDuration/MX_fS_VE_MTurk/MX_fS_HTML.html#265,265,1920,1080,1920,1080,0-31-2024,19-10-9,55,VR_target_stimuli/s52_0.75x_3.2_270.png,250,0.75x,3.2,1.8,3843,242,meters,jsons/MX_seq31_1_VE250.json,284436,758607,18,Man
55,559361,final-intermixed-textured,v2,jsons/MX_seq31_1_VE250.json,http://54.235.29.9/FacialAge/BNav_EC2/DepthDuration/MX_fS_VE_MTurk/MX_fS_HTML.html#265,265,1920,1080,1920,1080,0-31-2024,19-10-9,56,VR_target_stimuli/s32_1.3x_1.5_224_BC.png,250,1.3x,1.5,1.3,3478,247,meters,jsons/MX_seq31_1_VE250.json,284436,758607,18,Man
56,559361,final-intermixed-textured,v2,jsons/MX_seq31_1_VE250.json,http://54.235.29.9/FacialAge/BNav_EC2/DepthDuration/MX_fS_VE_MTurk/MX_fS_HTML.html#265,265,1920,1080,1920,1080,0-31-2024,19-10-9,57,VR_target_stimuli/s18_1x_2.25_353.png,250,1x,2.25,1.0,2499,236,meters,jsons/MX_seq31_1_VE250.json,284436,758607,18,Man
57,559361,final-intermixed-textured,v2,jsons/MX_seq31_1_VE250.json,http://54.235.29.9/FacialAge/BNav_EC2/DepthDuration/MX_fS_VE_MTurk/MX_fS_HTML.html#265,265,1920,1080,1920,1080,0-31-2024,19-10-9,58,VR_target_stimuli/s39_1x_1_207_BC.png,250,1x,1.0,0.9,2788,248,meters,jsons/MX_seq31_1_VE250.json,284436,758607,18,Man
58,559361,final-intermixed-textured,v2,jsons/MX_seq31_1_VE250.json,http://54.235.29.9/FacialAge/BNav_EC2/DepthDuration/MX_fS_VE_MTurk/MX_fS_HTML.html#265,265,1920,1080,1920,1080,0-31-2024,19-10-9,59,VR_target_stimuli/s51_0.75x_3.64_460_BC.png,250,0.75x,3.64,1.6,2966,241,meters,jsons/MX_seq31_1_VE250.json,284436,758607,18,Man
59,559361,final-intermixed-textured,v2,jsons/MX_seq31_1_VE250.json,http://54.235.29.9/FacialAge/BNav_EC2/DepthDuration/MX_fS_VE_MTurk/MX_fS_HTML.html#265,265,1920,1080,1920,1080,0-31-2024,19-10-9,60,VR_target_stimuli/s43_1.3x_2.2_363.png,250,1.3x,2.2,2.3,2917,251,meters,jsons/MX_seq31_1_VE250.json,284436,758607,18,Man
