,subjID,experimentName,versionName,sequenceName,url,selected_row,windowWidth,windowHeight,screenWidth,screenHeight,startDate,startTime,trial,stimulus,duration,scale,actual_depth,depth_estimate,trial_RT,log_sceneDuration,unitSelection,seq_filepath,experimentTime,totalTime,age,gender
0,566780,final-intermixed-textured,v2,jsons/MX_seq44_2_VE250.json,http://54.235.29.9/FacialAge/BNav_EC2/DepthDuration/MX_fS_VE_MTurk/MX_fS_HTML.html#287,287,800,1112,800,1280,1-1-2024,18-22-57,1,VR_target_stimuli/s37_1x_3.3_563.png,250,1x,3.3,4.0,4600,247,meters,jsons/MX_seq44_2_VE250.json,283825,449921,28,Woman
1,566780,final-intermixed-textured,v2,jsons/MX_seq44_2_VE250.json,http://54.235.29.9/FacialAge/BNav_EC2/DepthDuration/MX_fS_VE_MTurk/MX_fS_HTML.html#287,287,800,1112,800,1280,1-1-2024,18-22-57,2,VR_target_stimuli/s46_1.3x_2.42_354_BC.png,250,1.3x,2.42,2.0,3833,249,meters,jsons/MX_seq44_2_VE250.json,283825,449921,28,Woman
2,566780,final-intermixed-textured,v2,jsons/MX_seq44_2_VE250.json,http://54.235.29.9/FacialAge/BNav_EC2/DepthDuration/MX_fS_VE_MTurk/MX_fS_HTML.html#287,287,800,1112,800,1280,1-1-2024,18-22-57,3,VR_target_stimuli/s22_0.75x_4.29_348.png,250,0.75x,4.29,5.0,3925,244,meters,jsons/MX_seq44_2_VE250.json,283825,449921,28,Woman
3,566780,final-intermixed-textured,v2,jsons/MX_seq44_2_VE250.json,http://54.235.29.9/FacialAge/BNav_EC2/DepthDuration/MX_fS_VE_MTurk/MX_fS_HTML.html#287,287,800,1112,800,1280,1-1-2024,18-22-57,4,VR_target_stimuli/s42_1.3x_3.2_305.png,250,1.3x,3.2,4.5,5380,247,meters,jsons/MX_seq44_2_VE250.json,283825,449921,28,Woman
4,566780,final-intermixed-textured,v2,jsons/MX_seq44_2_VE250.json,http://54.235.29.9/FacialAge/BNav_EC2/DepthDuration/MX_fS_VE_MTurk/MX_fS_HTML.html#287,287,800,1112,800,1280,1-1-2024,18-22-57,5,VR_target_stimuli/s25_1x_1.4_290_BC.png,250,1x,1.4,4.0,5193,249,meters,jsons/MX_seq44_2_VE250.json,283825,449921,28,Woman
5,566780,final-intermixed-textured,v2,jsons/MX_seq44_2_VE250.json,http://54.235.29.9/FacialAge/BNav_EC2/DepthDuration/MX_fS_VE_MTurk/MX_fS_HTML.html#287,287,800,1112,800,1280,1-1-2024,18-22-57,6,VR_target_stimuli/s50_0.75x_4.53_517_BC.png,250,0.75x,4.53,3.0,3731,247,meters,jsons/MX_seq44_2_VE250.json,283825,449921,28,Woman
6,566780,final-intermixed-textured,v2,jsons/MX_seq44_2_VE250.json,http://54.235.29.9/FacialAge/BNav_EC2/DepthDuration/MX_fS_VE_MTurk/MX_fS_HTML.html#287,287,800,1112,800,1280,1-1-2024,18-22-57,7,catch_stimuli/c0.png,250,,,2.0,4542,248,meters,jsons/MX_seq44_2_VE250.json,283825,449921,28,Woman
7,566780,final-intermixed-textured,v2,jsons/MX_seq44_2_VE250.json,http://54.235.29.9/FacialAge/BNav_EC2/DepthDuration/MX_fS_VE_MTurk/MX_fS_HTML.html#287,287,800,1112,800,1280,1-1-2024,18-22-57,8,VR_target_stimuli/s53_0.75x_1.6_403.png,250,0.75x,1.6,0.5,5051,249,meters,jsons/MX_seq44_2_VE250.json,283825,449921,28,Woman
8,566780,final-intermixed-textured,v2,jsons/MX_seq44_2_VE250.json,http://54.235.29.9/FacialAge/BNav_EC2/DepthDuration/MX_fS_VE_MTurk/MX_fS_HTML.html#287,287,800,1112,800,1280,1-1-2024,18-22-57,9,VR_target_stimuli/s38_1.3x_3.55_358.png,250,1.3x,3.55,3.0,3824,249,meters,jsons/MX_seq44_2_VE250.json,283825,449921,28,Woman
9,566780,final-intermixed-textured,v2,jsons/MX_seq44_2_VE250.json,http://54.235.29.9/FacialAge/BNav_EC2/DepthDuration/MX_fS_VE_MTurk/MX_fS_HTML.html#287,287,800,1112,800,1280,1-1-2024,18-22-57,10,VR_target_stimuli/s9_1x_1.2_263_BC.png,250,1x,1.2,2.0,5166,248,meters,jsons/MX_seq44_2_VE250.json,283825,449921,28,Woman
10,566780,final-intermixed-textured,v2,jsons/MX_seq44_2_VE250.json,http://54.235.29.9/FacialAge/BNav_EC2/DepthDuration/MX_fS_VE_MTurk/MX_fS_HTML.html#287,287,800,1112,800,1280,1-1-2024,18-22-57,11,VR_target_stimuli/s44_1.3x_4.4_325_BC.png,250,1.3x,4.4,3.5,6206,247,meters,jsons/MX_seq44_2_VE250.json,283825,449921,28,Woman
11,566780,final-intermixed-textured,v2,jsons/MX_seq44_2_VE250.json,http://54.235.29.9/FacialAge/BNav_EC2/DepthDuration/MX_fS_VE_MTurk/MX_fS_HTML.html#287,287,800,1112,800,1280,1-1-2024,18-22-57,12,VR_target_stimuli/s3_0.75x_5_381_BC.png,250,0.75x,5.0,4.5,4732,250,meters,jsons/MX_seq44_2_VE250.json,283825,449921,28,Woman
12,566780,final-intermixed-textured,v2,jsons/MX_seq44_2_VE250.json,http://54.235.29.9/FacialAge/BNav_EC2/DepthDuration/MX_fS_VE_MTurk/MX_fS_HTML.html#287,287,800,1112,800,1280,1-1-2024,18-22-57,13,VR_target_stimuli/s1_1x_1.7_262.png,250,1x,1.7,3.0,3469,248,meters,jsons/MX_seq44_2_VE250.json,283825,449921,28,Woman
13,566780,final-intermixed-textured,v2,jsons/MX_seq44_2_VE250.json,http://54.235.29.9/FacialAge/BNav_EC2/DepthDuration/MX_fS_VE_MTurk/MX_fS_HTML.html#287,287,800,1112,800,1280,1-1-2024,18-22-57,14,VR_target_stimuli/s11_0.75x_5_359_BC.png,250,0.75x,5.0,5.0,5268,248,meters,jsons/MX_seq44_2_VE250.json,283825,449921,28,Woman
14,566780,final-intermixed-textured,v2,jsons/MX_seq44_2_VE250.json,http://54.235.29.9/FacialAge/BNav_EC2/DepthDuration/MX_fS_VE_MTurk/MX_fS_HTML.html#287,287,800,1112,800,1280,1-1-2024,18-22-57,15,VR_target_stimuli/s2_1.3x_2.7_397_BC.png,250,1.3x,2.7,2.0,5460,251,meters,jsons/MX_seq44_2_VE250.json,283825,449921,28,Woman
15,566780,final-intermixed-textured,v2,jsons/MX_seq44_2_VE250.json,http://54.235.29.9/FacialAge/BNav_EC2/DepthDuration/MX_fS_VE_MTurk/MX_fS_HTML.html#287,287,800,1112,800,1280,1-1-2024,18-22-57,16,VR_target_stimuli/s6_1x_2.1_293_BC.png,250,1x,2.1,2.0,3146,248,meters,jsons/MX_seq44_2_VE250.json,283825,449921,28,Woman
16,566780,final-intermixed-textured,v2,jsons/MX_seq44_2_VE250.json,http://54.235.29.9/FacialAge/BNav_EC2/DepthDuration/MX_fS_VE_MTurk/MX_fS_HTML.html#287,287,800,1112,800,1280,1-1-2024,18-22-57,17,catch_stimuli/c1.png,250,,,3.5,5307,249,meters,jsons/MX_seq44_2_VE250.json,283825,449921,28,Woman
17,566780,final-intermixed-textured,v2,jsons/MX_seq44_2_VE250.json,http://54.235.29.9/FacialAge/BNav_EC2/DepthDuration/MX_fS_VE_MTurk/MX_fS_HTML.html#287,287,800,1112,800,1280,1-1-2024,18-22-57,18,VR_target_stimuli/s0_1x_2.6_351.png,250,1x,2.6,3.0,3076,247,meters,jsons/MX_seq44_2_VE250.json,283825,449921,28,Woman
18,566780,final-intermixed-textured,v2,jsons/MX_seq44_2_VE250.json,http://54.235.29.9/FacialAge/BNav_EC2/DepthDuration/MX_fS_VE_MTurk/MX_fS_HTML.html#287,287,800,1112,800,1280,1-1-2024,18-22-57,19,VR_target_stimuli/s34_0.75x_2.8_269.png,250,0.75x,2.8,3.0,4829,249,meters,jsons/MX_seq44_2_VE250.json,283825,449921,28,Woman
19,566780,final-intermixed-textured,v2,jsons/MX_seq44_2_VE250.json,http://54.235.29.9/FacialAge/BNav_EC2/DepthDuration/MX_fS_VE_MTurk/MX_fS_HTML.html#287,287,800,1112,800,1280,1-1-2024,18-22-57,20,VR_target_stimuli/s13_1.3x_2.4_313.png,250,1.3x,2.4,3.0,3605,248,meters,jsons/MX_seq44_2_VE250.json,283825,449921,28,Woman
20,566780,final-intermixed-textured,v2,jsons/MX_seq44_2_VE250.json,http://54.235.29.9/FacialAge/BNav_EC2/DepthDuration/MX_fS_VE_MTurk/MX_fS_HTML.html#287,287,800,1112,800,1280,1-1-2024,18-22-57,21,VR_target_stimuli/s14_0.75x_3.83_355.png,250,0.75x,3.83,3.5,4903,247,meters,jsons/MX_seq44_2_VE250.json,283825,449921,28,Woman
21,566780,final-intermixed-textured,v2,jsons/MX_seq44_2_VE250.json,http://54.235.29.9/FacialAge/BNav_EC2/DepthDuration/MX_fS_VE_MTurk/MX_fS_HTML.html#287,287,800,1112,800,1280,1-1-2024,18-22-57,22,VR_target_stimuli/s47_1x_3.45_370_BC.png,250,1x,3.45,2.5,4999,248,meters,jsons/MX_seq44_2_VE250.json,283825,449921,28,Woman
22,566780,final-intermixed-textured,v2,jsons/MX_seq44_2_VE250.json,http://54.235.29.9/FacialAge/BNav_EC2/DepthDuration/MX_fS_VE_MTurk/MX_fS_HTML.html#287,287,800,1112,800,1280,1-1-2024,18-22-57,23,VR_target_stimuli/s29_1.3x_1.3_253.png,250,1.3x,1.3,2.0,3168,245,meters,jsons/MX_seq44_2_VE250.json,283825,449921,28,Woman
23,566780,final-intermixed-textured,v2,jsons/MX_seq44_2_VE250.json,http://54.235.29.9/FacialAge/BNav_EC2/DepthDuration/MX_fS_VE_MTurk/MX_fS_HTML.html#287,287,800,1112,800,1280,1-1-2024,18-22-57,24,VR_target_stimuli/s28_1x_3.2_362.png,250,1x,3.2,3.0,3145,249,meters,jsons/MX_seq44_2_VE250.json,283825,449921,28,Woman
24,566780,final-intermixed-textured,v2,jsons/MX_seq44_2_VE250.json,http://54.235.29.9/FacialAge/BNav_EC2/DepthDuration/MX_fS_VE_MTurk/MX_fS_HTML.html#287,287,800,1112,800,1280,1-1-2024,18-22-57,25,VR_target_stimuli/s48_0.75x_2.55_243_BC.png,250,0.75x,2.55,3.0,3878,249,meters,jsons/MX_seq44_2_VE250.json,283825,449921,28,Woman
25,566780,final-intermixed-textured,v2,jsons/MX_seq44_2_VE250.json,http://54.235.29.9/FacialAge/BNav_EC2/DepthDuration/MX_fS_VE_MTurk/MX_fS_HTML.html#287,287,800,1112,800,1280,1-1-2024,18-22-57,26,catch_stimuli/c2.png,250,,,3.0,3814,249,meters,jsons/MX_seq44_2_VE250.json,283825,449921,28,Woman
26,566780,final-intermixed-textured,v2,jsons/MX_seq44_2_VE250.json,http://54.235.29.9/FacialAge/BNav_EC2/DepthDuration/MX_fS_VE_MTurk/MX_fS_HTML.html#287,287,800,1112,800,1280,1-1-2024,18-22-57,27,VR_target_stimuli/s19_1.3x_1.21_270_BC.png,250,1.3x,1.21,2.0,3590,250,meters,jsons/MX_seq44_2_VE250.json,283825,449921,28,Woman
27,566780,final-intermixed-textured,v2,jsons/MX_seq44_2_VE250.json,http://54.235.29.9/FacialAge/BNav_EC2/DepthDuration/MX_fS_VE_MTurk/MX_fS_HTML.html#287,287,800,1112,800,1280,1-1-2024,18-22-57,28,VR_target_stimuli/s21_1.3x_4.22_384.png,250,1.3x,4.22,2.0,3418,247,meters,jsons/MX_seq44_2_VE250.json,283825,449921,28,Woman
28,566780,final-intermixed-textured,v2,jsons/MX_seq44_2_VE250.json,http://54.235.29.9/FacialAge/BNav_EC2/DepthDuration/MX_fS_VE_MTurk/MX_fS_HTML.html#287,287,800,1112,800,1280,1-1-2024,18-22-57,29,VR_target_stimuli/s8_1x_3.1_332_BC.png,250,1x,3.1,4.0,3561,246,meters,jsons/MX_seq44_2_VE250.json,283825,449921,28,Woman
29,566780,final-intermixed-textured,v2,jsons/MX_seq44_2_VE250.json,http://54.235.29.9/FacialAge/BNav_EC2/DepthDuration/MX_fS_VE_MTurk/MX_fS_HTML.html#287,287,800,1112,800,1280,1-1-2024,18-22-57,30,VR_target_stimuli/s27_0.75x_1.76_243.png,250,0.75x,1.76,3.0,5479,248,meters,jsons/MX_seq44_2_VE250.json,283825,449921,28,Woman
30,566780,final-intermixed-textured,v2,jsons/MX_seq44_2_VE250.json,http://54.235.29.9/FacialAge/BNav_EC2/DepthDuration/MX_fS_VE_MTurk/MX_fS_HTML.html#287,287,800,1112,800,1280,1-1-2024,18-22-57,31,VR_target_stimuli/s15_1.3x_4.2_389_BC.png,250,1.3x,4.2,4.0,3465,250,meters,jsons/MX_seq44_2_VE250.json,283825,449921,28,Woman
31,566780,final-intermixed-textured,v2,jsons/MX_seq44_2_VE250.json,http://54.235.29.9/FacialAge/BNav_EC2/DepthDuration/MX_fS_VE_MTurk/MX_fS_HTML.html#287,287,800,1112,800,1280,1-1-2024,18-22-57,32,VR_target_stimuli/s4_0.75x_1.4_301_BC.png,250,0.75x,1.4,2.0,4138,247,meters,jsons/MX_seq44_2_VE250.json,283825,449921,28,Woman
32,566780,final-intermixed-textured,v2,jsons/MX_seq44_2_VE250.json,http://54.235.29.9/FacialAge/BNav_EC2/DepthDuration/MX_fS_VE_MTurk/MX_fS_HTML.html#287,287,800,1112,800,1280,1-1-2024,18-22-57,33,VR_target_stimuli/s35_1x_2_331.png,250,1x,2.0,0.0,4969,249,meters,jsons/MX_seq44_2_VE250.json,283825,449921,28,Woman
33,566780,final-intermixed-textured,v2,jsons/MX_seq44_2_VE250.json,http://54.235.29.9/FacialAge/BNav_EC2/DepthDuration/MX_fS_VE_MTurk/MX_fS_HTML.html#287,287,800,1112,800,1280,1-1-2024,18-22-57,34,catch_stimuli/c3.png,250,,,0.0,4087,250,meters,jsons/MX_seq44_2_VE250.json,283825,449921,28,Woman
34,566780,final-intermixed-textured,v2,jsons/MX_seq44_2_VE250.json,http://54.235.29.9/FacialAge/BNav_EC2/DepthDuration/MX_fS_VE_MTurk/MX_fS_HTML.html#287,287,800,1112,800,1280,1-1-2024,18-22-57,35,VR_target_stimuli/s49_0.75x_4.67_328_BC.png,250,0.75x,4.67,3.0,3860,245,meters,jsons/MX_seq44_2_VE250.json,283825,449921,28,Woman
35,566780,final-intermixed-textured,v2,jsons/MX_seq44_2_VE250.json,http://54.235.29.9/FacialAge/BNav_EC2/DepthDuration/MX_fS_VE_MTurk/MX_fS_HTML.html#287,287,800,1112,800,1280,1-1-2024,18-22-57,36,VR_target_stimuli/s7_1.3x_1.5_256_BC.png,250,1.3x,1.5,2.5,6050,247,meters,jsons/MX_seq44_2_VE250.json,283825,449921,28,Woman
36,566780,final-intermixed-textured,v2,jsons/MX_seq44_2_VE250.json,http://54.235.29.9/FacialAge/BNav_EC2/DepthDuration/MX_fS_VE_MTurk/MX_fS_HTML.html#287,287,800,1112,800,1280,1-1-2024,18-22-57,37,VR_target_stimuli/s20_1x_4.99_398_BC.png,250,1x,4.99,4.5,4639,244,meters,jsons/MX_seq44_2_VE250.json,283825,449921,28,Woman
37,566780,final-intermixed-textured,v2,jsons/MX_seq44_2_VE250.json,http://54.235.29.9/FacialAge/BNav_EC2/DepthDuration/MX_fS_VE_MTurk/MX_fS_HTML.html#287,287,800,1112,800,1280,1-1-2024,18-22-57,38,VR_target_stimuli/s31_1x_4.96_333.png,250,1x,4.96,4.0,5403,246,meters,jsons/MX_seq44_2_VE250.json,283825,449921,28,Woman
38,566780,final-intermixed-textured,v2,jsons/MX_seq44_2_VE250.json,http://54.235.29.9/FacialAge/BNav_EC2/DepthDuration/MX_fS_VE_MTurk/MX_fS_HTML.html#287,287,800,1112,800,1280,1-1-2024,18-22-57,39,VR_target_stimuli/s33_0.75x_3.1_361.png,250,0.75x,3.1,3.0,4323,247,meters,jsons/MX_seq44_2_VE250.json,283825,449921,28,Woman
39,566780,final-intermixed-textured,v2,jsons/MX_seq44_2_VE250.json,http://54.235.29.9/FacialAge/BNav_EC2/DepthDuration/MX_fS_VE_MTurk/MX_fS_HTML.html#287,287,800,1112,800,1280,1-1-2024,18-22-57,40,VR_target_stimuli/s52_1.3x_3.2_280.png,250,1.3x,3.2,5.0,3613,248,meters,jsons/MX_seq44_2_VE250.json,283825,449921,28,Woman
40,566780,final-intermixed-textured,v2,jsons/MX_seq44_2_VE250.json,http://54.235.29.9/FacialAge/BNav_EC2/DepthDuration/MX_fS_VE_MTurk/MX_fS_HTML.html#287,287,800,1112,800,1280,1-1-2024,18-22-57,41,VR_target_stimuli/s32_0.75x_1.5_213_BC.png,250,0.75x,1.5,3.0,3282,249,meters,jsons/MX_seq44_2_VE250.json,283825,449921,28,Woman
41,566780,final-intermixed-textured,v2,jsons/MX_seq44_2_VE250.json,http://54.235.29.9/FacialAge/BNav_EC2/DepthDuration/MX_fS_VE_MTurk/MX_fS_HTML.html#287,287,800,1112,800,1280,1-1-2024,18-22-57,42,VR_target_stimuli/s18_1x_2.25_353_BC.png,250,1x,2.25,2.5,4134,250,meters,jsons/MX_seq44_2_VE250.json,283825,449921,28,Woman
42,566780,final-intermixed-textured,v2,jsons/MX_seq44_2_VE250.json,http://54.235.29.9/FacialAge/BNav_EC2/DepthDuration/MX_fS_VE_MTurk/MX_fS_HTML.html#287,287,800,1112,800,1280,1-1-2024,18-22-57,43,VR_target_stimuli/s39_1.3x_1_208.png,250,1.3x,1.0,1.5,4293,249,meters,jsons/MX_seq44_2_VE250.json,283825,449921,28,Woman
43,566780,final-intermixed-textured,v2,jsons/MX_seq44_2_VE250.json,http://54.235.29.9/FacialAge/BNav_EC2/DepthDuration/MX_fS_VE_MTurk/MX_fS_HTML.html#287,287,800,1112,800,1280,1-1-2024,18-22-57,44,VR_target_stimuli/s51_1x_3.64_461.png,250,1x,3.64,2.0,3224,248,meters,jsons/MX_seq44_2_VE250.json,283825,449921,28,Woman
44,566780,final-intermixed-textured,v2,jsons/MX_seq44_2_VE250.json,http://54.235.29.9/FacialAge/BNav_EC2/DepthDuration/MX_fS_VE_MTurk/MX_fS_HTML.html#287,287,800,1112,800,1280,1-1-2024,18-22-57,45,catch_stimuli/c4.png,250,,,2.0,4518,248,meters,jsons/MX_seq44_2_VE250.json,283825,449921,28,Woman
45,566780,final-intermixed-textured,v2,jsons/MX_seq44_2_VE250.json,http://54.235.29.9/FacialAge/BNav_EC2/DepthDuration/MX_fS_VE_MTurk/MX_fS_HTML.html#287,287,800,1112,800,1280,1-1-2024,18-22-57,46,VR_target_stimuli/s43_0.75x_2.2_348.png,250,0.75x,2.2,3.0,3978,249,meters,jsons/MX_seq44_2_VE250.json,283825,449921,28,Woman
46,566780,final-intermixed-textured,v2,jsons/MX_seq44_2_VE250.json,http://54.235.29.9/FacialAge/BNav_EC2/DepthDuration/MX_fS_VE_MTurk/MX_fS_HTML.html#287,287,800,1112,800,1280,1-1-2024,18-22-57,47,VR_target_stimuli/s24_1.3x_3.3_352_BC.png,250,1.3x,3.3,3.5,4799,246,meters,jsons/MX_seq44_2_VE250.json,283825,449921,28,Woman
47,566780,final-intermixed-textured,v2,jsons/MX_seq44_2_VE250.json,http://54.235.29.9/FacialAge/BNav_EC2/DepthDuration/MX_fS_VE_MTurk/MX_fS_HTML.html#287,287,800,1112,800,1280,1-1-2024,18-22-57,48,VR_target_stimuli/s10_1.3x_2.7_325.png,250,1.3x,2.7,5.0,3248,247,meters,jsons/MX_seq44_2_VE250.json,283825,449921,28,Woman
48,566780,final-intermixed-textured,v2,jsons/MX_seq44_2_VE250.json,http://54.235.29.9/FacialAge/BNav_EC2/DepthDuration/MX_fS_VE_MTurk/MX_fS_HTML.html#287,287,800,1112,800,1280,1-1-2024,18-22-57,49,VR_target_stimuli/s36_1x_4.1_423_BC.png,250,1x,4.1,5.0,3076,245,meters,jsons/MX_seq44_2_VE250.json,283825,449921,28,Woman
49,566780,final-intermixed-textured,v2,jsons/MX_seq44_2_VE250.json,http://54.235.29.9/FacialAge/BNav_EC2/DepthDuration/MX_fS_VE_MTurk/MX_fS_HTML.html#287,287,800,1112,800,1280,1-1-2024,18-22-57,50,VR_target_stimuli/s40_0.75x_1.2_308.png,250,0.75x,1.2,3.0,3515,246,meters,jsons/MX_seq44_2_VE250.json,283825,449921,28,Woman
50,566780,final-intermixed-textured,v2,jsons/MX_seq44_2_VE250.json,http://54.235.29.9/FacialAge/BNav_EC2/DepthDuration/MX_fS_VE_MTurk/MX_fS_HTML.html#287,287,800,1112,800,1280,1-1-2024,18-22-57,51,VR_target_stimuli/s41_1x_2.1_286.png,250,1x,2.1,4.0,4071,251,meters,jsons/MX_seq44_2_VE250.json,283825,449921,28,Woman
51,566780,final-intermixed-textured,v2,jsons/MX_seq44_2_VE250.json,http://54.235.29.9/FacialAge/BNav_EC2/DepthDuration/MX_fS_VE_MTurk/MX_fS_HTML.html#287,287,800,1112,800,1280,1-1-2024,18-22-57,52,VR_target_stimuli/s45_1.3x_3.5_377_BC.png,250,1.3x,3.5,3.5,5179,247,meters,jsons/MX_seq44_2_VE250.json,283825,449921,28,Woman
52,566780,final-intermixed-textured,v2,jsons/MX_seq44_2_VE250.json,http://54.235.29.9/FacialAge/BNav_EC2/DepthDuration/MX_fS_VE_MTurk/MX_fS_HTML.html#287,287,800,1112,800,1280,1-1-2024,18-22-57,53,catch_stimuli/c5.png,250,,,0.0,4923,248,meters,jsons/MX_seq44_2_VE250.json,283825,449921,28,Woman
53,566780,final-intermixed-textured,v2,jsons/MX_seq44_2_VE250.json,http://54.235.29.9/FacialAge/BNav_EC2/DepthDuration/MX_fS_VE_MTurk/MX_fS_HTML.html#287,287,800,1112,800,1280,1-1-2024,18-22-57,54,VR_target_stimuli/s23_0.75x_3.65_351_BC.png,250,0.75x,3.65,3.0,3668,247,meters,jsons/MX_seq44_2_VE250.json,283825,449921,28,Woman
54,566780,final-intermixed-textured,v2,jsons/MX_seq44_2_VE250.json,http://54.235.29.9/FacialAge/BNav_EC2/DepthDuration/MX_fS_VE_MTurk/MX_fS_HTML.html#287,287,800,1112,800,1280,1-1-2024,18-22-57,55,VR_target_stimuli/s26_1.3x_4_441.png,250,1.3x,4.0,3.0,3204,249,meters,jsons/MX_seq44_2_VE250.json,283825,449921,28,Woman
55,566780,final-intermixed-textured,v2,jsons/MX_seq44_2_VE250.json,http://54.235.29.9/FacialAge/BNav_EC2/DepthDuration/MX_fS_VE_MTurk/MX_fS_HTML.html#287,287,800,1112,800,1280,1-1-2024,18-22-57,56,VR_target_stimuli/s12_1x_3.1_372.png,250,1x,3.1,3.0,3384,248,meters,jsons/MX_seq44_2_VE250.json,283825,449921,28,Woman
56,566780,final-intermixed-textured,v2,jsons/MX_seq44_2_VE250.json,http://54.235.29.9/FacialAge/BNav_EC2/DepthDuration/MX_fS_VE_MTurk/MX_fS_HTML.html#287,287,800,1112,800,1280,1-1-2024,18-22-57,57,VR_target_stimuli/s30_0.75x_2.3_332_BC.png,250,0.75x,2.3,2.5,5711,248,meters,jsons/MX_seq44_2_VE250.json,283825,449921,28,Woman
57,566780,final-intermixed-textured,v2,jsons/MX_seq44_2_VE250.json,http://54.235.29.9/FacialAge/BNav_EC2/DepthDuration/MX_fS_VE_MTurk/MX_fS_HTML.html#287,287,800,1112,800,1280,1-1-2024,18-22-57,58,VR_target_stimuli/s16_0.75x_1_217.png,250,0.75x,1.0,3.0,3480,248,meters,jsons/MX_seq44_2_VE250.json,283825,449921,28,Woman
58,566780,final-intermixed-textured,v2,jsons/MX_seq44_2_VE250.json,http://54.235.29.9/FacialAge/BNav_EC2/DepthDuration/MX_fS_VE_MTurk/MX_fS_HTML.html#287,287,800,1112,800,1280,1-1-2024,18-22-57,59,VR_target_stimuli/s17_1.3x_1.8_300_BC.png,250,1.3x,1.8,2.5,4056,248,meters,jsons/MX_seq44_2_VE250.json,283825,449921,28,Woman
59,566780,final-intermixed-textured,v2,jsons/MX_seq44_2_VE250.json,http://54.235.29.9/FacialAge/BNav_EC2/DepthDuration/MX_fS_VE_MTurk/MX_fS_HTML.html#287,287,800,1112,800,1280,1-1-2024,18-22-57,60,VR_target_stimuli/s5_1x_4_378_BC.png,250,1x,4.0,3.0,2991,249,meters,jsons/MX_seq44_2_VE250.json,283825,449921,28,Woman
