,subjID,experimentName,versionName,sequenceName,url,selected_row,windowWidth,windowHeight,screenWidth,screenHeight,startDate,startTime,trial,stimulus,duration,scale,actual_depth,depth_estimate,trial_RT,log_sceneDuration,unitSelection,seq_filepath,experimentTime,totalTime,age,gender
0,571207,final-intermixed-textured,v2,jsons/MX_seq39_0_VE250_flipped.json,http://54.235.29.9/FacialAge/BNav_EC2/DepthDuration/MX_fS_VE_MTurk/MX_fS_HTML.html#70,70,1348,648,1366,768,0-31-2024,14-51-44,1,VR_target_stimuli/s12_0.75x_3.1_364.png,250,0.75x,3.1,0,6197,258,feet,jsons/MX_seq39_0_VE250_flipped.json,339973,572389,25,Woman
1,571207,final-intermixed-textured,v2,jsons/MX_seq39_0_VE250_flipped.json,http://54.235.29.9/FacialAge/BNav_EC2/DepthDuration/MX_fS_VE_MTurk/MX_fS_HTML.html#70,70,1348,648,1366,768,0-31-2024,14-51-44,2,VR_target_stimuli/s30_1x_2.3_334_BC.png,250,1x,2.3,0,5222,249,feet,jsons/MX_seq39_0_VE250_flipped.json,339973,572389,25,Woman
2,571207,final-intermixed-textured,v2,jsons/MX_seq39_0_VE250_flipped.json,http://54.235.29.9/FacialAge/BNav_EC2/DepthDuration/MX_fS_VE_MTurk/MX_fS_HTML.html#70,70,1348,648,1366,768,0-31-2024,14-51-44,3,VR_target_stimuli/s16_1.3x_1_223_BC.png,250,1.3x,1.0,0,4993,249,feet,jsons/MX_seq39_0_VE250_flipped.json,339973,572389,25,Woman
3,571207,final-intermixed-textured,v2,jsons/MX_seq39_0_VE250_flipped.json,http://54.235.29.9/FacialAge/BNav_EC2/DepthDuration/MX_fS_VE_MTurk/MX_fS_HTML.html#70,70,1348,648,1366,768,0-31-2024,14-51-44,4,VR_target_stimuli/s17_1x_1.8_291.png,250,1x,1.8,0,4076,257,feet,jsons/MX_seq39_0_VE250_flipped.json,339973,572389,25,Woman
4,571207,final-intermixed-textured,v2,jsons/MX_seq39_0_VE250_flipped.json,http://54.235.29.9/FacialAge/BNav_EC2/DepthDuration/MX_fS_VE_MTurk/MX_fS_HTML.html#70,70,1348,648,1366,768,0-31-2024,14-51-44,5,VR_target_stimuli/s5_0.75x_4_375_BC.png,250,0.75x,4.0,0,4870,247,feet,jsons/MX_seq39_0_VE250_flipped.json,339973,572389,25,Woman
5,571207,final-intermixed-textured,v2,jsons/MX_seq39_0_VE250_flipped.json,http://54.235.29.9/FacialAge/BNav_EC2/DepthDuration/MX_fS_VE_MTurk/MX_fS_HTML.html#70,70,1348,648,1366,768,0-31-2024,14-51-44,6,VR_target_stimuli/s37_1.3x_3.3_555.png,250,1.3x,3.3,0,4874,247,feet,jsons/MX_seq39_0_VE250_flipped.json,339973,572389,25,Woman
6,571207,final-intermixed-textured,v2,jsons/MX_seq39_0_VE250_flipped.json,http://54.235.29.9/FacialAge/BNav_EC2/DepthDuration/MX_fS_VE_MTurk/MX_fS_HTML.html#70,70,1348,648,1366,768,0-31-2024,14-51-44,7,catch_stimuli/c0_BC.png,250,,,0,5019,228,feet,jsons/MX_seq39_0_VE250_flipped.json,339973,572389,25,Woman
7,571207,final-intermixed-textured,v2,jsons/MX_seq39_0_VE250_flipped.json,http://54.235.29.9/FacialAge/BNav_EC2/DepthDuration/MX_fS_VE_MTurk/MX_fS_HTML.html#70,70,1348,648,1366,768,0-31-2024,14-51-44,8,VR_target_stimuli/s46_1.3x_2.42_354_BC.png,250,1.3x,2.42,0,4255,249,feet,jsons/MX_seq39_0_VE250_flipped.json,339973,572389,25,Woman
8,571207,final-intermixed-textured,v2,jsons/MX_seq39_0_VE250_flipped.json,http://54.235.29.9/FacialAge/BNav_EC2/DepthDuration/MX_fS_VE_MTurk/MX_fS_HTML.html#70,70,1348,648,1366,768,0-31-2024,14-51-44,9,VR_target_stimuli/s22_1x_4.29_354.png,250,1x,4.29,0,4304,248,feet,jsons/MX_seq39_0_VE250_flipped.json,339973,572389,25,Woman
9,571207,final-intermixed-textured,v2,jsons/MX_seq39_0_VE250_flipped.json,http://54.235.29.9/FacialAge/BNav_EC2/DepthDuration/MX_fS_VE_MTurk/MX_fS_HTML.html#70,70,1348,648,1366,768,0-31-2024,14-51-44,10,VR_target_stimuli/s42_0.75x_3.2_301.png,250,0.75x,3.2,0,3913,249,feet,jsons/MX_seq39_0_VE250_flipped.json,339973,572389,25,Woman
10,571207,final-intermixed-textured,v2,jsons/MX_seq39_0_VE250_flipped.json,http://54.235.29.9/FacialAge/BNav_EC2/DepthDuration/MX_fS_VE_MTurk/MX_fS_HTML.html#70,70,1348,648,1366,768,0-31-2024,14-51-44,11,VR_target_stimuli/s25_1x_1.4_290_BC.png,250,1x,1.4,0,3945,248,feet,jsons/MX_seq39_0_VE250_flipped.json,339973,572389,25,Woman
11,571207,final-intermixed-textured,v2,jsons/MX_seq39_0_VE250_flipped.json,http://54.235.29.9/FacialAge/BNav_EC2/DepthDuration/MX_fS_VE_MTurk/MX_fS_HTML.html#70,70,1348,648,1366,768,0-31-2024,14-51-44,12,VR_target_stimuli/s50_1.3x_4.53_518.png,250,1.3x,4.53,0,3979,265,feet,jsons/MX_seq39_0_VE250_flipped.json,339973,572389,25,Woman
12,571207,final-intermixed-textured,v2,jsons/MX_seq39_0_VE250_flipped.json,http://54.235.29.9/FacialAge/BNav_EC2/DepthDuration/MX_fS_VE_MTurk/MX_fS_HTML.html#70,70,1348,648,1366,768,0-31-2024,14-51-44,13,VR_target_stimuli/s53_0.75x_1.6_403_BC.png,250,0.75x,1.6,0,5721,241,feet,jsons/MX_seq39_0_VE250_flipped.json,339973,572389,25,Woman
13,571207,final-intermixed-textured,v2,jsons/MX_seq39_0_VE250_flipped.json,http://54.235.29.9/FacialAge/BNav_EC2/DepthDuration/MX_fS_VE_MTurk/MX_fS_HTML.html#70,70,1348,648,1366,768,0-31-2024,14-51-44,14,VR_target_stimuli/s38_1.3x_3.55_358_BC.png,250,1.3x,3.55,0,4302,249,feet,jsons/MX_seq39_0_VE250_flipped.json,339973,572389,25,Woman
14,571207,final-intermixed-textured,v2,jsons/MX_seq39_0_VE250_flipped.json,http://54.235.29.9/FacialAge/BNav_EC2/DepthDuration/MX_fS_VE_MTurk/MX_fS_HTML.html#70,70,1348,648,1366,768,0-31-2024,14-51-44,15,VR_target_stimuli/s9_1x_1.2_263.png,250,1x,1.2,0,4254,247,feet,jsons/MX_seq39_0_VE250_flipped.json,339973,572389,25,Woman
15,571207,final-intermixed-textured,v2,jsons/MX_seq39_0_VE250_flipped.json,http://54.235.29.9/FacialAge/BNav_EC2/DepthDuration/MX_fS_VE_MTurk/MX_fS_HTML.html#70,70,1348,648,1366,768,0-31-2024,14-51-44,16,VR_target_stimuli/s44_0.75x_4.4_314.png,250,0.75x,4.4,0,6097,248,feet,jsons/MX_seq39_0_VE250_flipped.json,339973,572389,25,Woman
16,571207,final-intermixed-textured,v2,jsons/MX_seq39_0_VE250_flipped.json,http://54.235.29.9/FacialAge/BNav_EC2/DepthDuration/MX_fS_VE_MTurk/MX_fS_HTML.html#70,70,1348,648,1366,768,0-31-2024,14-51-44,17,catch_stimuli/c1_BC.png,250,,,0,3738,248,feet,jsons/MX_seq39_0_VE250_flipped.json,339973,572389,25,Woman
17,571207,final-intermixed-textured,v2,jsons/MX_seq39_0_VE250_flipped.json,http://54.235.29.9/FacialAge/BNav_EC2/DepthDuration/MX_fS_VE_MTurk/MX_fS_HTML.html#70,70,1348,648,1366,768,0-31-2024,14-51-44,18,VR_target_stimuli/s3_0.75x_5_381_BC.png,250,0.75x,5.0,0,4444,255,feet,jsons/MX_seq39_0_VE250_flipped.json,339973,572389,25,Woman
18,571207,final-intermixed-textured,v2,jsons/MX_seq39_0_VE250_flipped.json,http://54.235.29.9/FacialAge/BNav_EC2/DepthDuration/MX_fS_VE_MTurk/MX_fS_HTML.html#70,70,1348,648,1366,768,0-31-2024,14-51-44,19,VR_target_stimuli/s1_1.3x_1.7_261.png,250,1.3x,1.7,0,6550,248,feet,jsons/MX_seq39_0_VE250_flipped.json,339973,572389,25,Woman
19,571207,final-intermixed-textured,v2,jsons/MX_seq39_0_VE250_flipped.json,http://54.235.29.9/FacialAge/BNav_EC2/DepthDuration/MX_fS_VE_MTurk/MX_fS_HTML.html#70,70,1348,648,1366,768,0-31-2024,14-51-44,20,VR_target_stimuli/s11_1x_5_361_BC.png,250,1x,5.0,0,2896,250,feet,jsons/MX_seq39_0_VE250_flipped.json,339973,572389,25,Woman
20,571207,final-intermixed-textured,v2,jsons/MX_seq39_0_VE250_flipped.json,http://54.235.29.9/FacialAge/BNav_EC2/DepthDuration/MX_fS_VE_MTurk/MX_fS_HTML.html#70,70,1348,648,1366,768,0-31-2024,14-51-44,21,VR_target_stimuli/s2_1.3x_2.7_397.png,250,1.3x,2.7,0,5547,241,feet,jsons/MX_seq39_0_VE250_flipped.json,339973,572389,25,Woman
21,571207,final-intermixed-textured,v2,jsons/MX_seq39_0_VE250_flipped.json,http://54.235.29.9/FacialAge/BNav_EC2/DepthDuration/MX_fS_VE_MTurk/MX_fS_HTML.html#70,70,1348,648,1366,768,0-31-2024,14-51-44,22,VR_target_stimuli/s6_0.75x_2.1_290.png,250,0.75x,2.1,0,4887,246,feet,jsons/MX_seq39_0_VE250_flipped.json,339973,572389,25,Woman
22,571207,final-intermixed-textured,v2,jsons/MX_seq39_0_VE250_flipped.json,http://54.235.29.9/FacialAge/BNav_EC2/DepthDuration/MX_fS_VE_MTurk/MX_fS_HTML.html#70,70,1348,648,1366,768,0-31-2024,14-51-44,23,VR_target_stimuli/s0_1x_2.6_351_BC.png,250,1x,2.6,0,4995,254,feet,jsons/MX_seq39_0_VE250_flipped.json,339973,572389,25,Woman
23,571207,final-intermixed-textured,v2,jsons/MX_seq39_0_VE250_flipped.json,http://54.235.29.9/FacialAge/BNav_EC2/DepthDuration/MX_fS_VE_MTurk/MX_fS_HTML.html#70,70,1348,648,1366,768,0-31-2024,14-51-44,24,VR_target_stimuli/s34_0.75x_2.8_269_BC.png,250,0.75x,2.8,0,4495,256,feet,jsons/MX_seq39_0_VE250_flipped.json,339973,572389,25,Woman
24,571207,final-intermixed-textured,v2,jsons/MX_seq39_0_VE250_flipped.json,http://54.235.29.9/FacialAge/BNav_EC2/DepthDuration/MX_fS_VE_MTurk/MX_fS_HTML.html#70,70,1348,648,1366,768,0-31-2024,14-51-44,25,VR_target_stimuli/s13_1.3x_2.4_313_BC.png,250,1.3x,2.4,0,3128,238,feet,jsons/MX_seq39_0_VE250_flipped.json,339973,572389,25,Woman
25,571207,final-intermixed-textured,v2,jsons/MX_seq39_0_VE250_flipped.json,http://54.235.29.9/FacialAge/BNav_EC2/DepthDuration/MX_fS_VE_MTurk/MX_fS_HTML.html#70,70,1348,648,1366,768,0-31-2024,14-51-44,26,catch_stimuli/c2_BC.png,250,,,0,4537,250,feet,jsons/MX_seq39_0_VE250_flipped.json,339973,572389,25,Woman
26,571207,final-intermixed-textured,v2,jsons/MX_seq39_0_VE250_flipped.json,http://54.235.29.9/FacialAge/BNav_EC2/DepthDuration/MX_fS_VE_MTurk/MX_fS_HTML.html#70,70,1348,648,1366,768,0-31-2024,14-51-44,27,VR_target_stimuli/s14_1x_ 3.83_357.png,250,1x,3.83,0,4588,240,feet,jsons/MX_seq39_0_VE250_flipped.json,339973,572389,25,Woman
27,571207,final-intermixed-textured,v2,jsons/MX_seq39_0_VE250_flipped.json,http://54.235.29.9/FacialAge/BNav_EC2/DepthDuration/MX_fS_VE_MTurk/MX_fS_HTML.html#70,70,1348,648,1366,768,0-31-2024,14-51-44,28,VR_target_stimuli/s47_1x_3.45_370.png,250,1x,3.45,0,26318,248,feet,jsons/MX_seq39_0_VE250_flipped.json,339973,572389,25,Woman
28,571207,final-intermixed-textured,v2,jsons/MX_seq39_0_VE250_flipped.json,http://54.235.29.9/FacialAge/BNav_EC2/DepthDuration/MX_fS_VE_MTurk/MX_fS_HTML.html#70,70,1348,648,1366,768,0-31-2024,14-51-44,29,VR_target_stimuli/s29_0.75x_1.3_246.png,250,0.75x,1.3,0,5761,247,feet,jsons/MX_seq39_0_VE250_flipped.json,339973,572389,25,Woman
29,571207,final-intermixed-textured,v2,jsons/MX_seq39_0_VE250_flipped.json,http://54.235.29.9/FacialAge/BNav_EC2/DepthDuration/MX_fS_VE_MTurk/MX_fS_HTML.html#70,70,1348,648,1366,768,0-31-2024,14-51-44,30,VR_target_stimuli/s28_1.3x_3.2_365_BC.png,250,1.3x,3.2,0,4436,249,feet,jsons/MX_seq39_0_VE250_flipped.json,339973,572389,25,Woman
30,571207,final-intermixed-textured,v2,jsons/MX_seq39_0_VE250_flipped.json,http://54.235.29.9/FacialAge/BNav_EC2/DepthDuration/MX_fS_VE_MTurk/MX_fS_HTML.html#70,70,1348,648,1366,768,0-31-2024,14-51-44,31,VR_target_stimuli/s48_1x_2.55_256_BC.png,250,1x,2.55,0,3989,250,feet,jsons/MX_seq39_0_VE250_flipped.json,339973,572389,25,Woman
31,571207,final-intermixed-textured,v2,jsons/MX_seq39_0_VE250_flipped.json,http://54.235.29.9/FacialAge/BNav_EC2/DepthDuration/MX_fS_VE_MTurk/MX_fS_HTML.html#70,70,1348,648,1366,768,0-31-2024,14-51-44,32,VR_target_stimuli/s19_1.3x_1.21_270.png,250,1.3x,1.21,0,5030,250,feet,jsons/MX_seq39_0_VE250_flipped.json,339973,572389,25,Woman
32,571207,final-intermixed-textured,v2,jsons/MX_seq39_0_VE250_flipped.json,http://54.235.29.9/FacialAge/BNav_EC2/DepthDuration/MX_fS_VE_MTurk/MX_fS_HTML.html#70,70,1348,648,1366,768,0-31-2024,14-51-44,33,VR_target_stimuli/s21_0.75x_4.22_374_BC.png,250,0.75x,4.22,0,4988,266,feet,jsons/MX_seq39_0_VE250_flipped.json,339973,572389,25,Woman
33,571207,final-intermixed-textured,v2,jsons/MX_seq39_0_VE250_flipped.json,http://54.235.29.9/FacialAge/BNav_EC2/DepthDuration/MX_fS_VE_MTurk/MX_fS_HTML.html#70,70,1348,648,1366,768,0-31-2024,14-51-44,34,catch_stimuli/c3_BC.png,250,,,0,4654,239,feet,jsons/MX_seq39_0_VE250_flipped.json,339973,572389,25,Woman
34,571207,final-intermixed-textured,v2,jsons/MX_seq39_0_VE250_flipped.json,http://54.235.29.9/FacialAge/BNav_EC2/DepthDuration/MX_fS_VE_MTurk/MX_fS_HTML.html#70,70,1348,648,1366,768,0-31-2024,14-51-44,35,VR_target_stimuli/s8_1.3x_3.1_345_BC.png,250,1.3x,3.1,0,6371,247,feet,jsons/MX_seq39_0_VE250_flipped.json,339973,572389,25,Woman
35,571207,final-intermixed-textured,v2,jsons/MX_seq39_0_VE250_flipped.json,http://54.235.29.9/FacialAge/BNav_EC2/DepthDuration/MX_fS_VE_MTurk/MX_fS_HTML.html#70,70,1348,648,1366,768,0-31-2024,14-51-44,36,VR_target_stimuli/s27_1x_1.76_248_BC.png,250,1x,1.76,2,4452,247,feet,jsons/MX_seq39_0_VE250_flipped.json,339973,572389,25,Woman
36,571207,final-intermixed-textured,v2,jsons/MX_seq39_0_VE250_flipped.json,http://54.235.29.9/FacialAge/BNav_EC2/DepthDuration/MX_fS_VE_MTurk/MX_fS_HTML.html#70,70,1348,648,1366,768,0-31-2024,14-51-44,37,VR_target_stimuli/s15_0.75x_4.2_388_BC.png,250,0.75x,4.2,4,5071,239,feet,jsons/MX_seq39_0_VE250_flipped.json,339973,572389,25,Woman
37,571207,final-intermixed-textured,v2,jsons/MX_seq39_0_VE250_flipped.json,http://54.235.29.9/FacialAge/BNav_EC2/DepthDuration/MX_fS_VE_MTurk/MX_fS_HTML.html#70,70,1348,648,1366,768,0-31-2024,14-51-44,38,VR_target_stimuli/s4_0.75x_1.4_301.png,250,0.75x,1.4,0,4904,257,feet,jsons/MX_seq39_0_VE250_flipped.json,339973,572389,25,Woman
38,571207,final-intermixed-textured,v2,jsons/MX_seq39_0_VE250_flipped.json,http://54.235.29.9/FacialAge/BNav_EC2/DepthDuration/MX_fS_VE_MTurk/MX_fS_HTML.html#70,70,1348,648,1366,768,0-31-2024,14-51-44,39,VR_target_stimuli/s35_1.3x_2_338.png,250,1.3x,2.0,0,4705,265,feet,jsons/MX_seq39_0_VE250_flipped.json,339973,572389,25,Woman
39,571207,final-intermixed-textured,v2,jsons/MX_seq39_0_VE250_flipped.json,http://54.235.29.9/FacialAge/BNav_EC2/DepthDuration/MX_fS_VE_MTurk/MX_fS_HTML.html#70,70,1348,648,1366,768,0-31-2024,14-51-44,40,VR_target_stimuli/s49_1x_4.67_341.png,250,1x,4.67,6,4397,257,feet,jsons/MX_seq39_0_VE250_flipped.json,339973,572389,25,Woman
40,571207,final-intermixed-textured,v2,jsons/MX_seq39_0_VE250_flipped.json,http://54.235.29.9/FacialAge/BNav_EC2/DepthDuration/MX_fS_VE_MTurk/MX_fS_HTML.html#70,70,1348,648,1366,768,0-31-2024,14-51-44,41,VR_target_stimuli/s7_1.3x_1.5_256.png,250,1.3x,1.5,0,4520,248,feet,jsons/MX_seq39_0_VE250_flipped.json,339973,572389,25,Woman
41,571207,final-intermixed-textured,v2,jsons/MX_seq39_0_VE250_flipped.json,http://54.235.29.9/FacialAge/BNav_EC2/DepthDuration/MX_fS_VE_MTurk/MX_fS_HTML.html#70,70,1348,648,1366,768,0-31-2024,14-51-44,42,VR_target_stimuli/s20_0.75x_4.99_390_BC.png,250,0.75x,4.99,0,4663,241,feet,jsons/MX_seq39_0_VE250_flipped.json,339973,572389,25,Woman
42,571207,final-intermixed-textured,v2,jsons/MX_seq39_0_VE250_flipped.json,http://54.235.29.9/FacialAge/BNav_EC2/DepthDuration/MX_fS_VE_MTurk/MX_fS_HTML.html#70,70,1348,648,1366,768,0-31-2024,14-51-44,43,VR_target_stimuli/s31_1x_4.96_333.png,250,1x,4.96,0,4597,241,feet,jsons/MX_seq39_0_VE250_flipped.json,339973,572389,25,Woman
43,571207,final-intermixed-textured,v2,jsons/MX_seq39_0_VE250_flipped.json,http://54.235.29.9/FacialAge/BNav_EC2/DepthDuration/MX_fS_VE_MTurk/MX_fS_HTML.html#70,70,1348,648,1366,768,0-31-2024,14-51-44,44,VR_target_stimuli/s33_0.75x_3.1_361.png,250,0.75x,3.1,0,4126,250,feet,jsons/MX_seq39_0_VE250_flipped.json,339973,572389,25,Woman
44,571207,final-intermixed-textured,v2,jsons/MX_seq39_0_VE250_flipped.json,http://54.235.29.9/FacialAge/BNav_EC2/DepthDuration/MX_fS_VE_MTurk/MX_fS_HTML.html#70,70,1348,648,1366,768,0-31-2024,14-51-44,45,catch_stimuli/c4_BC.png,250,,,0,3855,242,feet,jsons/MX_seq39_0_VE250_flipped.json,339973,572389,25,Woman
45,571207,final-intermixed-textured,v2,jsons/MX_seq39_0_VE250_flipped.json,http://54.235.29.9/FacialAge/BNav_EC2/DepthDuration/MX_fS_VE_MTurk/MX_fS_HTML.html#70,70,1348,648,1366,768,0-31-2024,14-51-44,46,VR_target_stimuli/s52_1.3x_3.2_280_BC.png,250,1.3x,3.2,2,5324,250,feet,jsons/MX_seq39_0_VE250_flipped.json,339973,572389,25,Woman
46,571207,final-intermixed-textured,v2,jsons/MX_seq39_0_VE250_flipped.json,http://54.235.29.9/FacialAge/BNav_EC2/DepthDuration/MX_fS_VE_MTurk/MX_fS_HTML.html#70,70,1348,648,1366,768,0-31-2024,14-51-44,47,VR_target_stimuli/s32_1x_1.5_218_BC.png,250,1x,1.5,0,4030,250,feet,jsons/MX_seq39_0_VE250_flipped.json,339973,572389,25,Woman
47,571207,final-intermixed-textured,v2,jsons/MX_seq39_0_VE250_flipped.json,http://54.235.29.9/FacialAge/BNav_EC2/DepthDuration/MX_fS_VE_MTurk/MX_fS_HTML.html#70,70,1348,648,1366,768,0-31-2024,14-51-44,48,VR_target_stimuli/s18_1x_2.25_353.png,250,1x,2.25,0,4071,238,feet,jsons/MX_seq39_0_VE250_flipped.json,339973,572389,25,Woman
48,571207,final-intermixed-textured,v2,jsons/MX_seq39_0_VE250_flipped.json,http://54.235.29.9/FacialAge/BNav_EC2/DepthDuration/MX_fS_VE_MTurk/MX_fS_HTML.html#70,70,1348,648,1366,768,0-31-2024,14-51-44,49,VR_target_stimuli/s39_0.75x_1_205_BC.png,250,0.75x,1.0,0,4210,249,feet,jsons/MX_seq39_0_VE250_flipped.json,339973,572389,25,Woman
49,571207,final-intermixed-textured,v2,jsons/MX_seq39_0_VE250_flipped.json,http://54.235.29.9/FacialAge/BNav_EC2/DepthDuration/MX_fS_VE_MTurk/MX_fS_HTML.html#70,70,1348,648,1366,768,0-31-2024,14-51-44,50,VR_target_stimuli/s51_1.3x_3.64_479.png,250,1.3x,3.64,2,4688,251,feet,jsons/MX_seq39_0_VE250_flipped.json,339973,572389,25,Woman
50,571207,final-intermixed-textured,v2,jsons/MX_seq39_0_VE250_flipped.json,http://54.235.29.9/FacialAge/BNav_EC2/DepthDuration/MX_fS_VE_MTurk/MX_fS_HTML.html#70,70,1348,648,1366,768,0-31-2024,14-51-44,51,VR_target_stimuli/s43_0.75x_2.2_348.png,250,0.75x,2.2,4,5255,249,feet,jsons/MX_seq39_0_VE250_flipped.json,339973,572389,25,Woman
51,571207,final-intermixed-textured,v2,jsons/MX_seq39_0_VE250_flipped.json,http://54.235.29.9/FacialAge/BNav_EC2/DepthDuration/MX_fS_VE_MTurk/MX_fS_HTML.html#70,70,1348,648,1366,768,0-31-2024,14-51-44,52,VR_target_stimuli/s24_1x_3.3_349_BC.png,250,1x,3.3,0,5242,254,feet,jsons/MX_seq39_0_VE250_flipped.json,339973,572389,25,Woman
52,571207,final-intermixed-textured,v2,jsons/MX_seq39_0_VE250_flipped.json,http://54.235.29.9/FacialAge/BNav_EC2/DepthDuration/MX_fS_VE_MTurk/MX_fS_HTML.html#70,70,1348,648,1366,768,0-31-2024,14-51-44,53,catch_stimuli/c5_BC.png,250,,,0,4772,249,feet,jsons/MX_seq39_0_VE250_flipped.json,339973,572389,25,Woman
53,571207,final-intermixed-textured,v2,jsons/MX_seq39_0_VE250_flipped.json,http://54.235.29.9/FacialAge/BNav_EC2/DepthDuration/MX_fS_VE_MTurk/MX_fS_HTML.html#70,70,1348,648,1366,768,0-31-2024,14-51-44,54,VR_target_stimuli/s10_1.3x_2.7_325_BC.png,250,1.3x,2.7,0,4920,248,feet,jsons/MX_seq39_0_VE250_flipped.json,339973,572389,25,Woman
54,571207,final-intermixed-textured,v2,jsons/MX_seq39_0_VE250_flipped.json,http://54.235.29.9/FacialAge/BNav_EC2/DepthDuration/MX_fS_VE_MTurk/MX_fS_HTML.html#70,70,1348,648,1366,768,0-31-2024,14-51-44,55,VR_target_stimuli/s36_1x_4.1_423.png,250,1x,4.1,0,6129,255,feet,jsons/MX_seq39_0_VE250_flipped.json,339973,572389,25,Woman
55,571207,final-intermixed-textured,v2,jsons/MX_seq39_0_VE250_flipped.json,http://54.235.29.9/FacialAge/BNav_EC2/DepthDuration/MX_fS_VE_MTurk/MX_fS_HTML.html#70,70,1348,648,1366,768,0-31-2024,14-51-44,56,VR_target_stimuli/s40_0.75x_1.2_308.png,250,0.75x,1.2,0,4862,247,feet,jsons/MX_seq39_0_VE250_flipped.json,339973,572389,25,Woman
56,571207,final-intermixed-textured,v2,jsons/MX_seq39_0_VE250_flipped.json,http://54.235.29.9/FacialAge/BNav_EC2/DepthDuration/MX_fS_VE_MTurk/MX_fS_HTML.html#70,70,1348,648,1366,768,0-31-2024,14-51-44,57,VR_target_stimuli/s41_1.3x_2.1_294_BC.png,250,1.3x,2.1,4,5262,232,feet,jsons/MX_seq39_0_VE250_flipped.json,339973,572389,25,Woman
57,571207,final-intermixed-textured,v2,jsons/MX_seq39_0_VE250_flipped.json,http://54.235.29.9/FacialAge/BNav_EC2/DepthDuration/MX_fS_VE_MTurk/MX_fS_HTML.html#70,70,1348,648,1366,768,0-31-2024,14-51-44,58,VR_target_stimuli/s45_1.3x_3.5_377.png,250,1.3x,3.5,0,8894,248,feet,jsons/MX_seq39_0_VE250_flipped.json,339973,572389,25,Woman
58,571207,final-intermixed-textured,v2,jsons/MX_seq39_0_VE250_flipped.json,http://54.235.29.9/FacialAge/BNav_EC2/DepthDuration/MX_fS_VE_MTurk/MX_fS_HTML.html#70,70,1348,648,1366,768,0-31-2024,14-51-44,59,VR_target_stimuli/s23_1x_3.65_353_BC.png,250,1x,3.65,0,4536,245,feet,jsons/MX_seq39_0_VE250_flipped.json,339973,572389,25,Woman
59,571207,final-intermixed-textured,v2,jsons/MX_seq39_0_VE250_flipped.json,http://54.235.29.9/FacialAge/BNav_EC2/DepthDuration/MX_fS_VE_MTurk/MX_fS_HTML.html#70,70,1348,648,1366,768,0-31-2024,14-51-44,60,VR_target_stimuli/s26_0.75x_4_430_BC.png,250,0.75x,4.0,0,4543,257,feet,jsons/MX_seq39_0_VE250_flipped.json,339973,572389,25,Woman
