,subjID,experimentName,versionName,sequenceName,url,selected_row,windowWidth,windowHeight,screenWidth,screenHeight,startDate,startTime,trial,stimulus,duration,scale,actual_depth,depth_estimate,trial_RT,log_sceneDuration,unitSelection,seq_filepath,experimentTime,totalTime,age,gender
0,578897,final-intermixed-textured,v2,jsons/MX_seq31_2_VE250.json,http://54.235.29.9/FacialAge/BNav_EC2/DepthDuration/MX_fS_VE_MTurk/MX_fS_HTML.html#87,87,1850,932,1920,1080,0-31-2024,15-7-56,1,VR_target_stimuli/s24_1x_3.3_349.png,250,1x,3.3,3.0,4134,250,meters,jsons/MX_seq31_2_VE250.json,220578,646301,21,Man
1,578897,final-intermixed-textured,v2,jsons/MX_seq31_2_VE250.json,http://54.235.29.9/FacialAge/BNav_EC2/DepthDuration/MX_fS_VE_MTurk/MX_fS_HTML.html#87,87,1850,932,1920,1080,0-31-2024,15-7-56,2,VR_target_stimuli/s10_1.3x_2.7_325_BC.png,250,1.3x,2.7,3.3,8097,250,meters,jsons/MX_seq31_2_VE250.json,220578,646301,21,Man
2,578897,final-intermixed-textured,v2,jsons/MX_seq31_2_VE250.json,http://54.235.29.9/FacialAge/BNav_EC2/DepthDuration/MX_fS_VE_MTurk/MX_fS_HTML.html#87,87,1850,932,1920,1080,0-31-2024,15-7-56,3,VR_target_stimuli/s36_0.75x_4.1_407_BC.png,250,0.75x,4.1,5.3,6996,249,meters,jsons/MX_seq31_2_VE250.json,220578,646301,21,Man
3,578897,final-intermixed-textured,v2,jsons/MX_seq31_2_VE250.json,http://54.235.29.9/FacialAge/BNav_EC2/DepthDuration/MX_fS_VE_MTurk/MX_fS_HTML.html#87,87,1850,932,1920,1080,0-31-2024,15-7-56,4,VR_target_stimuli/s40_1.3x_1.2_332.png,250,1.3x,1.2,1.5,8154,249,meters,jsons/MX_seq31_2_VE250.json,220578,646301,21,Man
4,578897,final-intermixed-textured,v2,jsons/MX_seq31_2_VE250.json,http://54.235.29.9/FacialAge/BNav_EC2/DepthDuration/MX_fS_VE_MTurk/MX_fS_HTML.html#87,87,1850,932,1920,1080,0-31-2024,15-7-56,5,VR_target_stimuli/s41_1x_2.1_286_BC.png,250,1x,2.1,3.5,5660,249,meters,jsons/MX_seq31_2_VE250.json,220578,646301,21,Man
5,578897,final-intermixed-textured,v2,jsons/MX_seq31_2_VE250.json,http://54.235.29.9/FacialAge/BNav_EC2/DepthDuration/MX_fS_VE_MTurk/MX_fS_HTML.html#87,87,1850,932,1920,1080,0-31-2024,15-7-56,6,VR_target_stimuli/s45_0.75x_3.5_362.png,250,0.75x,3.5,4.3,3563,250,meters,jsons/MX_seq31_2_VE250.json,220578,646301,21,Man
6,578897,final-intermixed-textured,v2,jsons/MX_seq31_2_VE250.json,http://54.235.29.9/FacialAge/BNav_EC2/DepthDuration/MX_fS_VE_MTurk/MX_fS_HTML.html#87,87,1850,932,1920,1080,0-31-2024,15-7-56,7,catch_stimuli/c0.png,250,,,0.0,2566,249,meters,jsons/MX_seq31_2_VE250.json,220578,646301,21,Man
7,578897,final-intermixed-textured,v2,jsons/MX_seq31_2_VE250.json,http://54.235.29.9/FacialAge/BNav_EC2/DepthDuration/MX_fS_VE_MTurk/MX_fS_HTML.html#87,87,1850,932,1920,1080,0-31-2024,15-7-56,8,VR_target_stimuli/s23_0.75x_3.65_351.png,250,0.75x,3.65,3.5,6131,250,meters,jsons/MX_seq31_2_VE250.json,220578,646301,21,Man
8,578897,final-intermixed-textured,v2,jsons/MX_seq31_2_VE250.json,http://54.235.29.9/FacialAge/BNav_EC2/DepthDuration/MX_fS_VE_MTurk/MX_fS_HTML.html#87,87,1850,932,1920,1080,0-31-2024,15-7-56,9,VR_target_stimuli/s26_1.3x_4_441.png,250,1.3x,4.0,4.0,2478,249,meters,jsons/MX_seq31_2_VE250.json,220578,646301,21,Man
9,578897,final-intermixed-textured,v2,jsons/MX_seq31_2_VE250.json,http://54.235.29.9/FacialAge/BNav_EC2/DepthDuration/MX_fS_VE_MTurk/MX_fS_HTML.html#87,87,1850,932,1920,1080,0-31-2024,15-7-56,10,VR_target_stimuli/s12_1x_3.1_372.png,250,1x,3.1,4.0,1988,249,meters,jsons/MX_seq31_2_VE250.json,220578,646301,21,Man
10,578897,final-intermixed-textured,v2,jsons/MX_seq31_2_VE250.json,http://54.235.29.9/FacialAge/BNav_EC2/DepthDuration/MX_fS_VE_MTurk/MX_fS_HTML.html#87,87,1850,932,1920,1080,0-31-2024,15-7-56,11,VR_target_stimuli/s30_1.3x_2.3_337_BC.png,250,1.3x,2.3,3.5,3234,249,meters,jsons/MX_seq31_2_VE250.json,220578,646301,21,Man
11,578897,final-intermixed-textured,v2,jsons/MX_seq31_2_VE250.json,http://54.235.29.9/FacialAge/BNav_EC2/DepthDuration/MX_fS_VE_MTurk/MX_fS_HTML.html#87,87,1850,932,1920,1080,0-31-2024,15-7-56,12,VR_target_stimuli/s16_0.75x_1_217_BC.png,250,0.75x,1.0,2.0,3759,249,meters,jsons/MX_seq31_2_VE250.json,220578,646301,21,Man
12,578897,final-intermixed-textured,v2,jsons/MX_seq31_2_VE250.json,http://54.235.29.9/FacialAge/BNav_EC2/DepthDuration/MX_fS_VE_MTurk/MX_fS_HTML.html#87,87,1850,932,1920,1080,0-31-2024,15-7-56,13,VR_target_stimuli/s17_1x_1.8_291_BC.png,250,1x,1.8,2.3,2940,249,meters,jsons/MX_seq31_2_VE250.json,220578,646301,21,Man
13,578897,final-intermixed-textured,v2,jsons/MX_seq31_2_VE250.json,http://54.235.29.9/FacialAge/BNav_EC2/DepthDuration/MX_fS_VE_MTurk/MX_fS_HTML.html#87,87,1850,932,1920,1080,0-31-2024,15-7-56,14,VR_target_stimuli/s5_0.75x_4_375.png,250,0.75x,4.0,5.0,5195,249,meters,jsons/MX_seq31_2_VE250.json,220578,646301,21,Man
14,578897,final-intermixed-textured,v2,jsons/MX_seq31_2_VE250.json,http://54.235.29.9/FacialAge/BNav_EC2/DepthDuration/MX_fS_VE_MTurk/MX_fS_HTML.html#87,87,1850,932,1920,1080,0-31-2024,15-7-56,15,VR_target_stimuli/s37_1.3x_3.3_555.png,250,1.3x,3.3,1.5,4241,250,meters,jsons/MX_seq31_2_VE250.json,220578,646301,21,Man
15,578897,final-intermixed-textured,v2,jsons/MX_seq31_2_VE250.json,http://54.235.29.9/FacialAge/BNav_EC2/DepthDuration/MX_fS_VE_MTurk/MX_fS_HTML.html#87,87,1850,932,1920,1080,0-31-2024,15-7-56,16,VR_target_stimuli/s46_1x_2.42_348.png,250,1x,2.42,5.3,4482,250,meters,jsons/MX_seq31_2_VE250.json,220578,646301,21,Man
16,578897,final-intermixed-textured,v2,jsons/MX_seq31_2_VE250.json,http://54.235.29.9/FacialAge/BNav_EC2/DepthDuration/MX_fS_VE_MTurk/MX_fS_HTML.html#87,87,1850,932,1920,1080,0-31-2024,15-7-56,17,catch_stimuli/c1.png,250,,,0.0,2039,249,meters,jsons/MX_seq31_2_VE250.json,220578,646301,21,Man
17,578897,final-intermixed-textured,v2,jsons/MX_seq31_2_VE250.json,http://54.235.29.9/FacialAge/BNav_EC2/DepthDuration/MX_fS_VE_MTurk/MX_fS_HTML.html#87,87,1850,932,1920,1080,0-31-2024,15-7-56,18,VR_target_stimuli/s22_1x_4.29_354_BC.png,250,1x,4.29,6.0,3819,250,meters,jsons/MX_seq31_2_VE250.json,220578,646301,21,Man
18,578897,final-intermixed-textured,v2,jsons/MX_seq31_2_VE250.json,http://54.235.29.9/FacialAge/BNav_EC2/DepthDuration/MX_fS_VE_MTurk/MX_fS_HTML.html#87,87,1850,932,1920,1080,0-31-2024,15-7-56,19,VR_target_stimuli/s42_0.75x_3.2_301_BC.png,250,0.75x,3.2,5.5,2691,249,meters,jsons/MX_seq31_2_VE250.json,220578,646301,21,Man
19,578897,final-intermixed-textured,v2,jsons/MX_seq31_2_VE250.json,http://54.235.29.9/FacialAge/BNav_EC2/DepthDuration/MX_fS_VE_MTurk/MX_fS_HTML.html#87,87,1850,932,1920,1080,0-31-2024,15-7-56,20,VR_target_stimuli/s25_1.3x_1.4_299_BC.png,250,1.3x,1.4,2.0,2057,248,meters,jsons/MX_seq31_2_VE250.json,220578,646301,21,Man
20,578897,final-intermixed-textured,v2,jsons/MX_seq31_2_VE250.json,http://54.235.29.9/FacialAge/BNav_EC2/DepthDuration/MX_fS_VE_MTurk/MX_fS_HTML.html#87,87,1850,932,1920,1080,0-31-2024,15-7-56,21,VR_target_stimuli/s50_0.75x_4.53_517_BC.png,250,0.75x,4.53,3.0,2033,249,meters,jsons/MX_seq31_2_VE250.json,220578,646301,21,Man
21,578897,final-intermixed-textured,v2,jsons/MX_seq31_2_VE250.json,http://54.235.29.9/FacialAge/BNav_EC2/DepthDuration/MX_fS_VE_MTurk/MX_fS_HTML.html#87,87,1850,932,1920,1080,0-31-2024,15-7-56,22,VR_target_stimuli/s53_1x_1.6_387.png,250,1x,1.6,0.8,5510,249,meters,jsons/MX_seq31_2_VE250.json,220578,646301,21,Man
22,578897,final-intermixed-textured,v2,jsons/MX_seq31_2_VE250.json,http://54.235.29.9/FacialAge/BNav_EC2/DepthDuration/MX_fS_VE_MTurk/MX_fS_HTML.html#87,87,1850,932,1920,1080,0-31-2024,15-7-56,23,VR_target_stimuli/s38_1.3x_3.55_358.png,250,1.3x,3.55,5.0,3689,249,meters,jsons/MX_seq31_2_VE250.json,220578,646301,21,Man
23,578897,final-intermixed-textured,v2,jsons/MX_seq31_2_VE250.json,http://54.235.29.9/FacialAge/BNav_EC2/DepthDuration/MX_fS_VE_MTurk/MX_fS_HTML.html#87,87,1850,932,1920,1080,0-31-2024,15-7-56,24,VR_target_stimuli/s9_1x_1.2_263_BC.png,250,1x,1.2,1.0,2160,249,meters,jsons/MX_seq31_2_VE250.json,220578,646301,21,Man
24,578897,final-intermixed-textured,v2,jsons/MX_seq31_2_VE250.json,http://54.235.29.9/FacialAge/BNav_EC2/DepthDuration/MX_fS_VE_MTurk/MX_fS_HTML.html#87,87,1850,932,1920,1080,0-31-2024,15-7-56,25,VR_target_stimuli/s44_0.75x_4.4_314.png,250,0.75x,4.4,8.0,3901,249,meters,jsons/MX_seq31_2_VE250.json,220578,646301,21,Man
25,578897,final-intermixed-textured,v2,jsons/MX_seq31_2_VE250.json,http://54.235.29.9/FacialAge/BNav_EC2/DepthDuration/MX_fS_VE_MTurk/MX_fS_HTML.html#87,87,1850,932,1920,1080,0-31-2024,15-7-56,26,catch_stimuli/c2.png,250,,,0.0,1545,249,meters,jsons/MX_seq31_2_VE250.json,220578,646301,21,Man
26,578897,final-intermixed-textured,v2,jsons/MX_seq31_2_VE250.json,http://54.235.29.9/FacialAge/BNav_EC2/DepthDuration/MX_fS_VE_MTurk/MX_fS_HTML.html#87,87,1850,932,1920,1080,0-31-2024,15-7-56,27,VR_target_stimuli/s3_1.3x_5_390_BC.png,250,1.3x,5.0,7.0,2768,249,meters,jsons/MX_seq31_2_VE250.json,220578,646301,21,Man
27,578897,final-intermixed-textured,v2,jsons/MX_seq31_2_VE250.json,http://54.235.29.9/FacialAge/BNav_EC2/DepthDuration/MX_fS_VE_MTurk/MX_fS_HTML.html#87,87,1850,932,1920,1080,0-31-2024,15-7-56,28,VR_target_stimuli/s1_1.3x_1.7_261.png,250,1.3x,1.7,3.0,1892,249,meters,jsons/MX_seq31_2_VE250.json,220578,646301,21,Man
28,578897,final-intermixed-textured,v2,jsons/MX_seq31_2_VE250.json,http://54.235.29.9/FacialAge/BNav_EC2/DepthDuration/MX_fS_VE_MTurk/MX_fS_HTML.html#87,87,1850,932,1920,1080,0-31-2024,15-7-56,29,VR_target_stimuli/s11_1x_5_361.png,250,1x,5.0,7.0,2633,250,meters,jsons/MX_seq31_2_VE250.json,220578,646301,21,Man
29,578897,final-intermixed-textured,v2,jsons/MX_seq31_2_VE250.json,http://54.235.29.9/FacialAge/BNav_EC2/DepthDuration/MX_fS_VE_MTurk/MX_fS_HTML.html#87,87,1850,932,1920,1080,0-31-2024,15-7-56,30,VR_target_stimuli/s2_0.75x_2.7_384_BC.png,250,0.75x,2.7,0.0,1743,249,meters,jsons/MX_seq31_2_VE250.json,220578,646301,21,Man
30,578897,final-intermixed-textured,v2,jsons/MX_seq31_2_VE250.json,http://54.235.29.9/FacialAge/BNav_EC2/DepthDuration/MX_fS_VE_MTurk/MX_fS_HTML.html#87,87,1850,932,1920,1080,0-31-2024,15-7-56,31,VR_target_stimuli/s6_1.3x_2.1_298_BC.png,250,1.3x,2.1,3.0,2469,250,meters,jsons/MX_seq31_2_VE250.json,220578,646301,21,Man
31,578897,final-intermixed-textured,v2,jsons/MX_seq31_2_VE250.json,http://54.235.29.9/FacialAge/BNav_EC2/DepthDuration/MX_fS_VE_MTurk/MX_fS_HTML.html#87,87,1850,932,1920,1080,0-31-2024,15-7-56,32,VR_target_stimuli/s0_0.75x_2.6_345.png,250,0.75x,2.6,3.5,2583,250,meters,jsons/MX_seq31_2_VE250.json,220578,646301,21,Man
32,578897,final-intermixed-textured,v2,jsons/MX_seq31_2_VE250.json,http://54.235.29.9/FacialAge/BNav_EC2/DepthDuration/MX_fS_VE_MTurk/MX_fS_HTML.html#87,87,1850,932,1920,1080,0-31-2024,15-7-56,33,VR_target_stimuli/s34_1x_2.8_283_BC.png,250,1x,2.8,6.0,2951,249,meters,jsons/MX_seq31_2_VE250.json,220578,646301,21,Man
33,578897,final-intermixed-textured,v2,jsons/MX_seq31_2_VE250.json,http://54.235.29.9/FacialAge/BNav_EC2/DepthDuration/MX_fS_VE_MTurk/MX_fS_HTML.html#87,87,1850,932,1920,1080,0-31-2024,15-7-56,34,catch_stimuli/c3.png,250,,,0.0,1437,250,meters,jsons/MX_seq31_2_VE250.json,220578,646301,21,Man
34,578897,final-intermixed-textured,v2,jsons/MX_seq31_2_VE250.json,http://54.235.29.9/FacialAge/BNav_EC2/DepthDuration/MX_fS_VE_MTurk/MX_fS_HTML.html#87,87,1850,932,1920,1080,0-31-2024,15-7-56,35,VR_target_stimuli/s13_0.75x_2.4_308_BC.png,250,0.75x,2.4,6.0,2683,249,meters,jsons/MX_seq31_2_VE250.json,220578,646301,21,Man
35,578897,final-intermixed-textured,v2,jsons/MX_seq31_2_VE250.json,http://54.235.29.9/FacialAge/BNav_EC2/DepthDuration/MX_fS_VE_MTurk/MX_fS_HTML.html#87,87,1850,932,1920,1080,0-31-2024,15-7-56,36,VR_target_stimuli/s14_1.3x_3.83_359_BC.png,250,1.3x,3.83,7.0,1961,249,meters,jsons/MX_seq31_2_VE250.json,220578,646301,21,Man
36,578897,final-intermixed-textured,v2,jsons/MX_seq31_2_VE250.json,http://54.235.29.9/FacialAge/BNav_EC2/DepthDuration/MX_fS_VE_MTurk/MX_fS_HTML.html#87,87,1850,932,1920,1080,0-31-2024,15-7-56,37,VR_target_stimuli/s47_1x_3.45_370.png,250,1x,3.45,5.0,2597,249,meters,jsons/MX_seq31_2_VE250.json,220578,646301,21,Man
37,578897,final-intermixed-textured,v2,jsons/MX_seq31_2_VE250.json,http://54.235.29.9/FacialAge/BNav_EC2/DepthDuration/MX_fS_VE_MTurk/MX_fS_HTML.html#87,87,1850,932,1920,1080,0-31-2024,15-7-56,38,VR_target_stimuli/s29_1x_1.3_250_BC.png,250,1x,1.3,3.0,1816,249,meters,jsons/MX_seq31_2_VE250.json,220578,646301,21,Man
38,578897,final-intermixed-textured,v2,jsons/MX_seq31_2_VE250.json,http://54.235.29.9/FacialAge/BNav_EC2/DepthDuration/MX_fS_VE_MTurk/MX_fS_HTML.html#87,87,1850,932,1920,1080,0-31-2024,15-7-56,39,VR_target_stimuli/s28_0.75x_3.2_357.png,250,0.75x,3.2,5.0,2225,249,meters,jsons/MX_seq31_2_VE250.json,220578,646301,21,Man
39,578897,final-intermixed-textured,v2,jsons/MX_seq31_2_VE250.json,http://54.235.29.9/FacialAge/BNav_EC2/DepthDuration/MX_fS_VE_MTurk/MX_fS_HTML.html#87,87,1850,932,1920,1080,0-31-2024,15-7-56,40,VR_target_stimuli/s48_1.3x_2.55_255.png,250,1.3x,2.55,5.5,2847,250,meters,jsons/MX_seq31_2_VE250.json,220578,646301,21,Man
40,578897,final-intermixed-textured,v2,jsons/MX_seq31_2_VE250.json,http://54.235.29.9/FacialAge/BNav_EC2/DepthDuration/MX_fS_VE_MTurk/MX_fS_HTML.html#87,87,1850,932,1920,1080,0-31-2024,15-7-56,41,VR_target_stimuli/s19_0.75x_1.21_257.png,250,0.75x,1.21,2.0,1922,250,meters,jsons/MX_seq31_2_VE250.json,220578,646301,21,Man
41,578897,final-intermixed-textured,v2,jsons/MX_seq31_2_VE250.json,http://54.235.29.9/FacialAge/BNav_EC2/DepthDuration/MX_fS_VE_MTurk/MX_fS_HTML.html#87,87,1850,932,1920,1080,0-31-2024,15-7-56,42,VR_target_stimuli/s21_1x_4.22_379_BC.png,250,1x,4.22,10.0,2338,252,meters,jsons/MX_seq31_2_VE250.json,220578,646301,21,Man
42,578897,final-intermixed-textured,v2,jsons/MX_seq31_2_VE250.json,http://54.235.29.9/FacialAge/BNav_EC2/DepthDuration/MX_fS_VE_MTurk/MX_fS_HTML.html#87,87,1850,932,1920,1080,0-31-2024,15-7-56,43,VR_target_stimuli/s8_1.3x_3.1_345_BC.png,250,1.3x,3.1,3.0,5885,249,meters,jsons/MX_seq31_2_VE250.json,220578,646301,21,Man
43,578897,final-intermixed-textured,v2,jsons/MX_seq31_2_VE250.json,http://54.235.29.9/FacialAge/BNav_EC2/DepthDuration/MX_fS_VE_MTurk/MX_fS_HTML.html#87,87,1850,932,1920,1080,0-31-2024,15-7-56,44,VR_target_stimuli/s27_1x_1.76_248.png,250,1x,1.76,3.4,2671,248,meters,jsons/MX_seq31_2_VE250.json,220578,646301,21,Man
44,578897,final-intermixed-textured,v2,jsons/MX_seq31_2_VE250.json,http://54.235.29.9/FacialAge/BNav_EC2/DepthDuration/MX_fS_VE_MTurk/MX_fS_HTML.html#87,87,1850,932,1920,1080,0-31-2024,15-7-56,45,catch_stimuli/c4.png,250,,,0.0,1946,250,meters,jsons/MX_seq31_2_VE250.json,220578,646301,21,Man
45,578897,final-intermixed-textured,v2,jsons/MX_seq31_2_VE250.json,http://54.235.29.9/FacialAge/BNav_EC2/DepthDuration/MX_fS_VE_MTurk/MX_fS_HTML.html#87,87,1850,932,1920,1080,0-31-2024,15-7-56,46,VR_target_stimuli/s15_0.75x_4.2_388_BC.png,250,0.75x,4.2,6.0,2404,249,meters,jsons/MX_seq31_2_VE250.json,220578,646301,21,Man
46,578897,final-intermixed-textured,v2,jsons/MX_seq31_2_VE250.json,http://54.235.29.9/FacialAge/BNav_EC2/DepthDuration/MX_fS_VE_MTurk/MX_fS_HTML.html#87,87,1850,932,1920,1080,0-31-2024,15-7-56,47,VR_target_stimuli/s4_1.3x_1.4_328.png,250,1.3x,1.4,2.0,1848,250,meters,jsons/MX_seq31_2_VE250.json,220578,646301,21,Man
47,578897,final-intermixed-textured,v2,jsons/MX_seq31_2_VE250.json,http://54.235.29.9/FacialAge/BNav_EC2/DepthDuration/MX_fS_VE_MTurk/MX_fS_HTML.html#87,87,1850,932,1920,1080,0-31-2024,15-7-56,48,VR_target_stimuli/s35_1.3x_2_338_BC.png,250,1.3x,2.0,3.0,1768,250,meters,jsons/MX_seq31_2_VE250.json,220578,646301,21,Man
48,578897,final-intermixed-textured,v2,jsons/MX_seq31_2_VE250.json,http://54.235.29.9/FacialAge/BNav_EC2/DepthDuration/MX_fS_VE_MTurk/MX_fS_HTML.html#87,87,1850,932,1920,1080,0-31-2024,15-7-56,49,VR_target_stimuli/s49_1x_4.67_341_BC.png,250,1x,4.67,5.0,2882,250,meters,jsons/MX_seq31_2_VE250.json,220578,646301,21,Man
49,578897,final-intermixed-textured,v2,jsons/MX_seq31_2_VE250.json,http://54.235.29.9/FacialAge/BNav_EC2/DepthDuration/MX_fS_VE_MTurk/MX_fS_HTML.html#87,87,1850,932,1920,1080,0-31-2024,15-7-56,50,VR_target_stimuli/s7_0.75x_1.5_253_BC.png,250,0.75x,1.5,3.0,3629,249,meters,jsons/MX_seq31_2_VE250.json,220578,646301,21,Man
50,578897,final-intermixed-textured,v2,jsons/MX_seq31_2_VE250.json,http://54.235.29.9/FacialAge/BNav_EC2/DepthDuration/MX_fS_VE_MTurk/MX_fS_HTML.html#87,87,1850,932,1920,1080,0-31-2024,15-7-56,51,VR_target_stimuli/s20_1x_4.99_398.png,250,1x,4.99,7.0,3761,250,meters,jsons/MX_seq31_2_VE250.json,220578,646301,21,Man
51,578897,final-intermixed-textured,v2,jsons/MX_seq31_2_VE250.json,http://54.235.29.9/FacialAge/BNav_EC2/DepthDuration/MX_fS_VE_MTurk/MX_fS_HTML.html#87,87,1850,932,1920,1080,0-31-2024,15-7-56,52,VR_target_stimuli/s31_1.3x_4.96_342.png,250,1.3x,4.96,2.0,1924,250,meters,jsons/MX_seq31_2_VE250.json,220578,646301,21,Man
52,578897,final-intermixed-textured,v2,jsons/MX_seq31_2_VE250.json,http://54.235.29.9/FacialAge/BNav_EC2/DepthDuration/MX_fS_VE_MTurk/MX_fS_HTML.html#87,87,1850,932,1920,1080,0-31-2024,15-7-56,53,catch_stimuli/c5.png,250,,,0.0,2018,250,meters,jsons/MX_seq31_2_VE250.json,220578,646301,21,Man
53,578897,final-intermixed-textured,v2,jsons/MX_seq31_2_VE250.json,http://54.235.29.9/FacialAge/BNav_EC2/DepthDuration/MX_fS_VE_MTurk/MX_fS_HTML.html#87,87,1850,932,1920,1080,0-31-2024,15-7-56,54,VR_target_stimuli/s33_0.75x_3.1_361.png,250,0.75x,3.1,4.0,3133,250,meters,jsons/MX_seq31_2_VE250.json,220578,646301,21,Man
54,578897,final-intermixed-textured,v2,jsons/MX_seq31_2_VE250.json,http://54.235.29.9/FacialAge/BNav_EC2/DepthDuration/MX_fS_VE_MTurk/MX_fS_HTML.html#87,87,1850,932,1920,1080,0-31-2024,15-7-56,55,VR_target_stimuli/s52_1.3x_3.2_280.png,250,1.3x,3.2,5.0,1990,249,meters,jsons/MX_seq31_2_VE250.json,220578,646301,21,Man
55,578897,final-intermixed-textured,v2,jsons/MX_seq31_2_VE250.json,http://54.235.29.9/FacialAge/BNav_EC2/DepthDuration/MX_fS_VE_MTurk/MX_fS_HTML.html#87,87,1850,932,1920,1080,0-31-2024,15-7-56,56,VR_target_stimuli/s32_1x_1.5_218_BC.png,250,1x,1.5,3.5,5697,249,meters,jsons/MX_seq31_2_VE250.json,220578,646301,21,Man
56,578897,final-intermixed-textured,v2,jsons/MX_seq31_2_VE250.json,http://54.235.29.9/FacialAge/BNav_EC2/DepthDuration/MX_fS_VE_MTurk/MX_fS_HTML.html#87,87,1850,932,1920,1080,0-31-2024,15-7-56,57,VR_target_stimuli/s18_0.75x_2.25_341.png,250,0.75x,2.25,3.0,2744,250,meters,jsons/MX_seq31_2_VE250.json,220578,646301,21,Man
57,578897,final-intermixed-textured,v2,jsons/MX_seq31_2_VE250.json,http://54.235.29.9/FacialAge/BNav_EC2/DepthDuration/MX_fS_VE_MTurk/MX_fS_HTML.html#87,87,1850,932,1920,1080,0-31-2024,15-7-56,58,VR_target_stimuli/s39_0.75x_1_205_BC.png,250,0.75x,1.0,2.0,1809,249,meters,jsons/MX_seq31_2_VE250.json,220578,646301,21,Man
58,578897,final-intermixed-textured,v2,jsons/MX_seq31_2_VE250.json,http://54.235.29.9/FacialAge/BNav_EC2/DepthDuration/MX_fS_VE_MTurk/MX_fS_HTML.html#87,87,1850,932,1920,1080,0-31-2024,15-7-56,59,VR_target_stimuli/s51_1.3x_3.64_479_BC.png,250,1.3x,3.64,2.5,2460,250,meters,jsons/MX_seq31_2_VE250.json,220578,646301,21,Man
59,578897,final-intermixed-textured,v2,jsons/MX_seq31_2_VE250.json,http://54.235.29.9/FacialAge/BNav_EC2/DepthDuration/MX_fS_VE_MTurk/MX_fS_HTML.html#87,87,1850,932,1920,1080,0-31-2024,15-7-56,60,VR_target_stimuli/s43_1x_2.2_354.png,250,1x,2.2,3.0,1994,249,meters,jsons/MX_seq31_2_VE250.json,220578,646301,21,Man
