,subjID,experimentName,versionName,sequenceName,url,selected_row,windowWidth,windowHeight,screenWidth,screenHeight,startDate,startTime,trial,stimulus,duration,scale,actual_depth,depth_estimate,trial_RT,log_sceneDuration,unitSelection,seq_filepath,experimentTime,totalTime,age,gender
0,583583,final-intermixed-textured,v2,jsons/MX_seq43_0_VE250_flipped.json,http://54.235.29.9/FacialAge/BNav_EC2/DepthDuration/MX_fS_VE_MTurk/MX_fS_HTML.html#268,268,1920,1011,1920,1080,0-31-2024,19-10-24,1,VR_target_stimuli/s5_0.75x_4_375.png,250,0.75x,4.0,4.0,4760,244,meters,jsons/MX_seq43_0_VE250_flipped.json,301127,824285,29,Man
1,583583,final-intermixed-textured,v2,jsons/MX_seq43_0_VE250_flipped.json,http://54.235.29.9/FacialAge/BNav_EC2/DepthDuration/MX_fS_VE_MTurk/MX_fS_HTML.html#268,268,1920,1011,1920,1080,0-31-2024,19-10-24,2,VR_target_stimuli/s37_1x_3.3_563.png,250,1x,3.3,2.5,13452,249,meters,jsons/MX_seq43_0_VE250_flipped.json,301127,824285,29,Man
2,583583,final-intermixed-textured,v2,jsons/MX_seq43_0_VE250_flipped.json,http://54.235.29.9/FacialAge/BNav_EC2/DepthDuration/MX_fS_VE_MTurk/MX_fS_HTML.html#268,268,1920,1011,1920,1080,0-31-2024,19-10-24,3,VR_target_stimuli/s46_1.3x_2.42_354_BC.png,250,1.3x,2.42,4.0,3772,251,meters,jsons/MX_seq43_0_VE250_flipped.json,301127,824285,29,Man
3,583583,final-intermixed-textured,v2,jsons/MX_seq43_0_VE250_flipped.json,http://54.235.29.9/FacialAge/BNav_EC2/DepthDuration/MX_fS_VE_MTurk/MX_fS_HTML.html#268,268,1920,1011,1920,1080,0-31-2024,19-10-24,4,VR_target_stimuli/s22_1x_4.29_354_BC.png,250,1x,4.29,3.5,10232,249,meters,jsons/MX_seq43_0_VE250_flipped.json,301127,824285,29,Man
4,583583,final-intermixed-textured,v2,jsons/MX_seq43_0_VE250_flipped.json,http://54.235.29.9/FacialAge/BNav_EC2/DepthDuration/MX_fS_VE_MTurk/MX_fS_HTML.html#268,268,1920,1011,1920,1080,0-31-2024,19-10-24,5,VR_target_stimuli/s42_0.75x_3.2_301_BC.png,250,0.75x,3.2,2.5,4647,246,meters,jsons/MX_seq43_0_VE250_flipped.json,301127,824285,29,Man
5,583583,final-intermixed-textured,v2,jsons/MX_seq43_0_VE250_flipped.json,http://54.235.29.9/FacialAge/BNav_EC2/DepthDuration/MX_fS_VE_MTurk/MX_fS_HTML.html#268,268,1920,1011,1920,1080,0-31-2024,19-10-24,6,VR_target_stimuli/s25_1.3x_1.4_299.png,250,1.3x,1.4,1.5,4521,262,meters,jsons/MX_seq43_0_VE250_flipped.json,301127,824285,29,Man
6,583583,final-intermixed-textured,v2,jsons/MX_seq43_0_VE250_flipped.json,http://54.235.29.9/FacialAge/BNav_EC2/DepthDuration/MX_fS_VE_MTurk/MX_fS_HTML.html#268,268,1920,1011,1920,1080,0-31-2024,19-10-24,7,catch_stimuli/c0_BC.png,250,,,0.0,3208,248,meters,jsons/MX_seq43_0_VE250_flipped.json,301127,824285,29,Man
7,583583,final-intermixed-textured,v2,jsons/MX_seq43_0_VE250_flipped.json,http://54.235.29.9/FacialAge/BNav_EC2/DepthDuration/MX_fS_VE_MTurk/MX_fS_HTML.html#268,268,1920,1011,1920,1080,0-31-2024,19-10-24,8,VR_target_stimuli/s50_1.3x_4.53_518.png,250,1.3x,4.53,3.0,2715,248,meters,jsons/MX_seq43_0_VE250_flipped.json,301127,824285,29,Man
8,583583,final-intermixed-textured,v2,jsons/MX_seq43_0_VE250_flipped.json,http://54.235.29.9/FacialAge/BNav_EC2/DepthDuration/MX_fS_VE_MTurk/MX_fS_HTML.html#268,268,1920,1011,1920,1080,0-31-2024,19-10-24,9,VR_target_stimuli/s53_1x_1.6_387.png,250,1x,1.6,1.5,3978,260,meters,jsons/MX_seq43_0_VE250_flipped.json,301127,824285,29,Man
9,583583,final-intermixed-textured,v2,jsons/MX_seq43_0_VE250_flipped.json,http://54.235.29.9/FacialAge/BNav_EC2/DepthDuration/MX_fS_VE_MTurk/MX_fS_HTML.html#268,268,1920,1011,1920,1080,0-31-2024,19-10-24,10,VR_target_stimuli/s38_0.75x_3.55_346_BC.png,250,0.75x,3.55,4.5,4120,259,meters,jsons/MX_seq43_0_VE250_flipped.json,301127,824285,29,Man
10,583583,final-intermixed-textured,v2,jsons/MX_seq43_0_VE250_flipped.json,http://54.235.29.9/FacialAge/BNav_EC2/DepthDuration/MX_fS_VE_MTurk/MX_fS_HTML.html#268,268,1920,1011,1920,1080,0-31-2024,19-10-24,11,VR_target_stimuli/s9_1x_1.2_263_BC.png,250,1x,1.2,1.5,6132,255,meters,jsons/MX_seq43_0_VE250_flipped.json,301127,824285,29,Man
11,583583,final-intermixed-textured,v2,jsons/MX_seq43_0_VE250_flipped.json,http://54.235.29.9/FacialAge/BNav_EC2/DepthDuration/MX_fS_VE_MTurk/MX_fS_HTML.html#268,268,1920,1011,1920,1080,0-31-2024,19-10-24,12,VR_target_stimuli/s44_1.3x_4.4_325_BC.png,250,1.3x,4.4,3.0,2849,252,meters,jsons/MX_seq43_0_VE250_flipped.json,301127,824285,29,Man
12,583583,final-intermixed-textured,v2,jsons/MX_seq43_0_VE250_flipped.json,http://54.235.29.9/FacialAge/BNav_EC2/DepthDuration/MX_fS_VE_MTurk/MX_fS_HTML.html#268,268,1920,1011,1920,1080,0-31-2024,19-10-24,13,VR_target_stimuli/s3_0.75x_5_381.png,250,0.75x,5.0,5.0,2627,253,meters,jsons/MX_seq43_0_VE250_flipped.json,301127,824285,29,Man
13,583583,final-intermixed-textured,v2,jsons/MX_seq43_0_VE250_flipped.json,http://54.235.29.9/FacialAge/BNav_EC2/DepthDuration/MX_fS_VE_MTurk/MX_fS_HTML.html#268,268,1920,1011,1920,1080,0-31-2024,19-10-24,14,VR_target_stimuli/s1_1.3x_1.7_261_BC.png,250,1.3x,1.7,2.5,3836,251,meters,jsons/MX_seq43_0_VE250_flipped.json,301127,824285,29,Man
14,583583,final-intermixed-textured,v2,jsons/MX_seq43_0_VE250_flipped.json,http://54.235.29.9/FacialAge/BNav_EC2/DepthDuration/MX_fS_VE_MTurk/MX_fS_HTML.html#268,268,1920,1011,1920,1080,0-31-2024,19-10-24,15,VR_target_stimuli/s11_1x_5_361.png,250,1x,5.0,4.0,2789,247,meters,jsons/MX_seq43_0_VE250_flipped.json,301127,824285,29,Man
15,583583,final-intermixed-textured,v2,jsons/MX_seq43_0_VE250_flipped.json,http://54.235.29.9/FacialAge/BNav_EC2/DepthDuration/MX_fS_VE_MTurk/MX_fS_HTML.html#268,268,1920,1011,1920,1080,0-31-2024,19-10-24,16,VR_target_stimuli/s2_0.75x_2.7_384_BC.png,250,0.75x,2.7,2.0,4767,261,meters,jsons/MX_seq43_0_VE250_flipped.json,301127,824285,29,Man
16,583583,final-intermixed-textured,v2,jsons/MX_seq43_0_VE250_flipped.json,http://54.235.29.9/FacialAge/BNav_EC2/DepthDuration/MX_fS_VE_MTurk/MX_fS_HTML.html#268,268,1920,1011,1920,1080,0-31-2024,19-10-24,17,catch_stimuli/c1_BC.png,250,,,0.0,2729,246,meters,jsons/MX_seq43_0_VE250_flipped.json,301127,824285,29,Man
17,583583,final-intermixed-textured,v2,jsons/MX_seq43_0_VE250_flipped.json,http://54.235.29.9/FacialAge/BNav_EC2/DepthDuration/MX_fS_VE_MTurk/MX_fS_HTML.html#268,268,1920,1011,1920,1080,0-31-2024,19-10-24,18,VR_target_stimuli/s6_0.75x_2.1_290.png,250,0.75x,2.1,2.5,4093,246,meters,jsons/MX_seq43_0_VE250_flipped.json,301127,824285,29,Man
18,583583,final-intermixed-textured,v2,jsons/MX_seq43_0_VE250_flipped.json,http://54.235.29.9/FacialAge/BNav_EC2/DepthDuration/MX_fS_VE_MTurk/MX_fS_HTML.html#268,268,1920,1011,1920,1080,0-31-2024,19-10-24,19,VR_target_stimuli/s0_1.3x_2.6_356.png,250,1.3x,2.6,2.5,3931,243,meters,jsons/MX_seq43_0_VE250_flipped.json,301127,824285,29,Man
19,583583,final-intermixed-textured,v2,jsons/MX_seq43_0_VE250_flipped.json,http://54.235.29.9/FacialAge/BNav_EC2/DepthDuration/MX_fS_VE_MTurk/MX_fS_HTML.html#268,268,1920,1011,1920,1080,0-31-2024,19-10-24,20,VR_target_stimuli/s34_1x_2.8_283_BC.png,250,1x,2.8,3.0,3089,251,meters,jsons/MX_seq43_0_VE250_flipped.json,301127,824285,29,Man
20,583583,final-intermixed-textured,v2,jsons/MX_seq43_0_VE250_flipped.json,http://54.235.29.9/FacialAge/BNav_EC2/DepthDuration/MX_fS_VE_MTurk/MX_fS_HTML.html#268,268,1920,1011,1920,1080,0-31-2024,19-10-24,21,VR_target_stimuli/s13_1.3x_2.4_313_BC.png,250,1.3x,2.4,0.0,3507,253,meters,jsons/MX_seq43_0_VE250_flipped.json,301127,824285,29,Man
21,583583,final-intermixed-textured,v2,jsons/MX_seq43_0_VE250_flipped.json,http://54.235.29.9/FacialAge/BNav_EC2/DepthDuration/MX_fS_VE_MTurk/MX_fS_HTML.html#268,268,1920,1011,1920,1080,0-31-2024,19-10-24,22,VR_target_stimuli/s14_0.75x_3.83_355_BC.png,250,0.75x,3.83,3.0,3636,249,meters,jsons/MX_seq43_0_VE250_flipped.json,301127,824285,29,Man
22,583583,final-intermixed-textured,v2,jsons/MX_seq43_0_VE250_flipped.json,http://54.235.29.9/FacialAge/BNav_EC2/DepthDuration/MX_fS_VE_MTurk/MX_fS_HTML.html#268,268,1920,1011,1920,1080,0-31-2024,19-10-24,23,VR_target_stimuli/s47_1x_3.45_370.png,250,1x,3.45,2.5,4305,256,meters,jsons/MX_seq43_0_VE250_flipped.json,301127,824285,29,Man
23,583583,final-intermixed-textured,v2,jsons/MX_seq43_0_VE250_flipped.json,http://54.235.29.9/FacialAge/BNav_EC2/DepthDuration/MX_fS_VE_MTurk/MX_fS_HTML.html#268,268,1920,1011,1920,1080,0-31-2024,19-10-24,24,VR_target_stimuli/s29_0.75x_1.3_246.png,250,0.75x,1.3,0.0,3164,257,meters,jsons/MX_seq43_0_VE250_flipped.json,301127,824285,29,Man
24,583583,final-intermixed-textured,v2,jsons/MX_seq43_0_VE250_flipped.json,http://54.235.29.9/FacialAge/BNav_EC2/DepthDuration/MX_fS_VE_MTurk/MX_fS_HTML.html#268,268,1920,1011,1920,1080,0-31-2024,19-10-24,25,VR_target_stimuli/s28_1.3x_3.2_365.png,250,1.3x,3.2,0.0,2696,255,meters,jsons/MX_seq43_0_VE250_flipped.json,301127,824285,29,Man
25,583583,final-intermixed-textured,v2,jsons/MX_seq43_0_VE250_flipped.json,http://54.235.29.9/FacialAge/BNav_EC2/DepthDuration/MX_fS_VE_MTurk/MX_fS_HTML.html#268,268,1920,1011,1920,1080,0-31-2024,19-10-24,26,catch_stimuli/c2_BC.png,250,,,0.0,2630,237,meters,jsons/MX_seq43_0_VE250_flipped.json,301127,824285,29,Man
26,583583,final-intermixed-textured,v2,jsons/MX_seq43_0_VE250_flipped.json,http://54.235.29.9/FacialAge/BNav_EC2/DepthDuration/MX_fS_VE_MTurk/MX_fS_HTML.html#268,268,1920,1011,1920,1080,0-31-2024,19-10-24,27,VR_target_stimuli/s48_1x_2.55_256_BC.png,250,1x,2.55,4.0,3434,252,meters,jsons/MX_seq43_0_VE250_flipped.json,301127,824285,29,Man
27,583583,final-intermixed-textured,v2,jsons/MX_seq43_0_VE250_flipped.json,http://54.235.29.9/FacialAge/BNav_EC2/DepthDuration/MX_fS_VE_MTurk/MX_fS_HTML.html#268,268,1920,1011,1920,1080,0-31-2024,19-10-24,28,VR_target_stimuli/s19_1x_1.21_263.png,250,1x,1.21,2.0,3290,252,meters,jsons/MX_seq43_0_VE250_flipped.json,301127,824285,29,Man
28,583583,final-intermixed-textured,v2,jsons/MX_seq43_0_VE250_flipped.json,http://54.235.29.9/FacialAge/BNav_EC2/DepthDuration/MX_fS_VE_MTurk/MX_fS_HTML.html#268,268,1920,1011,1920,1080,0-31-2024,19-10-24,29,VR_target_stimuli/s21_0.75x_4.22_374.png,250,0.75x,4.22,6.0,3084,250,meters,jsons/MX_seq43_0_VE250_flipped.json,301127,824285,29,Man
29,583583,final-intermixed-textured,v2,jsons/MX_seq43_0_VE250_flipped.json,http://54.235.29.9/FacialAge/BNav_EC2/DepthDuration/MX_fS_VE_MTurk/MX_fS_HTML.html#268,268,1920,1011,1920,1080,0-31-2024,19-10-24,30,VR_target_stimuli/s8_1.3x_3.1_345.png,250,1.3x,3.1,2.0,4345,239,meters,jsons/MX_seq43_0_VE250_flipped.json,301127,824285,29,Man
30,583583,final-intermixed-textured,v2,jsons/MX_seq43_0_VE250_flipped.json,http://54.235.29.9/FacialAge/BNav_EC2/DepthDuration/MX_fS_VE_MTurk/MX_fS_HTML.html#268,268,1920,1011,1920,1080,0-31-2024,19-10-24,31,VR_target_stimuli/s27_1x_1.76_248_BC.png,250,1x,1.76,0.0,2354,245,meters,jsons/MX_seq43_0_VE250_flipped.json,301127,824285,29,Man
31,583583,final-intermixed-textured,v2,jsons/MX_seq43_0_VE250_flipped.json,http://54.235.29.9/FacialAge/BNav_EC2/DepthDuration/MX_fS_VE_MTurk/MX_fS_HTML.html#268,268,1920,1011,1920,1080,0-31-2024,19-10-24,32,VR_target_stimuli/s15_1.3x_4.2_389_BC.png,250,1.3x,4.2,3.5,2789,264,meters,jsons/MX_seq43_0_VE250_flipped.json,301127,824285,29,Man
32,583583,final-intermixed-textured,v2,jsons/MX_seq43_0_VE250_flipped.json,http://54.235.29.9/FacialAge/BNav_EC2/DepthDuration/MX_fS_VE_MTurk/MX_fS_HTML.html#268,268,1920,1011,1920,1080,0-31-2024,19-10-24,33,VR_target_stimuli/s4_0.75x_1.4_301_BC.png,250,0.75x,1.4,2.0,2227,249,meters,jsons/MX_seq43_0_VE250_flipped.json,301127,824285,29,Man
33,583583,final-intermixed-textured,v2,jsons/MX_seq43_0_VE250_flipped.json,http://54.235.29.9/FacialAge/BNav_EC2/DepthDuration/MX_fS_VE_MTurk/MX_fS_HTML.html#268,268,1920,1011,1920,1080,0-31-2024,19-10-24,34,catch_stimuli/c3_BC.png,250,,,2.0,77534,248,meters,jsons/MX_seq43_0_VE250_flipped.json,301127,824285,29,Man
34,583583,final-intermixed-textured,v2,jsons/MX_seq43_0_VE250_flipped.json,http://54.235.29.9/FacialAge/BNav_EC2/DepthDuration/MX_fS_VE_MTurk/MX_fS_HTML.html#268,268,1920,1011,1920,1080,0-31-2024,19-10-24,35,VR_target_stimuli/s35_1.3x_2_338_BC.png,250,1.3x,2.0,3.0,2869,254,meters,jsons/MX_seq43_0_VE250_flipped.json,301127,824285,29,Man
35,583583,final-intermixed-textured,v2,jsons/MX_seq43_0_VE250_flipped.json,http://54.235.29.9/FacialAge/BNav_EC2/DepthDuration/MX_fS_VE_MTurk/MX_fS_HTML.html#268,268,1920,1011,1920,1080,0-31-2024,19-10-24,36,VR_target_stimuli/s49_1x_4.67_341.png,250,1x,4.67,5.0,4085,247,meters,jsons/MX_seq43_0_VE250_flipped.json,301127,824285,29,Man
36,583583,final-intermixed-textured,v2,jsons/MX_seq43_0_VE250_flipped.json,http://54.235.29.9/FacialAge/BNav_EC2/DepthDuration/MX_fS_VE_MTurk/MX_fS_HTML.html#268,268,1920,1011,1920,1080,0-31-2024,19-10-24,37,VR_target_stimuli/s7_0.75x_1.5_253_BC.png,250,0.75x,1.5,2.0,2374,252,meters,jsons/MX_seq43_0_VE250_flipped.json,301127,824285,29,Man
37,583583,final-intermixed-textured,v2,jsons/MX_seq43_0_VE250_flipped.json,http://54.235.29.9/FacialAge/BNav_EC2/DepthDuration/MX_fS_VE_MTurk/MX_fS_HTML.html#268,268,1920,1011,1920,1080,0-31-2024,19-10-24,38,VR_target_stimuli/s20_0.75x_4.99_390.png,250,0.75x,4.99,4.5,2820,252,meters,jsons/MX_seq43_0_VE250_flipped.json,301127,824285,29,Man
38,583583,final-intermixed-textured,v2,jsons/MX_seq43_0_VE250_flipped.json,http://54.235.29.9/FacialAge/BNav_EC2/DepthDuration/MX_fS_VE_MTurk/MX_fS_HTML.html#268,268,1920,1011,1920,1080,0-31-2024,19-10-24,39,VR_target_stimuli/s31_1.3x_4.96_342.png,250,1.3x,4.96,1.0,2211,250,meters,jsons/MX_seq43_0_VE250_flipped.json,301127,824285,29,Man
39,583583,final-intermixed-textured,v2,jsons/MX_seq43_0_VE250_flipped.json,http://54.235.29.9/FacialAge/BNav_EC2/DepthDuration/MX_fS_VE_MTurk/MX_fS_HTML.html#268,268,1920,1011,1920,1080,0-31-2024,19-10-24,40,VR_target_stimuli/s33_1x_3.1_366_BC.png,250,1x,3.1,3.0,1748,245,meters,jsons/MX_seq43_0_VE250_flipped.json,301127,824285,29,Man
40,583583,final-intermixed-textured,v2,jsons/MX_seq43_0_VE250_flipped.json,http://54.235.29.9/FacialAge/BNav_EC2/DepthDuration/MX_fS_VE_MTurk/MX_fS_HTML.html#268,268,1920,1011,1920,1080,0-31-2024,19-10-24,41,VR_target_stimuli/s52_1.3x_3.2_280.png,250,1.3x,3.2,5.0,2344,246,meters,jsons/MX_seq43_0_VE250_flipped.json,301127,824285,29,Man
41,583583,final-intermixed-textured,v2,jsons/MX_seq43_0_VE250_flipped.json,http://54.235.29.9/FacialAge/BNav_EC2/DepthDuration/MX_fS_VE_MTurk/MX_fS_HTML.html#268,268,1920,1011,1920,1080,0-31-2024,19-10-24,42,VR_target_stimuli/s32_0.75x_1.5_213.png,250,0.75x,1.5,3.0,1822,249,meters,jsons/MX_seq43_0_VE250_flipped.json,301127,824285,29,Man
42,583583,final-intermixed-textured,v2,jsons/MX_seq43_0_VE250_flipped.json,http://54.235.29.9/FacialAge/BNav_EC2/DepthDuration/MX_fS_VE_MTurk/MX_fS_HTML.html#268,268,1920,1011,1920,1080,0-31-2024,19-10-24,43,VR_target_stimuli/s18_1x_2.25_353.png,250,1x,2.25,3.0,1911,250,meters,jsons/MX_seq43_0_VE250_flipped.json,301127,824285,29,Man
43,583583,final-intermixed-textured,v2,jsons/MX_seq43_0_VE250_flipped.json,http://54.235.29.9/FacialAge/BNav_EC2/DepthDuration/MX_fS_VE_MTurk/MX_fS_HTML.html#268,268,1920,1011,1920,1080,0-31-2024,19-10-24,44,VR_target_stimuli/s39_0.75x_1_205_BC.png,250,0.75x,1.0,1.0,1656,247,meters,jsons/MX_seq43_0_VE250_flipped.json,301127,824285,29,Man
44,583583,final-intermixed-textured,v2,jsons/MX_seq43_0_VE250_flipped.json,http://54.235.29.9/FacialAge/BNav_EC2/DepthDuration/MX_fS_VE_MTurk/MX_fS_HTML.html#268,268,1920,1011,1920,1080,0-31-2024,19-10-24,45,catch_stimuli/c4_BC.png,250,,,0.0,3392,245,meters,jsons/MX_seq43_0_VE250_flipped.json,301127,824285,29,Man
45,583583,final-intermixed-textured,v2,jsons/MX_seq43_0_VE250_flipped.json,http://54.235.29.9/FacialAge/BNav_EC2/DepthDuration/MX_fS_VE_MTurk/MX_fS_HTML.html#268,268,1920,1011,1920,1080,0-31-2024,19-10-24,46,VR_target_stimuli/s51_1.3x_3.64_479_BC.png,250,1.3x,3.64,3.0,1919,247,meters,jsons/MX_seq43_0_VE250_flipped.json,301127,824285,29,Man
46,583583,final-intermixed-textured,v2,jsons/MX_seq43_0_VE250_flipped.json,http://54.235.29.9/FacialAge/BNav_EC2/DepthDuration/MX_fS_VE_MTurk/MX_fS_HTML.html#268,268,1920,1011,1920,1080,0-31-2024,19-10-24,47,VR_target_stimuli/s43_1x_2.2_354_BC.png,250,1x,2.2,3.0,1644,244,meters,jsons/MX_seq43_0_VE250_flipped.json,301127,824285,29,Man
47,583583,final-intermixed-textured,v2,jsons/MX_seq43_0_VE250_flipped.json,http://54.235.29.9/FacialAge/BNav_EC2/DepthDuration/MX_fS_VE_MTurk/MX_fS_HTML.html#268,268,1920,1011,1920,1080,0-31-2024,19-10-24,48,VR_target_stimuli/s24_1x_3.3_349.png,250,1x,3.3,2.0,2966,247,meters,jsons/MX_seq43_0_VE250_flipped.json,301127,824285,29,Man
48,583583,final-intermixed-textured,v2,jsons/MX_seq43_0_VE250_flipped.json,http://54.235.29.9/FacialAge/BNav_EC2/DepthDuration/MX_fS_VE_MTurk/MX_fS_HTML.html#268,268,1920,1011,1920,1080,0-31-2024,19-10-24,49,VR_target_stimuli/s10_0.75x_2.7_321_BC.png,250,0.75x,2.7,2.0,1800,241,meters,jsons/MX_seq43_0_VE250_flipped.json,301127,824285,29,Man
49,583583,final-intermixed-textured,v2,jsons/MX_seq43_0_VE250_flipped.json,http://54.235.29.9/FacialAge/BNav_EC2/DepthDuration/MX_fS_VE_MTurk/MX_fS_HTML.html#268,268,1920,1011,1920,1080,0-31-2024,19-10-24,50,VR_target_stimuli/s36_1.3x_4.1_442.png,250,1.3x,4.1,3.5,2499,250,meters,jsons/MX_seq43_0_VE250_flipped.json,301127,824285,29,Man
50,583583,final-intermixed-textured,v2,jsons/MX_seq43_0_VE250_flipped.json,http://54.235.29.9/FacialAge/BNav_EC2/DepthDuration/MX_fS_VE_MTurk/MX_fS_HTML.html#268,268,1920,1011,1920,1080,0-31-2024,19-10-24,51,VR_target_stimuli/s40_0.75x_1.2_308.png,250,0.75x,1.2,1.5,2403,262,meters,jsons/MX_seq43_0_VE250_flipped.json,301127,824285,29,Man
51,583583,final-intermixed-textured,v2,jsons/MX_seq43_0_VE250_flipped.json,http://54.235.29.9/FacialAge/BNav_EC2/DepthDuration/MX_fS_VE_MTurk/MX_fS_HTML.html#268,268,1920,1011,1920,1080,0-31-2024,19-10-24,52,VR_target_stimuli/s41_1x_2.1_286_BC.png,250,1x,2.1,3.0,1703,250,meters,jsons/MX_seq43_0_VE250_flipped.json,301127,824285,29,Man
52,583583,final-intermixed-textured,v2,jsons/MX_seq43_0_VE250_flipped.json,http://54.235.29.9/FacialAge/BNav_EC2/DepthDuration/MX_fS_VE_MTurk/MX_fS_HTML.html#268,268,1920,1011,1920,1080,0-31-2024,19-10-24,53,catch_stimuli/c5_BC.png,250,,,0.0,1945,249,meters,jsons/MX_seq43_0_VE250_flipped.json,301127,824285,29,Man
53,583583,final-intermixed-textured,v2,jsons/MX_seq43_0_VE250_flipped.json,http://54.235.29.9/FacialAge/BNav_EC2/DepthDuration/MX_fS_VE_MTurk/MX_fS_HTML.html#268,268,1920,1011,1920,1080,0-31-2024,19-10-24,54,VR_target_stimuli/s45_1.3x_3.5_377_BC.png,250,1.3x,3.5,3.0,1684,252,meters,jsons/MX_seq43_0_VE250_flipped.json,301127,824285,29,Man
54,583583,final-intermixed-textured,v2,jsons/MX_seq43_0_VE250_flipped.json,http://54.235.29.9/FacialAge/BNav_EC2/DepthDuration/MX_fS_VE_MTurk/MX_fS_HTML.html#268,268,1920,1011,1920,1080,0-31-2024,19-10-24,55,VR_target_stimuli/s23_1x_3.65_353_BC.png,250,1x,3.65,2.0,2357,248,meters,jsons/MX_seq43_0_VE250_flipped.json,301127,824285,29,Man
55,583583,final-intermixed-textured,v2,jsons/MX_seq43_0_VE250_flipped.json,http://54.235.29.9/FacialAge/BNav_EC2/DepthDuration/MX_fS_VE_MTurk/MX_fS_HTML.html#268,268,1920,1011,1920,1080,0-31-2024,19-10-24,56,VR_target_stimuli/s26_0.75x_4_430.png,250,0.75x,4.0,3.0,1715,244,meters,jsons/MX_seq43_0_VE250_flipped.json,301127,824285,29,Man
56,583583,final-intermixed-textured,v2,jsons/MX_seq43_0_VE250_flipped.json,http://54.235.29.9/FacialAge/BNav_EC2/DepthDuration/MX_fS_VE_MTurk/MX_fS_HTML.html#268,268,1920,1011,1920,1080,0-31-2024,19-10-24,57,VR_target_stimuli/s12_1.3x_3.1_375.png,250,1.3x,3.1,4.0,2162,252,meters,jsons/MX_seq43_0_VE250_flipped.json,301127,824285,29,Man
57,583583,final-intermixed-textured,v2,jsons/MX_seq43_0_VE250_flipped.json,http://54.235.29.9/FacialAge/BNav_EC2/DepthDuration/MX_fS_VE_MTurk/MX_fS_HTML.html#268,268,1920,1011,1920,1080,0-31-2024,19-10-24,58,VR_target_stimuli/s30_1.3x_2.3_337_BC.png,250,1.3x,2.3,3.0,1678,250,meters,jsons/MX_seq43_0_VE250_flipped.json,301127,824285,29,Man
58,583583,final-intermixed-textured,v2,jsons/MX_seq43_0_VE250_flipped.json,http://54.235.29.9/FacialAge/BNav_EC2/DepthDuration/MX_fS_VE_MTurk/MX_fS_HTML.html#268,268,1920,1011,1920,1080,0-31-2024,19-10-24,59,VR_target_stimuli/s16_1x_1_219.png,250,1x,1.0,1.5,2996,244,meters,jsons/MX_seq43_0_VE250_flipped.json,301127,824285,29,Man
59,583583,final-intermixed-textured,v2,jsons/MX_seq43_0_VE250_flipped.json,http://54.235.29.9/FacialAge/BNav_EC2/DepthDuration/MX_fS_VE_MTurk/MX_fS_HTML.html#268,268,1920,1011,1920,1080,0-31-2024,19-10-24,60,VR_target_stimuli/s17_0.75x_1.8_285_BC.png,250,0.75x,1.8,2.5,2674,262,meters,jsons/MX_seq43_0_VE250_flipped.json,301127,824285,29,Man
