,subjID,experimentName,versionName,sequenceName,url,selected_row,windowWidth,windowHeight,screenWidth,screenHeight,startDate,startTime,trial,stimulus,duration,scale,actual_depth,depth_estimate,trial_RT,log_sceneDuration,unitSelection,seq_filepath,experimentTime,totalTime,age,gender
0,595030,final-intermixed-textured,v2,jsons/MX_seq43_1_VE250.json,http://54.235.29.9/FacialAge/BNav_EC2/DepthDuration/MX_fS_VE_MTurk/MX_fS_HTML.html#19,19,1440,758,1440,900,1-1-2024,14-59-44,1,VR_target_stimuli/s5_1.3x_4_393.png,250,1.3x,4.0,5,7157,229,meters,jsons/MX_seq43_1_VE250.json,198587,351216,25,Man
1,595030,final-intermixed-textured,v2,jsons/MX_seq43_1_VE250.json,http://54.235.29.9/FacialAge/BNav_EC2/DepthDuration/MX_fS_VE_MTurk/MX_fS_HTML.html#19,19,1440,758,1440,900,1-1-2024,14-59-44,2,VR_target_stimuli/s37_0.75x_3.3_567_BC.png,250,0.75x,3.3,4,3772,248,meters,jsons/MX_seq43_1_VE250.json,198587,351216,25,Man
2,595030,final-intermixed-textured,v2,jsons/MX_seq43_1_VE250.json,http://54.235.29.9/FacialAge/BNav_EC2/DepthDuration/MX_fS_VE_MTurk/MX_fS_HTML.html#19,19,1440,758,1440,900,1-1-2024,14-59-44,3,VR_target_stimuli/s46_1x_2.42_348.png,250,1x,2.42,5,3023,247,meters,jsons/MX_seq43_1_VE250.json,198587,351216,25,Man
3,595030,final-intermixed-textured,v2,jsons/MX_seq43_1_VE250.json,http://54.235.29.9/FacialAge/BNav_EC2/DepthDuration/MX_fS_VE_MTurk/MX_fS_HTML.html#19,19,1440,758,1440,900,1-1-2024,14-59-44,4,VR_target_stimuli/s22_0.75x_4.29_348.png,250,0.75x,4.29,0,2769,249,meters,jsons/MX_seq43_1_VE250.json,198587,351216,25,Man
4,595030,final-intermixed-textured,v2,jsons/MX_seq43_1_VE250.json,http://54.235.29.9/FacialAge/BNav_EC2/DepthDuration/MX_fS_VE_MTurk/MX_fS_HTML.html#19,19,1440,758,1440,900,1-1-2024,14-59-44,5,VR_target_stimuli/s42_1.3x_3.2_305_BC.png,250,1.3x,3.2,4,3018,249,meters,jsons/MX_seq43_1_VE250.json,198587,351216,25,Man
5,595030,final-intermixed-textured,v2,jsons/MX_seq43_1_VE250.json,http://54.235.29.9/FacialAge/BNav_EC2/DepthDuration/MX_fS_VE_MTurk/MX_fS_HTML.html#19,19,1440,758,1440,900,1-1-2024,14-59-44,6,VR_target_stimuli/s25_1x_1.4_290_BC.png,250,1x,1.4,4,3085,249,meters,jsons/MX_seq43_1_VE250.json,198587,351216,25,Man
6,595030,final-intermixed-textured,v2,jsons/MX_seq43_1_VE250.json,http://54.235.29.9/FacialAge/BNav_EC2/DepthDuration/MX_fS_VE_MTurk/MX_fS_HTML.html#19,19,1440,758,1440,900,1-1-2024,14-59-44,7,catch_stimuli/c0.png,250,,,0,3073,249,meters,jsons/MX_seq43_1_VE250.json,198587,351216,25,Man
7,595030,final-intermixed-textured,v2,jsons/MX_seq43_1_VE250.json,http://54.235.29.9/FacialAge/BNav_EC2/DepthDuration/MX_fS_VE_MTurk/MX_fS_HTML.html#19,19,1440,758,1440,900,1-1-2024,14-59-44,8,VR_target_stimuli/s50_1x_4.53_518_BC.png,250,1x,4.53,3,3890,251,meters,jsons/MX_seq43_1_VE250.json,198587,351216,25,Man
8,595030,final-intermixed-textured,v2,jsons/MX_seq43_1_VE250.json,http://54.235.29.9/FacialAge/BNav_EC2/DepthDuration/MX_fS_VE_MTurk/MX_fS_HTML.html#19,19,1440,758,1440,900,1-1-2024,14-59-44,9,VR_target_stimuli/s53_0.75x_1.6_403_BC.png,250,0.75x,1.6,2,4085,250,meters,jsons/MX_seq43_1_VE250.json,198587,351216,25,Man
9,595030,final-intermixed-textured,v2,jsons/MX_seq43_1_VE250.json,http://54.235.29.9/FacialAge/BNav_EC2/DepthDuration/MX_fS_VE_MTurk/MX_fS_HTML.html#19,19,1440,758,1440,900,1-1-2024,14-59-44,10,VR_target_stimuli/s38_1.3x_3.55_358.png,250,1.3x,3.55,4,5210,247,meters,jsons/MX_seq43_1_VE250.json,198587,351216,25,Man
10,595030,final-intermixed-textured,v2,jsons/MX_seq43_1_VE250.json,http://54.235.29.9/FacialAge/BNav_EC2/DepthDuration/MX_fS_VE_MTurk/MX_fS_HTML.html#19,19,1440,758,1440,900,1-1-2024,14-59-44,11,VR_target_stimuli/s9_0.75x_1.2_260.png,250,0.75x,1.2,2,2699,253,meters,jsons/MX_seq43_1_VE250.json,198587,351216,25,Man
11,595030,final-intermixed-textured,v2,jsons/MX_seq43_1_VE250.json,http://54.235.29.9/FacialAge/BNav_EC2/DepthDuration/MX_fS_VE_MTurk/MX_fS_HTML.html#19,19,1440,758,1440,900,1-1-2024,14-59-44,12,VR_target_stimuli/s44_1x_4.4_317.png,250,1x,4.4,6,3544,250,meters,jsons/MX_seq43_1_VE250.json,198587,351216,25,Man
12,595030,final-intermixed-textured,v2,jsons/MX_seq43_1_VE250.json,http://54.235.29.9/FacialAge/BNav_EC2/DepthDuration/MX_fS_VE_MTurk/MX_fS_HTML.html#19,19,1440,758,1440,900,1-1-2024,14-59-44,13,VR_target_stimuli/s3_1.3x_5_390_BC.png,250,1.3x,5.0,5,2803,249,meters,jsons/MX_seq43_1_VE250.json,198587,351216,25,Man
13,595030,final-intermixed-textured,v2,jsons/MX_seq43_1_VE250.json,http://54.235.29.9/FacialAge/BNav_EC2/DepthDuration/MX_fS_VE_MTurk/MX_fS_HTML.html#19,19,1440,758,1440,900,1-1-2024,14-59-44,14,VR_target_stimuli/s1_1x_1.7_262.png,250,1x,1.7,3,3121,251,meters,jsons/MX_seq43_1_VE250.json,198587,351216,25,Man
14,595030,final-intermixed-textured,v2,jsons/MX_seq43_1_VE250.json,http://54.235.29.9/FacialAge/BNav_EC2/DepthDuration/MX_fS_VE_MTurk/MX_fS_HTML.html#19,19,1440,758,1440,900,1-1-2024,14-59-44,15,VR_target_stimuli/s11_0.75x_5_359.png,250,0.75x,5.0,7,3720,250,meters,jsons/MX_seq43_1_VE250.json,198587,351216,25,Man
15,595030,final-intermixed-textured,v2,jsons/MX_seq43_1_VE250.json,http://54.235.29.9/FacialAge/BNav_EC2/DepthDuration/MX_fS_VE_MTurk/MX_fS_HTML.html#19,19,1440,758,1440,900,1-1-2024,14-59-44,16,VR_target_stimuli/s2_1.3x_2.7_397.png,250,1.3x,2.7,5,2516,249,meters,jsons/MX_seq43_1_VE250.json,198587,351216,25,Man
16,595030,final-intermixed-textured,v2,jsons/MX_seq43_1_VE250.json,http://54.235.29.9/FacialAge/BNav_EC2/DepthDuration/MX_fS_VE_MTurk/MX_fS_HTML.html#19,19,1440,758,1440,900,1-1-2024,14-59-44,17,catch_stimuli/c1.png,250,,,0,2941,253,meters,jsons/MX_seq43_1_VE250.json,198587,351216,25,Man
17,595030,final-intermixed-textured,v2,jsons/MX_seq43_1_VE250.json,http://54.235.29.9/FacialAge/BNav_EC2/DepthDuration/MX_fS_VE_MTurk/MX_fS_HTML.html#19,19,1440,758,1440,900,1-1-2024,14-59-44,18,VR_target_stimuli/s6_1.3x_2.1_298_BC.png,250,1.3x,2.1,3,2647,249,meters,jsons/MX_seq43_1_VE250.json,198587,351216,25,Man
18,595030,final-intermixed-textured,v2,jsons/MX_seq43_1_VE250.json,http://54.235.29.9/FacialAge/BNav_EC2/DepthDuration/MX_fS_VE_MTurk/MX_fS_HTML.html#19,19,1440,758,1440,900,1-1-2024,14-59-44,19,VR_target_stimuli/s0_1x_2.6_351_BC.png,250,1x,2.6,3,3122,246,meters,jsons/MX_seq43_1_VE250.json,198587,351216,25,Man
19,595030,final-intermixed-textured,v2,jsons/MX_seq43_1_VE250.json,http://54.235.29.9/FacialAge/BNav_EC2/DepthDuration/MX_fS_VE_MTurk/MX_fS_HTML.html#19,19,1440,758,1440,900,1-1-2024,14-59-44,20,VR_target_stimuli/s34_0.75x_2.8_269_BC.png,250,0.75x,2.8,5,4186,247,meters,jsons/MX_seq43_1_VE250.json,198587,351216,25,Man
20,595030,final-intermixed-textured,v2,jsons/MX_seq43_1_VE250.json,http://54.235.29.9/FacialAge/BNav_EC2/DepthDuration/MX_fS_VE_MTurk/MX_fS_HTML.html#19,19,1440,758,1440,900,1-1-2024,14-59-44,21,VR_target_stimuli/s13_1x_2.4_310.png,250,1x,2.4,5,2490,262,meters,jsons/MX_seq43_1_VE250.json,198587,351216,25,Man
21,595030,final-intermixed-textured,v2,jsons/MX_seq43_1_VE250.json,http://54.235.29.9/FacialAge/BNav_EC2/DepthDuration/MX_fS_VE_MTurk/MX_fS_HTML.html#19,19,1440,758,1440,900,1-1-2024,14-59-44,22,VR_target_stimuli/s14_1.3x_3.83_359_BC.png,250,1.3x,3.83,7,2336,245,meters,jsons/MX_seq43_1_VE250.json,198587,351216,25,Man
22,595030,final-intermixed-textured,v2,jsons/MX_seq43_1_VE250.json,http://54.235.29.9/FacialAge/BNav_EC2/DepthDuration/MX_fS_VE_MTurk/MX_fS_HTML.html#19,19,1440,758,1440,900,1-1-2024,14-59-44,23,VR_target_stimuli/s47_0.75x_3.45_366_BC.png,250,0.75x,3.45,8,2706,250,meters,jsons/MX_seq43_1_VE250.json,198587,351216,25,Man
23,595030,final-intermixed-textured,v2,jsons/MX_seq43_1_VE250.json,http://54.235.29.9/FacialAge/BNav_EC2/DepthDuration/MX_fS_VE_MTurk/MX_fS_HTML.html#19,19,1440,758,1440,900,1-1-2024,14-59-44,24,VR_target_stimuli/s29_1.3x_1.3_253.png,250,1.3x,1.3,3,3422,252,meters,jsons/MX_seq43_1_VE250.json,198587,351216,25,Man
24,595030,final-intermixed-textured,v2,jsons/MX_seq43_1_VE250.json,http://54.235.29.9/FacialAge/BNav_EC2/DepthDuration/MX_fS_VE_MTurk/MX_fS_HTML.html#19,19,1440,758,1440,900,1-1-2024,14-59-44,25,VR_target_stimuli/s28_1x_3.2_362_BC.png,250,1x,3.2,5,2207,247,meters,jsons/MX_seq43_1_VE250.json,198587,351216,25,Man
25,595030,final-intermixed-textured,v2,jsons/MX_seq43_1_VE250.json,http://54.235.29.9/FacialAge/BNav_EC2/DepthDuration/MX_fS_VE_MTurk/MX_fS_HTML.html#19,19,1440,758,1440,900,1-1-2024,14-59-44,26,catch_stimuli/c2.png,250,,,0,2433,247,meters,jsons/MX_seq43_1_VE250.json,198587,351216,25,Man
26,595030,final-intermixed-textured,v2,jsons/MX_seq43_1_VE250.json,http://54.235.29.9/FacialAge/BNav_EC2/DepthDuration/MX_fS_VE_MTurk/MX_fS_HTML.html#19,19,1440,758,1440,900,1-1-2024,14-59-44,27,VR_target_stimuli/s48_0.75x_2.55_243.png,250,0.75x,2.55,6,3108,249,meters,jsons/MX_seq43_1_VE250.json,198587,351216,25,Man
27,595030,final-intermixed-textured,v2,jsons/MX_seq43_1_VE250.json,http://54.235.29.9/FacialAge/BNav_EC2/DepthDuration/MX_fS_VE_MTurk/MX_fS_HTML.html#19,19,1440,758,1440,900,1-1-2024,14-59-44,28,VR_target_stimuli/s19_0.75x_1.21_257_BC.png,250,0.75x,1.21,3,2275,249,meters,jsons/MX_seq43_1_VE250.json,198587,351216,25,Man
28,595030,final-intermixed-textured,v2,jsons/MX_seq43_1_VE250.json,http://54.235.29.9/FacialAge/BNav_EC2/DepthDuration/MX_fS_VE_MTurk/MX_fS_HTML.html#19,19,1440,758,1440,900,1-1-2024,14-59-44,29,VR_target_stimuli/s21_1.3x_4.22_384.png,250,1.3x,4.22,8,2949,248,meters,jsons/MX_seq43_1_VE250.json,198587,351216,25,Man
29,595030,final-intermixed-textured,v2,jsons/MX_seq43_1_VE250.json,http://54.235.29.9/FacialAge/BNav_EC2/DepthDuration/MX_fS_VE_MTurk/MX_fS_HTML.html#19,19,1440,758,1440,900,1-1-2024,14-59-44,30,VR_target_stimuli/s8_1x_3.1_332.png,250,1x,3.1,5,2166,249,meters,jsons/MX_seq43_1_VE250.json,198587,351216,25,Man
30,595030,final-intermixed-textured,v2,jsons/MX_seq43_1_VE250.json,http://54.235.29.9/FacialAge/BNav_EC2/DepthDuration/MX_fS_VE_MTurk/MX_fS_HTML.html#19,19,1440,758,1440,900,1-1-2024,14-59-44,31,VR_target_stimuli/s27_0.75x_1.76_243.png,250,0.75x,1.76,4,2293,250,meters,jsons/MX_seq43_1_VE250.json,198587,351216,25,Man
31,595030,final-intermixed-textured,v2,jsons/MX_seq43_1_VE250.json,http://54.235.29.9/FacialAge/BNav_EC2/DepthDuration/MX_fS_VE_MTurk/MX_fS_HTML.html#19,19,1440,758,1440,900,1-1-2024,14-59-44,32,VR_target_stimuli/s15_1x_4.2_390_BC.png,250,1x,4.2,6,2020,253,meters,jsons/MX_seq43_1_VE250.json,198587,351216,25,Man
32,595030,final-intermixed-textured,v2,jsons/MX_seq43_1_VE250.json,http://54.235.29.9/FacialAge/BNav_EC2/DepthDuration/MX_fS_VE_MTurk/MX_fS_HTML.html#19,19,1440,758,1440,900,1-1-2024,14-59-44,33,VR_target_stimuli/s4_1.3x_1.4_328_BC.png,250,1.3x,1.4,2,2053,249,meters,jsons/MX_seq43_1_VE250.json,198587,351216,25,Man
33,595030,final-intermixed-textured,v2,jsons/MX_seq43_1_VE250.json,http://54.235.29.9/FacialAge/BNav_EC2/DepthDuration/MX_fS_VE_MTurk/MX_fS_HTML.html#19,19,1440,758,1440,900,1-1-2024,14-59-44,34,catch_stimuli/c3.png,250,,,0,2125,249,meters,jsons/MX_seq43_1_VE250.json,198587,351216,25,Man
34,595030,final-intermixed-textured,v2,jsons/MX_seq43_1_VE250.json,http://54.235.29.9/FacialAge/BNav_EC2/DepthDuration/MX_fS_VE_MTurk/MX_fS_HTML.html#19,19,1440,758,1440,900,1-1-2024,14-59-44,35,VR_target_stimuli/s35_1x_2_331_BC.png,250,1x,2.0,3,2280,247,meters,jsons/MX_seq43_1_VE250.json,198587,351216,25,Man
35,595030,final-intermixed-textured,v2,jsons/MX_seq43_1_VE250.json,http://54.235.29.9/FacialAge/BNav_EC2/DepthDuration/MX_fS_VE_MTurk/MX_fS_HTML.html#19,19,1440,758,1440,900,1-1-2024,14-59-44,36,VR_target_stimuli/s49_0.75x_4.67_328.png,250,0.75x,4.67,6,1976,249,meters,jsons/MX_seq43_1_VE250.json,198587,351216,25,Man
36,595030,final-intermixed-textured,v2,jsons/MX_seq43_1_VE250.json,http://54.235.29.9/FacialAge/BNav_EC2/DepthDuration/MX_fS_VE_MTurk/MX_fS_HTML.html#19,19,1440,758,1440,900,1-1-2024,14-59-44,37,VR_target_stimuli/s7_1.3x_1.5_256_BC.png,250,1.3x,1.5,3,2290,253,meters,jsons/MX_seq43_1_VE250.json,198587,351216,25,Man
37,595030,final-intermixed-textured,v2,jsons/MX_seq43_1_VE250.json,http://54.235.29.9/FacialAge/BNav_EC2/DepthDuration/MX_fS_VE_MTurk/MX_fS_HTML.html#19,19,1440,758,1440,900,1-1-2024,14-59-44,38,VR_target_stimuli/s20_1.3x_4.99_412.png,250,1.3x,4.99,6,2197,249,meters,jsons/MX_seq43_1_VE250.json,198587,351216,25,Man
38,595030,final-intermixed-textured,v2,jsons/MX_seq43_1_VE250.json,http://54.235.29.9/FacialAge/BNav_EC2/DepthDuration/MX_fS_VE_MTurk/MX_fS_HTML.html#19,19,1440,758,1440,900,1-1-2024,14-59-44,39,VR_target_stimuli/s31_1x_4.96_333.png,250,1x,4.96,3,2979,251,meters,jsons/MX_seq43_1_VE250.json,198587,351216,25,Man
39,595030,final-intermixed-textured,v2,jsons/MX_seq43_1_VE250.json,http://54.235.29.9/FacialAge/BNav_EC2/DepthDuration/MX_fS_VE_MTurk/MX_fS_HTML.html#19,19,1440,758,1440,900,1-1-2024,14-59-44,40,VR_target_stimuli/s33_0.75x_3.1_361_BC.png,250,0.75x,3.1,4,2232,251,meters,jsons/MX_seq43_1_VE250.json,198587,351216,25,Man
40,595030,final-intermixed-textured,v2,jsons/MX_seq43_1_VE250.json,http://54.235.29.9/FacialAge/BNav_EC2/DepthDuration/MX_fS_VE_MTurk/MX_fS_HTML.html#19,19,1440,758,1440,900,1-1-2024,14-59-44,41,VR_target_stimuli/s52_1x_3.2_275_BC.png,250,1x,3.2,5,2281,252,meters,jsons/MX_seq43_1_VE250.json,198587,351216,25,Man
41,595030,final-intermixed-textured,v2,jsons/MX_seq43_1_VE250.json,http://54.235.29.9/FacialAge/BNav_EC2/DepthDuration/MX_fS_VE_MTurk/MX_fS_HTML.html#19,19,1440,758,1440,900,1-1-2024,14-59-44,42,VR_target_stimuli/s32_1.3x_1.5_224.png,250,1.3x,1.5,3,2858,249,meters,jsons/MX_seq43_1_VE250.json,198587,351216,25,Man
42,595030,final-intermixed-textured,v2,jsons/MX_seq43_1_VE250.json,http://54.235.29.9/FacialAge/BNav_EC2/DepthDuration/MX_fS_VE_MTurk/MX_fS_HTML.html#19,19,1440,758,1440,900,1-1-2024,14-59-44,43,VR_target_stimuli/s18_0.75x_2.25_341.png,250,0.75x,2.25,2,2097,248,meters,jsons/MX_seq43_1_VE250.json,198587,351216,25,Man
43,595030,final-intermixed-textured,v2,jsons/MX_seq43_1_VE250.json,http://54.235.29.9/FacialAge/BNav_EC2/DepthDuration/MX_fS_VE_MTurk/MX_fS_HTML.html#19,19,1440,758,1440,900,1-1-2024,14-59-44,44,VR_target_stimuli/s39_1.3x_1_208_BC.png,250,1.3x,1.0,1,2124,246,meters,jsons/MX_seq43_1_VE250.json,198587,351216,25,Man
44,595030,final-intermixed-textured,v2,jsons/MX_seq43_1_VE250.json,http://54.235.29.9/FacialAge/BNav_EC2/DepthDuration/MX_fS_VE_MTurk/MX_fS_HTML.html#19,19,1440,758,1440,900,1-1-2024,14-59-44,45,catch_stimuli/c4.png,250,,,0,2271,247,meters,jsons/MX_seq43_1_VE250.json,198587,351216,25,Man
45,595030,final-intermixed-textured,v2,jsons/MX_seq43_1_VE250.json,http://54.235.29.9/FacialAge/BNav_EC2/DepthDuration/MX_fS_VE_MTurk/MX_fS_HTML.html#19,19,1440,758,1440,900,1-1-2024,14-59-44,46,VR_target_stimuli/s51_1x_3.64_461.png,250,1x,3.64,2,2419,246,meters,jsons/MX_seq43_1_VE250.json,198587,351216,25,Man
46,595030,final-intermixed-textured,v2,jsons/MX_seq43_1_VE250.json,http://54.235.29.9/FacialAge/BNav_EC2/DepthDuration/MX_fS_VE_MTurk/MX_fS_HTML.html#19,19,1440,758,1440,900,1-1-2024,14-59-44,47,VR_target_stimuli/s43_0.75x_2.2_348_BC.png,250,0.75x,2.2,0,1968,253,meters,jsons/MX_seq43_1_VE250.json,198587,351216,25,Man
47,595030,final-intermixed-textured,v2,jsons/MX_seq43_1_VE250.json,http://54.235.29.9/FacialAge/BNav_EC2/DepthDuration/MX_fS_VE_MTurk/MX_fS_HTML.html#19,19,1440,758,1440,900,1-1-2024,14-59-44,48,VR_target_stimuli/s24_0.75x_3.3_344_BC.png,250,0.75x,3.3,5,2313,249,meters,jsons/MX_seq43_1_VE250.json,198587,351216,25,Man
48,595030,final-intermixed-textured,v2,jsons/MX_seq43_1_VE250.json,http://54.235.29.9/FacialAge/BNav_EC2/DepthDuration/MX_fS_VE_MTurk/MX_fS_HTML.html#19,19,1440,758,1440,900,1-1-2024,14-59-44,49,VR_target_stimuli/s10_1.3x_2.7_325_BC.png,250,1.3x,2.7,4,6320,249,meters,jsons/MX_seq43_1_VE250.json,198587,351216,25,Man
49,595030,final-intermixed-textured,v2,jsons/MX_seq43_1_VE250.json,http://54.235.29.9/FacialAge/BNav_EC2/DepthDuration/MX_fS_VE_MTurk/MX_fS_HTML.html#19,19,1440,758,1440,900,1-1-2024,14-59-44,50,VR_target_stimuli/s36_1x_4.1_423.png,250,1x,4.1,6,2268,250,meters,jsons/MX_seq43_1_VE250.json,198587,351216,25,Man
50,595030,final-intermixed-textured,v2,jsons/MX_seq43_1_VE250.json,http://54.235.29.9/FacialAge/BNav_EC2/DepthDuration/MX_fS_VE_MTurk/MX_fS_HTML.html#19,19,1440,758,1440,900,1-1-2024,14-59-44,51,VR_target_stimuli/s40_1.3x_1.2_332.png,250,1.3x,1.2,2,2222,247,meters,jsons/MX_seq43_1_VE250.json,198587,351216,25,Man
51,595030,final-intermixed-textured,v2,jsons/MX_seq43_1_VE250.json,http://54.235.29.9/FacialAge/BNav_EC2/DepthDuration/MX_fS_VE_MTurk/MX_fS_HTML.html#19,19,1440,758,1440,900,1-1-2024,14-59-44,52,VR_target_stimuli/s41_0.75x_2.1_281.png,250,0.75x,2.1,3,2111,248,meters,jsons/MX_seq43_1_VE250.json,198587,351216,25,Man
52,595030,final-intermixed-textured,v2,jsons/MX_seq43_1_VE250.json,http://54.235.29.9/FacialAge/BNav_EC2/DepthDuration/MX_fS_VE_MTurk/MX_fS_HTML.html#19,19,1440,758,1440,900,1-1-2024,14-59-44,53,catch_stimuli/c5.png,250,,,0,2022,248,meters,jsons/MX_seq43_1_VE250.json,198587,351216,25,Man
53,595030,final-intermixed-textured,v2,jsons/MX_seq43_1_VE250.json,http://54.235.29.9/FacialAge/BNav_EC2/DepthDuration/MX_fS_VE_MTurk/MX_fS_HTML.html#19,19,1440,758,1440,900,1-1-2024,14-59-44,54,VR_target_stimuli/s45_1x_3.5_368_BC.png,250,1x,3.5,4,2230,252,meters,jsons/MX_seq43_1_VE250.json,198587,351216,25,Man
54,595030,final-intermixed-textured,v2,jsons/MX_seq43_1_VE250.json,http://54.235.29.9/FacialAge/BNav_EC2/DepthDuration/MX_fS_VE_MTurk/MX_fS_HTML.html#19,19,1440,758,1440,900,1-1-2024,14-59-44,55,VR_target_stimuli/s23_0.75x_3.65_351.png,250,0.75x,3.65,4,2304,250,meters,jsons/MX_seq43_1_VE250.json,198587,351216,25,Man
55,595030,final-intermixed-textured,v2,jsons/MX_seq43_1_VE250.json,http://54.235.29.9/FacialAge/BNav_EC2/DepthDuration/MX_fS_VE_MTurk/MX_fS_HTML.html#19,19,1440,758,1440,900,1-1-2024,14-59-44,56,VR_target_stimuli/s26_1.3x_4_441.png,250,1.3x,4.0,2,2184,247,meters,jsons/MX_seq43_1_VE250.json,198587,351216,25,Man
56,595030,final-intermixed-textured,v2,jsons/MX_seq43_1_VE250.json,http://54.235.29.9/FacialAge/BNav_EC2/DepthDuration/MX_fS_VE_MTurk/MX_fS_HTML.html#19,19,1440,758,1440,900,1-1-2024,14-59-44,57,VR_target_stimuli/s12_1x_3.1_372.png,250,1x,3.1,3,3165,250,meters,jsons/MX_seq43_1_VE250.json,198587,351216,25,Man
57,595030,final-intermixed-textured,v2,jsons/MX_seq43_1_VE250.json,http://54.235.29.9/FacialAge/BNav_EC2/DepthDuration/MX_fS_VE_MTurk/MX_fS_HTML.html#19,19,1440,758,1440,900,1-1-2024,14-59-44,58,VR_target_stimuli/s30_1x_2.3_334_BC.png,250,1x,2.3,4,2063,248,meters,jsons/MX_seq43_1_VE250.json,198587,351216,25,Man
58,595030,final-intermixed-textured,v2,jsons/MX_seq43_1_VE250.json,http://54.235.29.9/FacialAge/BNav_EC2/DepthDuration/MX_fS_VE_MTurk/MX_fS_HTML.html#19,19,1440,758,1440,900,1-1-2024,14-59-44,59,VR_target_stimuli/s16_0.75x_1_217_BC.png,250,0.75x,1.0,2,2021,252,meters,jsons/MX_seq43_1_VE250.json,198587,351216,25,Man
59,595030,final-intermixed-textured,v2,jsons/MX_seq43_1_VE250.json,http://54.235.29.9/FacialAge/BNav_EC2/DepthDuration/MX_fS_VE_MTurk/MX_fS_HTML.html#19,19,1440,758,1440,900,1-1-2024,14-59-44,60,VR_target_stimuli/s17_1.3x_1.8_300_BC.png,250,1.3x,1.8,2,2239,251,meters,jsons/MX_seq43_1_VE250.json,198587,351216,25,Man
