,subjID,experimentName,versionName,sequenceName,url,selected_row,windowWidth,windowHeight,screenWidth,screenHeight,startDate,startTime,trial,stimulus,duration,scale,actual_depth,depth_estimate,trial_RT,log_sceneDuration,unitSelection,seq_filepath,experimentTime,totalTime,age,gender
0,610749,final-intermixed-textured,v2,jsons/MX_seq28_2_VE250.json,http://54.235.29.9/FacialAge/BNav_EC2/DepthDuration/MX_fS_VE_MTurk/MX_fS_HTML.html#133,133,1280,559,1280,720,0-31-2024,14-11-55,1,VR_target_stimuli/s39_1x_1_207_BC.png,250,1x,1.0,1.5,6386,250,meters,jsons/MX_seq28_2_VE250.json,197152,442705,24,Man
1,610749,final-intermixed-textured,v2,jsons/MX_seq28_2_VE250.json,http://54.235.29.9/FacialAge/BNav_EC2/DepthDuration/MX_fS_VE_MTurk/MX_fS_HTML.html#133,133,1280,559,1280,720,0-31-2024,14-11-55,2,VR_target_stimuli/s51_1.3x_3.64_479_BC.png,250,1.3x,3.64,2.0,2706,236,meters,jsons/MX_seq28_2_VE250.json,197152,442705,24,Man
2,610749,final-intermixed-textured,v2,jsons/MX_seq28_2_VE250.json,http://54.235.29.9/FacialAge/BNav_EC2/DepthDuration/MX_fS_VE_MTurk/MX_fS_HTML.html#133,133,1280,559,1280,720,0-31-2024,14-11-55,3,VR_target_stimuli/s43_0.75x_2.2_348.png,250,0.75x,2.2,2.5,5125,246,meters,jsons/MX_seq28_2_VE250.json,197152,442705,24,Man
3,610749,final-intermixed-textured,v2,jsons/MX_seq28_2_VE250.json,http://54.235.29.9/FacialAge/BNav_EC2/DepthDuration/MX_fS_VE_MTurk/MX_fS_HTML.html#133,133,1280,559,1280,720,0-31-2024,14-11-55,4,VR_target_stimuli/s24_1.3x_3.3_352.png,250,1.3x,3.3,4.0,2473,248,meters,jsons/MX_seq28_2_VE250.json,197152,442705,24,Man
4,610749,final-intermixed-textured,v2,jsons/MX_seq28_2_VE250.json,http://54.235.29.9/FacialAge/BNav_EC2/DepthDuration/MX_fS_VE_MTurk/MX_fS_HTML.html#133,133,1280,559,1280,720,0-31-2024,14-11-55,5,VR_target_stimuli/s10_1x_2.7_324.png,250,1x,2.7,2.0,4564,250,meters,jsons/MX_seq28_2_VE250.json,197152,442705,24,Man
5,610749,final-intermixed-textured,v2,jsons/MX_seq28_2_VE250.json,http://54.235.29.9/FacialAge/BNav_EC2/DepthDuration/MX_fS_VE_MTurk/MX_fS_HTML.html#133,133,1280,559,1280,720,0-31-2024,14-11-55,6,VR_target_stimuli/s36_0.75x_4.1_407_BC.png,250,0.75x,4.1,4.0,2717,246,meters,jsons/MX_seq28_2_VE250.json,197152,442705,24,Man
6,610749,final-intermixed-textured,v2,jsons/MX_seq28_2_VE250.json,http://54.235.29.9/FacialAge/BNav_EC2/DepthDuration/MX_fS_VE_MTurk/MX_fS_HTML.html#133,133,1280,559,1280,720,0-31-2024,14-11-55,7,catch_stimuli/c0.png,250,,,0.0,3106,248,meters,jsons/MX_seq28_2_VE250.json,197152,442705,24,Man
7,610749,final-intermixed-textured,v2,jsons/MX_seq28_2_VE250.json,http://54.235.29.9/FacialAge/BNav_EC2/DepthDuration/MX_fS_VE_MTurk/MX_fS_HTML.html#133,133,1280,559,1280,720,0-31-2024,14-11-55,8,VR_target_stimuli/s40_0.75x_1.2_308_BC.png,250,0.75x,1.2,1.0,2683,247,meters,jsons/MX_seq28_2_VE250.json,197152,442705,24,Man
8,610749,final-intermixed-textured,v2,jsons/MX_seq28_2_VE250.json,http://54.235.29.9/FacialAge/BNav_EC2/DepthDuration/MX_fS_VE_MTurk/MX_fS_HTML.html#133,133,1280,559,1280,720,0-31-2024,14-11-55,9,VR_target_stimuli/s41_1.3x_2.1_294_BC.png,250,1.3x,2.1,2.0,4743,244,meters,jsons/MX_seq28_2_VE250.json,197152,442705,24,Man
9,610749,final-intermixed-textured,v2,jsons/MX_seq28_2_VE250.json,http://54.235.29.9/FacialAge/BNav_EC2/DepthDuration/MX_fS_VE_MTurk/MX_fS_HTML.html#133,133,1280,559,1280,720,0-31-2024,14-11-55,10,VR_target_stimuli/s45_1x_3.5_368.png,250,1x,3.5,3.0,2272,247,meters,jsons/MX_seq28_2_VE250.json,197152,442705,24,Man
10,610749,final-intermixed-textured,v2,jsons/MX_seq28_2_VE250.json,http://54.235.29.9/FacialAge/BNav_EC2/DepthDuration/MX_fS_VE_MTurk/MX_fS_HTML.html#133,133,1280,559,1280,720,0-31-2024,14-11-55,11,VR_target_stimuli/s23_1.3x_3.65_354.png,250,1.3x,3.65,1.0,2592,262,meters,jsons/MX_seq28_2_VE250.json,197152,442705,24,Man
11,610749,final-intermixed-textured,v2,jsons/MX_seq28_2_VE250.json,http://54.235.29.9/FacialAge/BNav_EC2/DepthDuration/MX_fS_VE_MTurk/MX_fS_HTML.html#133,133,1280,559,1280,720,0-31-2024,14-11-55,12,VR_target_stimuli/s26_0.75x_4_430.png,250,0.75x,4.0,3.0,2886,249,meters,jsons/MX_seq28_2_VE250.json,197152,442705,24,Man
12,610749,final-intermixed-textured,v2,jsons/MX_seq28_2_VE250.json,http://54.235.29.9/FacialAge/BNav_EC2/DepthDuration/MX_fS_VE_MTurk/MX_fS_HTML.html#133,133,1280,559,1280,720,0-31-2024,14-11-55,13,VR_target_stimuli/s12_1x_3.1_372_BC.png,250,1x,3.1,2.0,2246,246,meters,jsons/MX_seq28_2_VE250.json,197152,442705,24,Man
13,610749,final-intermixed-textured,v2,jsons/MX_seq28_2_VE250.json,http://54.235.29.9/FacialAge/BNav_EC2/DepthDuration/MX_fS_VE_MTurk/MX_fS_HTML.html#133,133,1280,559,1280,720,0-31-2024,14-11-55,14,VR_target_stimuli/s30_0.75x_2.3_332_BC.png,250,0.75x,2.3,1.5,3982,248,meters,jsons/MX_seq28_2_VE250.json,197152,442705,24,Man
14,610749,final-intermixed-textured,v2,jsons/MX_seq28_2_VE250.json,http://54.235.29.9/FacialAge/BNav_EC2/DepthDuration/MX_fS_VE_MTurk/MX_fS_HTML.html#133,133,1280,559,1280,720,0-31-2024,14-11-55,15,VR_target_stimuli/s16_1.3x_1_223.png,250,1.3x,1.0,1.0,2203,249,meters,jsons/MX_seq28_2_VE250.json,197152,442705,24,Man
15,610749,final-intermixed-textured,v2,jsons/MX_seq28_2_VE250.json,http://54.235.29.9/FacialAge/BNav_EC2/DepthDuration/MX_fS_VE_MTurk/MX_fS_HTML.html#133,133,1280,559,1280,720,0-31-2024,14-11-55,16,VR_target_stimuli/s17_1x_1.8_291_BC.png,250,1x,1.8,1.0,1984,249,meters,jsons/MX_seq28_2_VE250.json,197152,442705,24,Man
16,610749,final-intermixed-textured,v2,jsons/MX_seq28_2_VE250.json,http://54.235.29.9/FacialAge/BNav_EC2/DepthDuration/MX_fS_VE_MTurk/MX_fS_HTML.html#133,133,1280,559,1280,720,0-31-2024,14-11-55,17,catch_stimuli/c1.png,250,,,0.0,5858,246,meters,jsons/MX_seq28_2_VE250.json,197152,442705,24,Man
17,610749,final-intermixed-textured,v2,jsons/MX_seq28_2_VE250.json,http://54.235.29.9/FacialAge/BNav_EC2/DepthDuration/MX_fS_VE_MTurk/MX_fS_HTML.html#133,133,1280,559,1280,720,0-31-2024,14-11-55,18,VR_target_stimuli/s5_1x_4_378.png,250,1x,4.0,3.0,2624,254,meters,jsons/MX_seq28_2_VE250.json,197152,442705,24,Man
18,610749,final-intermixed-textured,v2,jsons/MX_seq28_2_VE250.json,http://54.235.29.9/FacialAge/BNav_EC2/DepthDuration/MX_fS_VE_MTurk/MX_fS_HTML.html#133,133,1280,559,1280,720,0-31-2024,14-11-55,19,VR_target_stimuli/s37_0.75x_3.3_567.png,250,0.75x,3.3,1.0,2269,251,meters,jsons/MX_seq28_2_VE250.json,197152,442705,24,Man
19,610749,final-intermixed-textured,v2,jsons/MX_seq28_2_VE250.json,http://54.235.29.9/FacialAge/BNav_EC2/DepthDuration/MX_fS_VE_MTurk/MX_fS_HTML.html#133,133,1280,559,1280,720,0-31-2024,14-11-55,20,VR_target_stimuli/s46_1.3x_2.42_354_BC.png,250,1.3x,2.42,2.0,1967,245,meters,jsons/MX_seq28_2_VE250.json,197152,442705,24,Man
20,610749,final-intermixed-textured,v2,jsons/MX_seq28_2_VE250.json,http://54.235.29.9/FacialAge/BNav_EC2/DepthDuration/MX_fS_VE_MTurk/MX_fS_HTML.html#133,133,1280,559,1280,720,0-31-2024,14-11-55,21,VR_target_stimuli/s22_0.75x_4.29_348_BC.png,250,0.75x,4.29,3.0,2159,261,meters,jsons/MX_seq28_2_VE250.json,197152,442705,24,Man
21,610749,final-intermixed-textured,v2,jsons/MX_seq28_2_VE250.json,http://54.235.29.9/FacialAge/BNav_EC2/DepthDuration/MX_fS_VE_MTurk/MX_fS_HTML.html#133,133,1280,559,1280,720,0-31-2024,14-11-55,22,VR_target_stimuli/s42_1x_3.2_303_BC.png,250,1x,3.2,3.0,2129,248,meters,jsons/MX_seq28_2_VE250.json,197152,442705,24,Man
22,610749,final-intermixed-textured,v2,jsons/MX_seq28_2_VE250.json,http://54.235.29.9/FacialAge/BNav_EC2/DepthDuration/MX_fS_VE_MTurk/MX_fS_HTML.html#133,133,1280,559,1280,720,0-31-2024,14-11-55,23,VR_target_stimuli/s25_1.3x_1.4_299_BC.png,250,1.3x,1.4,2.0,1958,248,meters,jsons/MX_seq28_2_VE250.json,197152,442705,24,Man
23,610749,final-intermixed-textured,v2,jsons/MX_seq28_2_VE250.json,http://54.235.29.9/FacialAge/BNav_EC2/DepthDuration/MX_fS_VE_MTurk/MX_fS_HTML.html#133,133,1280,559,1280,720,0-31-2024,14-11-55,24,VR_target_stimuli/s50_1x_4.53_518.png,250,1x,4.53,1.0,2118,246,meters,jsons/MX_seq28_2_VE250.json,197152,442705,24,Man
24,610749,final-intermixed-textured,v2,jsons/MX_seq28_2_VE250.json,http://54.235.29.9/FacialAge/BNav_EC2/DepthDuration/MX_fS_VE_MTurk/MX_fS_HTML.html#133,133,1280,559,1280,720,0-31-2024,14-11-55,25,VR_target_stimuli/s53_0.75x_1.6_403.png,250,0.75x,1.6,0.5,4680,246,meters,jsons/MX_seq28_2_VE250.json,197152,442705,24,Man
25,610749,final-intermixed-textured,v2,jsons/MX_seq28_2_VE250.json,http://54.235.29.9/FacialAge/BNav_EC2/DepthDuration/MX_fS_VE_MTurk/MX_fS_HTML.html#133,133,1280,559,1280,720,0-31-2024,14-11-55,26,catch_stimuli/c2.png,250,,,0.0,3184,245,meters,jsons/MX_seq28_2_VE250.json,197152,442705,24,Man
26,610749,final-intermixed-textured,v2,jsons/MX_seq28_2_VE250.json,http://54.235.29.9/FacialAge/BNav_EC2/DepthDuration/MX_fS_VE_MTurk/MX_fS_HTML.html#133,133,1280,559,1280,720,0-31-2024,14-11-55,27,VR_target_stimuli/s38_1.3x_3.55_358.png,250,1.3x,3.55,2.0,2061,252,meters,jsons/MX_seq28_2_VE250.json,197152,442705,24,Man
27,610749,final-intermixed-textured,v2,jsons/MX_seq28_2_VE250.json,http://54.235.29.9/FacialAge/BNav_EC2/DepthDuration/MX_fS_VE_MTurk/MX_fS_HTML.html#133,133,1280,559,1280,720,0-31-2024,14-11-55,28,VR_target_stimuli/s9_1.3x_1.2_276_BC.png,250,1.3x,1.2,1.0,2573,250,meters,jsons/MX_seq28_2_VE250.json,197152,442705,24,Man
28,610749,final-intermixed-textured,v2,jsons/MX_seq28_2_VE250.json,http://54.235.29.9/FacialAge/BNav_EC2/DepthDuration/MX_fS_VE_MTurk/MX_fS_HTML.html#133,133,1280,559,1280,720,0-31-2024,14-11-55,29,VR_target_stimuli/s44_1x_4.4_317.png,250,1x,4.4,5.0,4749,263,meters,jsons/MX_seq28_2_VE250.json,197152,442705,24,Man
29,610749,final-intermixed-textured,v2,jsons/MX_seq28_2_VE250.json,http://54.235.29.9/FacialAge/BNav_EC2/DepthDuration/MX_fS_VE_MTurk/MX_fS_HTML.html#133,133,1280,559,1280,720,0-31-2024,14-11-55,30,VR_target_stimuli/s3_0.75x_5_381.png,250,0.75x,5.0,5.0,2381,262,meters,jsons/MX_seq28_2_VE250.json,197152,442705,24,Man
30,610749,final-intermixed-textured,v2,jsons/MX_seq28_2_VE250.json,http://54.235.29.9/FacialAge/BNav_EC2/DepthDuration/MX_fS_VE_MTurk/MX_fS_HTML.html#133,133,1280,559,1280,720,0-31-2024,14-11-55,31,VR_target_stimuli/s1_1.3x_1.7_261.png,250,1.3x,1.7,2.0,2398,247,meters,jsons/MX_seq28_2_VE250.json,197152,442705,24,Man
31,610749,final-intermixed-textured,v2,jsons/MX_seq28_2_VE250.json,http://54.235.29.9/FacialAge/BNav_EC2/DepthDuration/MX_fS_VE_MTurk/MX_fS_HTML.html#133,133,1280,559,1280,720,0-31-2024,14-11-55,32,VR_target_stimuli/s11_0.75x_5_359_BC.png,250,0.75x,5.0,4.0,2601,261,meters,jsons/MX_seq28_2_VE250.json,197152,442705,24,Man
32,610749,final-intermixed-textured,v2,jsons/MX_seq28_2_VE250.json,http://54.235.29.9/FacialAge/BNav_EC2/DepthDuration/MX_fS_VE_MTurk/MX_fS_HTML.html#133,133,1280,559,1280,720,0-31-2024,14-11-55,33,VR_target_stimuli/s2_1x_2.7_390_BC.png,250,1x,2.7,1.0,2403,249,meters,jsons/MX_seq28_2_VE250.json,197152,442705,24,Man
33,610749,final-intermixed-textured,v2,jsons/MX_seq28_2_VE250.json,http://54.235.29.9/FacialAge/BNav_EC2/DepthDuration/MX_fS_VE_MTurk/MX_fS_HTML.html#133,133,1280,559,1280,720,0-31-2024,14-11-55,34,catch_stimuli/c3.png,250,,,0.0,4290,246,meters,jsons/MX_seq28_2_VE250.json,197152,442705,24,Man
34,610749,final-intermixed-textured,v2,jsons/MX_seq28_2_VE250.json,http://54.235.29.9/FacialAge/BNav_EC2/DepthDuration/MX_fS_VE_MTurk/MX_fS_HTML.html#133,133,1280,559,1280,720,0-31-2024,14-11-55,35,VR_target_stimuli/s6_0.75x_2.1_290.png,250,0.75x,2.1,1.0,2129,246,meters,jsons/MX_seq28_2_VE250.json,197152,442705,24,Man
35,610749,final-intermixed-textured,v2,jsons/MX_seq28_2_VE250.json,http://54.235.29.9/FacialAge/BNav_EC2/DepthDuration/MX_fS_VE_MTurk/MX_fS_HTML.html#133,133,1280,559,1280,720,0-31-2024,14-11-55,36,VR_target_stimuli/s0_1.3x_2.6_356.png,250,1.3x,2.6,1.0,1814,246,meters,jsons/MX_seq28_2_VE250.json,197152,442705,24,Man
36,610749,final-intermixed-textured,v2,jsons/MX_seq28_2_VE250.json,http://54.235.29.9/FacialAge/BNav_EC2/DepthDuration/MX_fS_VE_MTurk/MX_fS_HTML.html#133,133,1280,559,1280,720,0-31-2024,14-11-55,37,VR_target_stimuli/s34_1x_2.8_283_BC.png,250,1x,2.8,2.0,2169,256,meters,jsons/MX_seq28_2_VE250.json,197152,442705,24,Man
37,610749,final-intermixed-textured,v2,jsons/MX_seq28_2_VE250.json,http://54.235.29.9/FacialAge/BNav_EC2/DepthDuration/MX_fS_VE_MTurk/MX_fS_HTML.html#133,133,1280,559,1280,720,0-31-2024,14-11-55,38,VR_target_stimuli/s13_1x_2.4_310.png,250,1x,2.4,2.0,2184,263,meters,jsons/MX_seq28_2_VE250.json,197152,442705,24,Man
38,610749,final-intermixed-textured,v2,jsons/MX_seq28_2_VE250.json,http://54.235.29.9/FacialAge/BNav_EC2/DepthDuration/MX_fS_VE_MTurk/MX_fS_HTML.html#133,133,1280,559,1280,720,0-31-2024,14-11-55,39,VR_target_stimuli/s14_0.75x_3.83_355_BC.png,250,0.75x,3.83,3.0,2021,245,meters,jsons/MX_seq28_2_VE250.json,197152,442705,24,Man
39,610749,final-intermixed-textured,v2,jsons/MX_seq28_2_VE250.json,http://54.235.29.9/FacialAge/BNav_EC2/DepthDuration/MX_fS_VE_MTurk/MX_fS_HTML.html#133,133,1280,559,1280,720,0-31-2024,14-11-55,40,VR_target_stimuli/s47_1.3x_3.45_373_BC.png,250,1.3x,3.45,2.0,1989,248,meters,jsons/MX_seq28_2_VE250.json,197152,442705,24,Man
40,610749,final-intermixed-textured,v2,jsons/MX_seq28_2_VE250.json,http://54.235.29.9/FacialAge/BNav_EC2/DepthDuration/MX_fS_VE_MTurk/MX_fS_HTML.html#133,133,1280,559,1280,720,0-31-2024,14-11-55,41,VR_target_stimuli/s29_0.75x_1.3_246_BC.png,250,0.75x,1.3,2.0,2053,247,meters,jsons/MX_seq28_2_VE250.json,197152,442705,24,Man
41,610749,final-intermixed-textured,v2,jsons/MX_seq28_2_VE250.json,http://54.235.29.9/FacialAge/BNav_EC2/DepthDuration/MX_fS_VE_MTurk/MX_fS_HTML.html#133,133,1280,559,1280,720,0-31-2024,14-11-55,42,VR_target_stimuli/s28_1x_3.2_362.png,250,1x,3.2,3.0,2150,247,meters,jsons/MX_seq28_2_VE250.json,197152,442705,24,Man
42,610749,final-intermixed-textured,v2,jsons/MX_seq28_2_VE250.json,http://54.235.29.9/FacialAge/BNav_EC2/DepthDuration/MX_fS_VE_MTurk/MX_fS_HTML.html#133,133,1280,559,1280,720,0-31-2024,14-11-55,43,VR_target_stimuli/s48_1.3x_2.55_255.png,250,1.3x,2.55,3.0,2245,247,meters,jsons/MX_seq28_2_VE250.json,197152,442705,24,Man
43,610749,final-intermixed-textured,v2,jsons/MX_seq28_2_VE250.json,http://54.235.29.9/FacialAge/BNav_EC2/DepthDuration/MX_fS_VE_MTurk/MX_fS_HTML.html#133,133,1280,559,1280,720,0-31-2024,14-11-55,44,VR_target_stimuli/s19_1x_1.21_263_BC.png,250,1x,1.21,1.0,2622,261,meters,jsons/MX_seq28_2_VE250.json,197152,442705,24,Man
44,610749,final-intermixed-textured,v2,jsons/MX_seq28_2_VE250.json,http://54.235.29.9/FacialAge/BNav_EC2/DepthDuration/MX_fS_VE_MTurk/MX_fS_HTML.html#133,133,1280,559,1280,720,0-31-2024,14-11-55,45,catch_stimuli/c4.png,250,,,0.0,3206,246,meters,jsons/MX_seq28_2_VE250.json,197152,442705,24,Man
45,610749,final-intermixed-textured,v2,jsons/MX_seq28_2_VE250.json,http://54.235.29.9/FacialAge/BNav_EC2/DepthDuration/MX_fS_VE_MTurk/MX_fS_HTML.html#133,133,1280,559,1280,720,0-31-2024,14-11-55,46,VR_target_stimuli/s21_0.75x_4.22_374.png,250,0.75x,4.22,6.0,3231,262,meters,jsons/MX_seq28_2_VE250.json,197152,442705,24,Man
46,610749,final-intermixed-textured,v2,jsons/MX_seq28_2_VE250.json,http://54.235.29.9/FacialAge/BNav_EC2/DepthDuration/MX_fS_VE_MTurk/MX_fS_HTML.html#133,133,1280,559,1280,720,0-31-2024,14-11-55,47,VR_target_stimuli/s8_1.3x_3.1_345_BC.png,250,1.3x,3.1,3.0,2574,246,meters,jsons/MX_seq28_2_VE250.json,197152,442705,24,Man
47,610749,final-intermixed-textured,v2,jsons/MX_seq28_2_VE250.json,http://54.235.29.9/FacialAge/BNav_EC2/DepthDuration/MX_fS_VE_MTurk/MX_fS_HTML.html#133,133,1280,559,1280,720,0-31-2024,14-11-55,48,VR_target_stimuli/s27_1.3x_1.76_250_BC.png,250,1.3x,1.76,2.0,1933,263,meters,jsons/MX_seq28_2_VE250.json,197152,442705,24,Man
48,610749,final-intermixed-textured,v2,jsons/MX_seq28_2_VE250.json,http://54.235.29.9/FacialAge/BNav_EC2/DepthDuration/MX_fS_VE_MTurk/MX_fS_HTML.html#133,133,1280,559,1280,720,0-31-2024,14-11-55,49,VR_target_stimuli/s15_1x_4.2_390.png,250,1x,4.2,3.0,2058,248,meters,jsons/MX_seq28_2_VE250.json,197152,442705,24,Man
49,610749,final-intermixed-textured,v2,jsons/MX_seq28_2_VE250.json,http://54.235.29.9/FacialAge/BNav_EC2/DepthDuration/MX_fS_VE_MTurk/MX_fS_HTML.html#133,133,1280,559,1280,720,0-31-2024,14-11-55,50,VR_target_stimuli/s4_0.75x_1.4_301.png,250,0.75x,1.4,2.0,2084,248,meters,jsons/MX_seq28_2_VE250.json,197152,442705,24,Man
50,610749,final-intermixed-textured,v2,jsons/MX_seq28_2_VE250.json,http://54.235.29.9/FacialAge/BNav_EC2/DepthDuration/MX_fS_VE_MTurk/MX_fS_HTML.html#133,133,1280,559,1280,720,0-31-2024,14-11-55,51,VR_target_stimuli/s35_1x_2_331_BC.png,250,1x,2.0,1.0,2090,249,meters,jsons/MX_seq28_2_VE250.json,197152,442705,24,Man
51,610749,final-intermixed-textured,v2,jsons/MX_seq28_2_VE250.json,http://54.235.29.9/FacialAge/BNav_EC2/DepthDuration/MX_fS_VE_MTurk/MX_fS_HTML.html#133,133,1280,559,1280,720,0-31-2024,14-11-55,52,VR_target_stimuli/s49_1.3x_4.67_354.png,250,1.3x,4.67,5.0,2690,247,meters,jsons/MX_seq28_2_VE250.json,197152,442705,24,Man
52,610749,final-intermixed-textured,v2,jsons/MX_seq28_2_VE250.json,http://54.235.29.9/FacialAge/BNav_EC2/DepthDuration/MX_fS_VE_MTurk/MX_fS_HTML.html#133,133,1280,559,1280,720,0-31-2024,14-11-55,53,catch_stimuli/c5.png,250,,,0.0,3030,248,meters,jsons/MX_seq28_2_VE250.json,197152,442705,24,Man
53,610749,final-intermixed-textured,v2,jsons/MX_seq28_2_VE250.json,http://54.235.29.9/FacialAge/BNav_EC2/DepthDuration/MX_fS_VE_MTurk/MX_fS_HTML.html#133,133,1280,559,1280,720,0-31-2024,14-11-55,54,VR_target_stimuli/s7_0.75x_1.5_253_BC.png,250,0.75x,1.5,1.0,2198,264,meters,jsons/MX_seq28_2_VE250.json,197152,442705,24,Man
54,610749,final-intermixed-textured,v2,jsons/MX_seq28_2_VE250.json,http://54.235.29.9/FacialAge/BNav_EC2/DepthDuration/MX_fS_VE_MTurk/MX_fS_HTML.html#133,133,1280,559,1280,720,0-31-2024,14-11-55,55,VR_target_stimuli/s20_1.3x_4.99_412.png,250,1.3x,4.99,4.0,2275,250,meters,jsons/MX_seq28_2_VE250.json,197152,442705,24,Man
55,610749,final-intermixed-textured,v2,jsons/MX_seq28_2_VE250.json,http://54.235.29.9/FacialAge/BNav_EC2/DepthDuration/MX_fS_VE_MTurk/MX_fS_HTML.html#133,133,1280,559,1280,720,0-31-2024,14-11-55,56,VR_target_stimuli/s31_1x_4.96_333.png,250,1x,4.96,6.0,2839,250,meters,jsons/MX_seq28_2_VE250.json,197152,442705,24,Man
56,610749,final-intermixed-textured,v2,jsons/MX_seq28_2_VE250.json,http://54.235.29.9/FacialAge/BNav_EC2/DepthDuration/MX_fS_VE_MTurk/MX_fS_HTML.html#133,133,1280,559,1280,720,0-31-2024,14-11-55,57,VR_target_stimuli/s33_0.75x_3.1_361_BC.png,250,0.75x,3.1,3.0,2725,245,meters,jsons/MX_seq28_2_VE250.json,197152,442705,24,Man
57,610749,final-intermixed-textured,v2,jsons/MX_seq28_2_VE250.json,http://54.235.29.9/FacialAge/BNav_EC2/DepthDuration/MX_fS_VE_MTurk/MX_fS_HTML.html#133,133,1280,559,1280,720,0-31-2024,14-11-55,58,VR_target_stimuli/s52_0.75x_3.2_270.png,250,0.75x,3.2,4.0,3479,247,meters,jsons/MX_seq28_2_VE250.json,197152,442705,24,Man
58,610749,final-intermixed-textured,v2,jsons/MX_seq28_2_VE250.json,http://54.235.29.9/FacialAge/BNav_EC2/DepthDuration/MX_fS_VE_MTurk/MX_fS_HTML.html#133,133,1280,559,1280,720,0-31-2024,14-11-55,59,VR_target_stimuli/s32_1.3x_1.5_224_BC.png,250,1.3x,1.5,2.0,1933,250,meters,jsons/MX_seq28_2_VE250.json,197152,442705,24,Man
59,610749,final-intermixed-textured,v2,jsons/MX_seq28_2_VE250.json,http://54.235.29.9/FacialAge/BNav_EC2/DepthDuration/MX_fS_VE_MTurk/MX_fS_HTML.html#133,133,1280,559,1280,720,0-31-2024,14-11-55,60,VR_target_stimuli/s18_1x_2.25_353_BC.png,250,1x,2.25,2.0,1836,245,meters,jsons/MX_seq28_2_VE250.json,197152,442705,24,Man
