,subjID,experimentName,versionName,sequenceName,url,selected_row,windowWidth,windowHeight,screenWidth,screenHeight,startDate,startTime,trial,stimulus,duration,scale,actual_depth,depth_estimate,trial_RT,log_sceneDuration,unitSelection,seq_filepath,experimentTime,totalTime,age,gender
0,651615,final-intermixed-textured,v2,jsons/MX_seq32_1_VE250.json,http://54.235.29.9/FacialAge/BNav_EC2/DepthDuration/MX_fS_VE_MTurk/MX_fS_HTML.html#45,45,1360,607,1360,768,0-31-2024,13-31-59,1,VR_target_stimuli/s10_1.3x_2.7_325.png,250,1.3x,2.7,15,4400,249,meters,jsons/MX_seq32_1_VE250.json,237430,461393,29,Hombre
1,651615,final-intermixed-textured,v2,jsons/MX_seq32_1_VE250.json,http://54.235.29.9/FacialAge/BNav_EC2/DepthDuration/MX_fS_VE_MTurk/MX_fS_HTML.html#45,45,1360,607,1360,768,0-31-2024,13-31-59,2,VR_target_stimuli/s36_0.75x_4.1_407.png,250,0.75x,4.1,15,3661,261,meters,jsons/MX_seq32_1_VE250.json,237430,461393,29,Hombre
2,651615,final-intermixed-textured,v2,jsons/MX_seq32_1_VE250.json,http://54.235.29.9/FacialAge/BNav_EC2/DepthDuration/MX_fS_VE_MTurk/MX_fS_HTML.html#45,45,1360,607,1360,768,0-31-2024,13-31-59,3,VR_target_stimuli/s40_1x_1.2_319.png,250,1x,1.2,6,4472,256,meters,jsons/MX_seq32_1_VE250.json,237430,461393,29,Hombre
3,651615,final-intermixed-textured,v2,jsons/MX_seq32_1_VE250.json,http://54.235.29.9/FacialAge/BNav_EC2/DepthDuration/MX_fS_VE_MTurk/MX_fS_HTML.html#45,45,1360,607,1360,768,0-31-2024,13-31-59,4,VR_target_stimuli/s41_0.75x_2.1_281_BC.png,250,0.75x,2.1,8,3368,246,meters,jsons/MX_seq32_1_VE250.json,237430,461393,29,Hombre
4,651615,final-intermixed-textured,v2,jsons/MX_seq32_1_VE250.json,http://54.235.29.9/FacialAge/BNav_EC2/DepthDuration/MX_fS_VE_MTurk/MX_fS_HTML.html#45,45,1360,607,1360,768,0-31-2024,13-31-59,5,VR_target_stimuli/s45_1.3x_3.5_377_BC.png,250,1.3x,3.5,6,3392,271,meters,jsons/MX_seq32_1_VE250.json,237430,461393,29,Hombre
5,651615,final-intermixed-textured,v2,jsons/MX_seq32_1_VE250.json,http://54.235.29.9/FacialAge/BNav_EC2/DepthDuration/MX_fS_VE_MTurk/MX_fS_HTML.html#45,45,1360,607,1360,768,0-31-2024,13-31-59,6,VR_target_stimuli/s23_1x_3.65_353_BC.png,250,1x,3.65,4,3005,254,meters,jsons/MX_seq32_1_VE250.json,237430,461393,29,Hombre
6,651615,final-intermixed-textured,v2,jsons/MX_seq32_1_VE250.json,http://54.235.29.9/FacialAge/BNav_EC2/DepthDuration/MX_fS_VE_MTurk/MX_fS_HTML.html#45,45,1360,607,1360,768,0-31-2024,13-31-59,7,catch_stimuli/c0.png,250,,,0,2820,255,meters,jsons/MX_seq32_1_VE250.json,237430,461393,29,Hombre
7,651615,final-intermixed-textured,v2,jsons/MX_seq32_1_VE250.json,http://54.235.29.9/FacialAge/BNav_EC2/DepthDuration/MX_fS_VE_MTurk/MX_fS_HTML.html#45,45,1360,607,1360,768,0-31-2024,13-31-59,8,VR_target_stimuli/s26_1x_4_433_BC.png,250,1x,4.0,8,7452,251,meters,jsons/MX_seq32_1_VE250.json,237430,461393,29,Hombre
8,651615,final-intermixed-textured,v2,jsons/MX_seq32_1_VE250.json,http://54.235.29.9/FacialAge/BNav_EC2/DepthDuration/MX_fS_VE_MTurk/MX_fS_HTML.html#45,45,1360,607,1360,768,0-31-2024,13-31-59,9,VR_target_stimuli/s12_0.75x_3.1_364.png,250,0.75x,3.1,6,3524,256,meters,jsons/MX_seq32_1_VE250.json,237430,461393,29,Hombre
9,651615,final-intermixed-textured,v2,jsons/MX_seq32_1_VE250.json,http://54.235.29.9/FacialAge/BNav_EC2/DepthDuration/MX_fS_VE_MTurk/MX_fS_HTML.html#45,45,1360,607,1360,768,0-31-2024,13-31-59,10,VR_target_stimuli/s30_1.3x_2.3_337_BC.png,250,1.3x,2.3,0,2748,236,meters,jsons/MX_seq32_1_VE250.json,237430,461393,29,Hombre
10,651615,final-intermixed-textured,v2,jsons/MX_seq32_1_VE250.json,http://54.235.29.9/FacialAge/BNav_EC2/DepthDuration/MX_fS_VE_MTurk/MX_fS_HTML.html#45,45,1360,607,1360,768,0-31-2024,13-31-59,11,VR_target_stimuli/s16_0.75x_1_217_BC.png,250,0.75x,1.0,2,2979,263,meters,jsons/MX_seq32_1_VE250.json,237430,461393,29,Hombre
11,651615,final-intermixed-textured,v2,jsons/MX_seq32_1_VE250.json,http://54.235.29.9/FacialAge/BNav_EC2/DepthDuration/MX_fS_VE_MTurk/MX_fS_HTML.html#45,45,1360,607,1360,768,0-31-2024,13-31-59,12,VR_target_stimuli/s17_1x_1.8_291.png,250,1x,1.8,2,3238,250,meters,jsons/MX_seq32_1_VE250.json,237430,461393,29,Hombre
12,651615,final-intermixed-textured,v2,jsons/MX_seq32_1_VE250.json,http://54.235.29.9/FacialAge/BNav_EC2/DepthDuration/MX_fS_VE_MTurk/MX_fS_HTML.html#45,45,1360,607,1360,768,0-31-2024,13-31-59,13,VR_target_stimuli/s5_1.3x_4_393.png,250,1.3x,4.0,5,2905,263,meters,jsons/MX_seq32_1_VE250.json,237430,461393,29,Hombre
13,651615,final-intermixed-textured,v2,jsons/MX_seq32_1_VE250.json,http://54.235.29.9/FacialAge/BNav_EC2/DepthDuration/MX_fS_VE_MTurk/MX_fS_HTML.html#45,45,1360,607,1360,768,0-31-2024,13-31-59,14,VR_target_stimuli/s37_1x_3.3_563_BC.png,250,1x,3.3,7,4592,254,meters,jsons/MX_seq32_1_VE250.json,237430,461393,29,Hombre
14,651615,final-intermixed-textured,v2,jsons/MX_seq32_1_VE250.json,http://54.235.29.9/FacialAge/BNav_EC2/DepthDuration/MX_fS_VE_MTurk/MX_fS_HTML.html#45,45,1360,607,1360,768,0-31-2024,13-31-59,15,VR_target_stimuli/s46_0.75x_2.42_343_BC.png,250,0.75x,2.42,5,4580,257,meters,jsons/MX_seq32_1_VE250.json,237430,461393,29,Hombre
15,651615,final-intermixed-textured,v2,jsons/MX_seq32_1_VE250.json,http://54.235.29.9/FacialAge/BNav_EC2/DepthDuration/MX_fS_VE_MTurk/MX_fS_HTML.html#45,45,1360,607,1360,768,0-31-2024,13-31-59,16,VR_target_stimuli/s22_1.3x_4.29_364.png,250,1.3x,4.29,6,2791,251,meters,jsons/MX_seq32_1_VE250.json,237430,461393,29,Hombre
16,651615,final-intermixed-textured,v2,jsons/MX_seq32_1_VE250.json,http://54.235.29.9/FacialAge/BNav_EC2/DepthDuration/MX_fS_VE_MTurk/MX_fS_HTML.html#45,45,1360,607,1360,768,0-31-2024,13-31-59,17,catch_stimuli/c1.png,250,,,0,2952,253,meters,jsons/MX_seq32_1_VE250.json,237430,461393,29,Hombre
17,651615,final-intermixed-textured,v2,jsons/MX_seq32_1_VE250.json,http://54.235.29.9/FacialAge/BNav_EC2/DepthDuration/MX_fS_VE_MTurk/MX_fS_HTML.html#45,45,1360,607,1360,768,0-31-2024,13-31-59,18,VR_target_stimuli/s42_1.3x_3.2_305_BC.png,250,1.3x,3.2,5,4875,255,meters,jsons/MX_seq32_1_VE250.json,237430,461393,29,Hombre
18,651615,final-intermixed-textured,v2,jsons/MX_seq32_1_VE250.json,http://54.235.29.9/FacialAge/BNav_EC2/DepthDuration/MX_fS_VE_MTurk/MX_fS_HTML.html#45,45,1360,607,1360,768,0-31-2024,13-31-59,19,VR_target_stimuli/s25_1x_1.4_290.png,250,1x,1.4,2,2653,246,meters,jsons/MX_seq32_1_VE250.json,237430,461393,29,Hombre
19,651615,final-intermixed-textured,v2,jsons/MX_seq32_1_VE250.json,http://54.235.29.9/FacialAge/BNav_EC2/DepthDuration/MX_fS_VE_MTurk/MX_fS_HTML.html#45,45,1360,607,1360,768,0-31-2024,13-31-59,20,VR_target_stimuli/s50_0.75x_4.53_517.png,250,0.75x,4.53,4,2910,252,meters,jsons/MX_seq32_1_VE250.json,237430,461393,29,Hombre
20,651615,final-intermixed-textured,v2,jsons/MX_seq32_1_VE250.json,http://54.235.29.9/FacialAge/BNav_EC2/DepthDuration/MX_fS_VE_MTurk/MX_fS_HTML.html#45,45,1360,607,1360,768,0-31-2024,13-31-59,21,VR_target_stimuli/s53_1x_1.6_387_BC.png,250,1x,1.6,1,2779,260,meters,jsons/MX_seq32_1_VE250.json,237430,461393,29,Hombre
21,651615,final-intermixed-textured,v2,jsons/MX_seq32_1_VE250.json,http://54.235.29.9/FacialAge/BNav_EC2/DepthDuration/MX_fS_VE_MTurk/MX_fS_HTML.html#45,45,1360,607,1360,768,0-31-2024,13-31-59,22,VR_target_stimuli/s38_1.3x_3.55_358.png,250,1.3x,3.55,0,3316,245,meters,jsons/MX_seq32_1_VE250.json,237430,461393,29,Hombre
22,651615,final-intermixed-textured,v2,jsons/MX_seq32_1_VE250.json,http://54.235.29.9/FacialAge/BNav_EC2/DepthDuration/MX_fS_VE_MTurk/MX_fS_HTML.html#45,45,1360,607,1360,768,0-31-2024,13-31-59,23,VR_target_stimuli/s9_0.75x_1.2_260.png,250,0.75x,1.2,2,5263,247,meters,jsons/MX_seq32_1_VE250.json,237430,461393,29,Hombre
23,651615,final-intermixed-textured,v2,jsons/MX_seq32_1_VE250.json,http://54.235.29.9/FacialAge/BNav_EC2/DepthDuration/MX_fS_VE_MTurk/MX_fS_HTML.html#45,45,1360,607,1360,768,0-31-2024,13-31-59,24,VR_target_stimuli/s44_1.3x_4.4_325_BC.png,250,1.3x,4.4,8,3677,248,meters,jsons/MX_seq32_1_VE250.json,237430,461393,29,Hombre
24,651615,final-intermixed-textured,v2,jsons/MX_seq32_1_VE250.json,http://54.235.29.9/FacialAge/BNav_EC2/DepthDuration/MX_fS_VE_MTurk/MX_fS_HTML.html#45,45,1360,607,1360,768,0-31-2024,13-31-59,25,VR_target_stimuli/s3_1x_5_385.png,250,1x,5.0,10,3876,247,meters,jsons/MX_seq32_1_VE250.json,237430,461393,29,Hombre
25,651615,final-intermixed-textured,v2,jsons/MX_seq32_1_VE250.json,http://54.235.29.9/FacialAge/BNav_EC2/DepthDuration/MX_fS_VE_MTurk/MX_fS_HTML.html#45,45,1360,607,1360,768,0-31-2024,13-31-59,26,catch_stimuli/c2.png,250,,,0,3344,256,meters,jsons/MX_seq32_1_VE250.json,237430,461393,29,Hombre
26,651615,final-intermixed-textured,v2,jsons/MX_seq32_1_VE250.json,http://54.235.29.9/FacialAge/BNav_EC2/DepthDuration/MX_fS_VE_MTurk/MX_fS_HTML.html#45,45,1360,607,1360,768,0-31-2024,13-31-59,27,VR_target_stimuli/s1_0.75x_1.7_265_BC.png,250,0.75x,1.7,4,3215,244,meters,jsons/MX_seq32_1_VE250.json,237430,461393,29,Hombre
27,651615,final-intermixed-textured,v2,jsons/MX_seq32_1_VE250.json,http://54.235.29.9/FacialAge/BNav_EC2/DepthDuration/MX_fS_VE_MTurk/MX_fS_HTML.html#45,45,1360,607,1360,768,0-31-2024,13-31-59,28,VR_target_stimuli/s11_0.75x_5_359_BC.png,250,0.75x,5.0,8,3666,252,meters,jsons/MX_seq32_1_VE250.json,237430,461393,29,Hombre
28,651615,final-intermixed-textured,v2,jsons/MX_seq32_1_VE250.json,http://54.235.29.9/FacialAge/BNav_EC2/DepthDuration/MX_fS_VE_MTurk/MX_fS_HTML.html#45,45,1360,607,1360,768,0-31-2024,13-31-59,29,VR_target_stimuli/s2_1.3x_2.7_397_BC.png,250,1.3x,2.7,6,3414,247,meters,jsons/MX_seq32_1_VE250.json,237430,461393,29,Hombre
29,651615,final-intermixed-textured,v2,jsons/MX_seq32_1_VE250.json,http://54.235.29.9/FacialAge/BNav_EC2/DepthDuration/MX_fS_VE_MTurk/MX_fS_HTML.html#45,45,1360,607,1360,768,0-31-2024,13-31-59,30,VR_target_stimuli/s6_1x_2.1_293_BC.png,250,1x,2.1,4,2417,246,meters,jsons/MX_seq32_1_VE250.json,237430,461393,29,Hombre
30,651615,final-intermixed-textured,v2,jsons/MX_seq32_1_VE250.json,http://54.235.29.9/FacialAge/BNav_EC2/DepthDuration/MX_fS_VE_MTurk/MX_fS_HTML.html#45,45,1360,607,1360,768,0-31-2024,13-31-59,31,VR_target_stimuli/s0_0.75x_2.6_345.png,250,0.75x,2.6,8,3177,253,meters,jsons/MX_seq32_1_VE250.json,237430,461393,29,Hombre
31,651615,final-intermixed-textured,v2,jsons/MX_seq32_1_VE250.json,http://54.235.29.9/FacialAge/BNav_EC2/DepthDuration/MX_fS_VE_MTurk/MX_fS_HTML.html#45,45,1360,607,1360,768,0-31-2024,13-31-59,32,VR_target_stimuli/s34_1x_2.8_283.png,250,1x,2.8,6,3026,256,meters,jsons/MX_seq32_1_VE250.json,237430,461393,29,Hombre
32,651615,final-intermixed-textured,v2,jsons/MX_seq32_1_VE250.json,http://54.235.29.9/FacialAge/BNav_EC2/DepthDuration/MX_fS_VE_MTurk/MX_fS_HTML.html#45,45,1360,607,1360,768,0-31-2024,13-31-59,33,VR_target_stimuli/s13_1.3x_2.4_313.png,250,1.3x,2.4,6,2389,252,meters,jsons/MX_seq32_1_VE250.json,237430,461393,29,Hombre
33,651615,final-intermixed-textured,v2,jsons/MX_seq32_1_VE250.json,http://54.235.29.9/FacialAge/BNav_EC2/DepthDuration/MX_fS_VE_MTurk/MX_fS_HTML.html#45,45,1360,607,1360,768,0-31-2024,13-31-59,34,catch_stimuli/c3.png,250,,,0,2960,242,meters,jsons/MX_seq32_1_VE250.json,237430,461393,29,Hombre
34,651615,final-intermixed-textured,v2,jsons/MX_seq32_1_VE250.json,http://54.235.29.9/FacialAge/BNav_EC2/DepthDuration/MX_fS_VE_MTurk/MX_fS_HTML.html#45,45,1360,607,1360,768,0-31-2024,13-31-59,35,VR_target_stimuli/s14_1x_ 3.83_357_BC.png,250,1x,3.83,10,3746,245,meters,jsons/MX_seq32_1_VE250.json,237430,461393,29,Hombre
35,651615,final-intermixed-textured,v2,jsons/MX_seq32_1_VE250.json,http://54.235.29.9/FacialAge/BNav_EC2/DepthDuration/MX_fS_VE_MTurk/MX_fS_HTML.html#45,45,1360,607,1360,768,0-31-2024,13-31-59,36,VR_target_stimuli/s47_0.75x_3.45_366_BC.png,250,0.75x,3.45,5,6349,240,meters,jsons/MX_seq32_1_VE250.json,237430,461393,29,Hombre
36,651615,final-intermixed-textured,v2,jsons/MX_seq32_1_VE250.json,http://54.235.29.9/FacialAge/BNav_EC2/DepthDuration/MX_fS_VE_MTurk/MX_fS_HTML.html#45,45,1360,607,1360,768,0-31-2024,13-31-59,37,VR_target_stimuli/s29_1.3x_1.3_253_BC.png,250,1.3x,1.3,1,2792,240,meters,jsons/MX_seq32_1_VE250.json,237430,461393,29,Hombre
37,651615,final-intermixed-textured,v2,jsons/MX_seq32_1_VE250.json,http://54.235.29.9/FacialAge/BNav_EC2/DepthDuration/MX_fS_VE_MTurk/MX_fS_HTML.html#45,45,1360,607,1360,768,0-31-2024,13-31-59,38,VR_target_stimuli/s28_1.3x_3.2_365.png,250,1.3x,3.2,8,3874,266,meters,jsons/MX_seq32_1_VE250.json,237430,461393,29,Hombre
38,651615,final-intermixed-textured,v2,jsons/MX_seq32_1_VE250.json,http://54.235.29.9/FacialAge/BNav_EC2/DepthDuration/MX_fS_VE_MTurk/MX_fS_HTML.html#45,45,1360,607,1360,768,0-31-2024,13-31-59,39,VR_target_stimuli/s48_1x_2.55_256.png,250,1x,2.55,6,2618,268,meters,jsons/MX_seq32_1_VE250.json,237430,461393,29,Hombre
39,651615,final-intermixed-textured,v2,jsons/MX_seq32_1_VE250.json,http://54.235.29.9/FacialAge/BNav_EC2/DepthDuration/MX_fS_VE_MTurk/MX_fS_HTML.html#45,45,1360,607,1360,768,0-31-2024,13-31-59,40,VR_target_stimuli/s19_0.75x_1.21_257.png,250,0.75x,1.21,4,2806,265,meters,jsons/MX_seq32_1_VE250.json,237430,461393,29,Hombre
40,651615,final-intermixed-textured,v2,jsons/MX_seq32_1_VE250.json,http://54.235.29.9/FacialAge/BNav_EC2/DepthDuration/MX_fS_VE_MTurk/MX_fS_HTML.html#45,45,1360,607,1360,768,0-31-2024,13-31-59,41,VR_target_stimuli/s21_1x_4.22_379_BC.png,250,1x,4.22,10,4467,251,meters,jsons/MX_seq32_1_VE250.json,237430,461393,29,Hombre
41,651615,final-intermixed-textured,v2,jsons/MX_seq32_1_VE250.json,http://54.235.29.9/FacialAge/BNav_EC2/DepthDuration/MX_fS_VE_MTurk/MX_fS_HTML.html#45,45,1360,607,1360,768,0-31-2024,13-31-59,42,VR_target_stimuli/s8_1.3x_3.1_345_BC.png,250,1.3x,3.1,6,3726,239,meters,jsons/MX_seq32_1_VE250.json,237430,461393,29,Hombre
42,651615,final-intermixed-textured,v2,jsons/MX_seq32_1_VE250.json,http://54.235.29.9/FacialAge/BNav_EC2/DepthDuration/MX_fS_VE_MTurk/MX_fS_HTML.html#45,45,1360,607,1360,768,0-31-2024,13-31-59,43,VR_target_stimuli/s27_0.75x_1.76_243.png,250,0.75x,1.76,0,4340,248,meters,jsons/MX_seq32_1_VE250.json,237430,461393,29,Hombre
43,651615,final-intermixed-textured,v2,jsons/MX_seq32_1_VE250.json,http://54.235.29.9/FacialAge/BNav_EC2/DepthDuration/MX_fS_VE_MTurk/MX_fS_HTML.html#45,45,1360,607,1360,768,0-31-2024,13-31-59,44,VR_target_stimuli/s15_1.3x_4.2_389.png,250,1.3x,4.2,8,3260,247,meters,jsons/MX_seq32_1_VE250.json,237430,461393,29,Hombre
44,651615,final-intermixed-textured,v2,jsons/MX_seq32_1_VE250.json,http://54.235.29.9/FacialAge/BNav_EC2/DepthDuration/MX_fS_VE_MTurk/MX_fS_HTML.html#45,45,1360,607,1360,768,0-31-2024,13-31-59,45,catch_stimuli/c4.png,250,,,0,3041,252,meters,jsons/MX_seq32_1_VE250.json,237430,461393,29,Hombre
45,651615,final-intermixed-textured,v2,jsons/MX_seq32_1_VE250.json,http://54.235.29.9/FacialAge/BNav_EC2/DepthDuration/MX_fS_VE_MTurk/MX_fS_HTML.html#45,45,1360,607,1360,768,0-31-2024,13-31-59,46,VR_target_stimuli/s4_1x_1.4_313.png,250,1x,1.4,2,2592,251,meters,jsons/MX_seq32_1_VE250.json,237430,461393,29,Hombre
46,651615,final-intermixed-textured,v2,jsons/MX_seq32_1_VE250.json,http://54.235.29.9/FacialAge/BNav_EC2/DepthDuration/MX_fS_VE_MTurk/MX_fS_HTML.html#45,45,1360,607,1360,768,0-31-2024,13-31-59,47,VR_target_stimuli/s35_0.75x_2_323_BC.png,250,0.75x,2.0,4,2835,268,meters,jsons/MX_seq32_1_VE250.json,237430,461393,29,Hombre
47,651615,final-intermixed-textured,v2,jsons/MX_seq32_1_VE250.json,http://54.235.29.9/FacialAge/BNav_EC2/DepthDuration/MX_fS_VE_MTurk/MX_fS_HTML.html#45,45,1360,607,1360,768,0-31-2024,13-31-59,48,VR_target_stimuli/s49_0.75x_4.67_328.png,250,0.75x,4.67,10,5722,254,meters,jsons/MX_seq32_1_VE250.json,237430,461393,29,Hombre
48,651615,final-intermixed-textured,v2,jsons/MX_seq32_1_VE250.json,http://54.235.29.9/FacialAge/BNav_EC2/DepthDuration/MX_fS_VE_MTurk/MX_fS_HTML.html#45,45,1360,607,1360,768,0-31-2024,13-31-59,49,VR_target_stimuli/s7_1.3x_1.5_256.png,250,1.3x,1.5,0,3152,255,meters,jsons/MX_seq32_1_VE250.json,237430,461393,29,Hombre
49,651615,final-intermixed-textured,v2,jsons/MX_seq32_1_VE250.json,http://54.235.29.9/FacialAge/BNav_EC2/DepthDuration/MX_fS_VE_MTurk/MX_fS_HTML.html#45,45,1360,607,1360,768,0-31-2024,13-31-59,50,VR_target_stimuli/s20_1x_4.99_398_BC.png,250,1x,4.99,10,4035,234,meters,jsons/MX_seq32_1_VE250.json,237430,461393,29,Hombre
50,651615,final-intermixed-textured,v2,jsons/MX_seq32_1_VE250.json,http://54.235.29.9/FacialAge/BNav_EC2/DepthDuration/MX_fS_VE_MTurk/MX_fS_HTML.html#45,45,1360,607,1360,768,0-31-2024,13-31-59,51,VR_target_stimuli/s31_1.3x_4.96_342_BC.png,250,1.3x,4.96,8,3014,258,meters,jsons/MX_seq32_1_VE250.json,237430,461393,29,Hombre
51,651615,final-intermixed-textured,v2,jsons/MX_seq32_1_VE250.json,http://54.235.29.9/FacialAge/BNav_EC2/DepthDuration/MX_fS_VE_MTurk/MX_fS_HTML.html#45,45,1360,607,1360,768,0-31-2024,13-31-59,52,VR_target_stimuli/s33_0.75x_3.1_361_BC.png,250,0.75x,3.1,8,2717,249,meters,jsons/MX_seq32_1_VE250.json,237430,461393,29,Hombre
52,651615,final-intermixed-textured,v2,jsons/MX_seq32_1_VE250.json,http://54.235.29.9/FacialAge/BNav_EC2/DepthDuration/MX_fS_VE_MTurk/MX_fS_HTML.html#45,45,1360,607,1360,768,0-31-2024,13-31-59,53,catch_stimuli/c5.png,250,,,0,2628,268,meters,jsons/MX_seq32_1_VE250.json,237430,461393,29,Hombre
53,651615,final-intermixed-textured,v2,jsons/MX_seq32_1_VE250.json,http://54.235.29.9/FacialAge/BNav_EC2/DepthDuration/MX_fS_VE_MTurk/MX_fS_HTML.html#45,45,1360,607,1360,768,0-31-2024,13-31-59,54,VR_target_stimuli/s52_1x_3.2_275.png,250,1x,3.2,8,2995,250,meters,jsons/MX_seq32_1_VE250.json,237430,461393,29,Hombre
54,651615,final-intermixed-textured,v2,jsons/MX_seq32_1_VE250.json,http://54.235.29.9/FacialAge/BNav_EC2/DepthDuration/MX_fS_VE_MTurk/MX_fS_HTML.html#45,45,1360,607,1360,768,0-31-2024,13-31-59,55,VR_target_stimuli/s32_0.75x_1.5_213.png,250,0.75x,1.5,6,2066,255,meters,jsons/MX_seq32_1_VE250.json,237430,461393,29,Hombre
55,651615,final-intermixed-textured,v2,jsons/MX_seq32_1_VE250.json,http://54.235.29.9/FacialAge/BNav_EC2/DepthDuration/MX_fS_VE_MTurk/MX_fS_HTML.html#45,45,1360,607,1360,768,0-31-2024,13-31-59,56,VR_target_stimuli/s18_1.3x_2.25_368.png,250,1.3x,2.25,4,2778,256,meters,jsons/MX_seq32_1_VE250.json,237430,461393,29,Hombre
56,651615,final-intermixed-textured,v2,jsons/MX_seq32_1_VE250.json,http://54.235.29.9/FacialAge/BNav_EC2/DepthDuration/MX_fS_VE_MTurk/MX_fS_HTML.html#45,45,1360,607,1360,768,0-31-2024,13-31-59,57,VR_target_stimuli/s39_1x_1_207.png,250,1x,1.0,2,2580,246,meters,jsons/MX_seq32_1_VE250.json,237430,461393,29,Hombre
57,651615,final-intermixed-textured,v2,jsons/MX_seq32_1_VE250.json,http://54.235.29.9/FacialAge/BNav_EC2/DepthDuration/MX_fS_VE_MTurk/MX_fS_HTML.html#45,45,1360,607,1360,768,0-31-2024,13-31-59,58,VR_target_stimuli/s51_1x_3.64_461_BC.png,250,1x,3.64,4,3771,249,meters,jsons/MX_seq32_1_VE250.json,237430,461393,29,Hombre
58,651615,final-intermixed-textured,v2,jsons/MX_seq32_1_VE250.json,http://54.235.29.9/FacialAge/BNav_EC2/DepthDuration/MX_fS_VE_MTurk/MX_fS_HTML.html#45,45,1360,607,1360,768,0-31-2024,13-31-59,59,VR_target_stimuli/s43_0.75x_2.2_348_BC.png,250,0.75x,2.2,4,1819,255,meters,jsons/MX_seq32_1_VE250.json,237430,461393,29,Hombre
59,651615,final-intermixed-textured,v2,jsons/MX_seq32_1_VE250.json,http://54.235.29.9/FacialAge/BNav_EC2/DepthDuration/MX_fS_VE_MTurk/MX_fS_HTML.html#45,45,1360,607,1360,768,0-31-2024,13-31-59,60,VR_target_stimuli/s24_1.3x_3.3_352_BC.png,250,1.3x,3.3,6,3276,252,meters,jsons/MX_seq32_1_VE250.json,237430,461393,29,Hombre
