,subjID,experimentName,versionName,sequenceName,url,selected_row,windowWidth,windowHeight,screenWidth,screenHeight,startDate,startTime,trial,stimulus,duration,scale,actual_depth,depth_estimate,trial_RT,log_sceneDuration,unitSelection,seq_filepath,experimentTime,totalTime,age,gender
0,661474,final-intermixed-textured,v2,jsons/MX_seq41_0_VE250_flipped.json,http://54.235.29.9/FacialAge/BNav_EC2/DepthDuration/MX_fS_VE_MTurk/MX_fS_HTML.html#151,151,1366,641,1366,768,0-31-2024,16-11-48,1,VR_target_stimuli/s16_0.75x_1_217_BC.png,250,0.75x,1.0,3,4147,248,meters,jsons/MX_seq41_0_VE250_flipped.json,189631,835054,28,Woman
1,661474,final-intermixed-textured,v2,jsons/MX_seq41_0_VE250_flipped.json,http://54.235.29.9/FacialAge/BNav_EC2/DepthDuration/MX_fS_VE_MTurk/MX_fS_HTML.html#151,151,1366,641,1366,768,0-31-2024,16-11-48,2,VR_target_stimuli/s17_1x_1.8_291_BC.png,250,1x,1.8,5,3869,247,meters,jsons/MX_seq41_0_VE250_flipped.json,189631,835054,28,Woman
2,661474,final-intermixed-textured,v2,jsons/MX_seq41_0_VE250_flipped.json,http://54.235.29.9/FacialAge/BNav_EC2/DepthDuration/MX_fS_VE_MTurk/MX_fS_HTML.html#151,151,1366,641,1366,768,0-31-2024,16-11-48,3,VR_target_stimuli/s5_1.3x_4_393_BC.png,250,1.3x,4.0,11,4644,263,meters,jsons/MX_seq41_0_VE250_flipped.json,189631,835054,28,Woman
3,661474,final-intermixed-textured,v2,jsons/MX_seq41_0_VE250_flipped.json,http://54.235.29.9/FacialAge/BNav_EC2/DepthDuration/MX_fS_VE_MTurk/MX_fS_HTML.html#151,151,1366,641,1366,768,0-31-2024,16-11-48,4,VR_target_stimuli/s37_1x_3.3_563.png,250,1x,3.3,8,6702,247,meters,jsons/MX_seq41_0_VE250_flipped.json,189631,835054,28,Woman
4,661474,final-intermixed-textured,v2,jsons/MX_seq41_0_VE250_flipped.json,http://54.235.29.9/FacialAge/BNav_EC2/DepthDuration/MX_fS_VE_MTurk/MX_fS_HTML.html#151,151,1366,641,1366,768,0-31-2024,16-11-48,5,VR_target_stimuli/s46_0.75x_2.42_343.png,250,0.75x,2.42,14,6143,247,meters,jsons/MX_seq41_0_VE250_flipped.json,189631,835054,28,Woman
5,661474,final-intermixed-textured,v2,jsons/MX_seq41_0_VE250_flipped.json,http://54.235.29.9/FacialAge/BNav_EC2/DepthDuration/MX_fS_VE_MTurk/MX_fS_HTML.html#151,151,1366,641,1366,768,0-31-2024,16-11-48,6,VR_target_stimuli/s22_1.3x_4.29_364.png,250,1.3x,4.29,11,4891,263,meters,jsons/MX_seq41_0_VE250_flipped.json,189631,835054,28,Woman
6,661474,final-intermixed-textured,v2,jsons/MX_seq41_0_VE250_flipped.json,http://54.235.29.9/FacialAge/BNav_EC2/DepthDuration/MX_fS_VE_MTurk/MX_fS_HTML.html#151,151,1366,641,1366,768,0-31-2024,16-11-48,7,catch_stimuli/c0_BC.png,250,,,0,2929,246,meters,jsons/MX_seq41_0_VE250_flipped.json,189631,835054,28,Woman
7,661474,final-intermixed-textured,v2,jsons/MX_seq41_0_VE250_flipped.json,http://54.235.29.9/FacialAge/BNav_EC2/DepthDuration/MX_fS_VE_MTurk/MX_fS_HTML.html#151,151,1366,641,1366,768,0-31-2024,16-11-48,8,VR_target_stimuli/s42_1.3x_3.2_305.png,250,1.3x,3.2,7,3967,246,meters,jsons/MX_seq41_0_VE250_flipped.json,189631,835054,28,Woman
8,661474,final-intermixed-textured,v2,jsons/MX_seq41_0_VE250_flipped.json,http://54.235.29.9/FacialAge/BNav_EC2/DepthDuration/MX_fS_VE_MTurk/MX_fS_HTML.html#151,151,1366,641,1366,768,0-31-2024,16-11-48,9,VR_target_stimuli/s25_1x_1.4_290.png,250,1x,1.4,5,5202,249,meters,jsons/MX_seq41_0_VE250_flipped.json,189631,835054,28,Woman
9,661474,final-intermixed-textured,v2,jsons/MX_seq41_0_VE250_flipped.json,http://54.235.29.9/FacialAge/BNav_EC2/DepthDuration/MX_fS_VE_MTurk/MX_fS_HTML.html#151,151,1366,641,1366,768,0-31-2024,16-11-48,10,VR_target_stimuli/s50_0.75x_4.53_517.png,250,0.75x,4.53,8,3555,262,meters,jsons/MX_seq41_0_VE250_flipped.json,189631,835054,28,Woman
10,661474,final-intermixed-textured,v2,jsons/MX_seq41_0_VE250_flipped.json,http://54.235.29.9/FacialAge/BNav_EC2/DepthDuration/MX_fS_VE_MTurk/MX_fS_HTML.html#151,151,1366,641,1366,768,0-31-2024,16-11-48,11,VR_target_stimuli/s53_1x_1.6_387_BC.png,250,1x,1.6,2,2710,246,meters,jsons/MX_seq41_0_VE250_flipped.json,189631,835054,28,Woman
11,661474,final-intermixed-textured,v2,jsons/MX_seq41_0_VE250_flipped.json,http://54.235.29.9/FacialAge/BNav_EC2/DepthDuration/MX_fS_VE_MTurk/MX_fS_HTML.html#151,151,1366,641,1366,768,0-31-2024,16-11-48,12,VR_target_stimuli/s38_1.3x_3.55_358_BC.png,250,1.3x,3.55,5,2645,246,meters,jsons/MX_seq41_0_VE250_flipped.json,189631,835054,28,Woman
12,661474,final-intermixed-textured,v2,jsons/MX_seq41_0_VE250_flipped.json,http://54.235.29.9/FacialAge/BNav_EC2/DepthDuration/MX_fS_VE_MTurk/MX_fS_HTML.html#151,151,1366,641,1366,768,0-31-2024,16-11-48,13,VR_target_stimuli/s9_0.75x_1.2_260_BC.png,250,0.75x,1.2,3,2447,248,meters,jsons/MX_seq41_0_VE250_flipped.json,189631,835054,28,Woman
13,661474,final-intermixed-textured,v2,jsons/MX_seq41_0_VE250_flipped.json,http://54.235.29.9/FacialAge/BNav_EC2/DepthDuration/MX_fS_VE_MTurk/MX_fS_HTML.html#151,151,1366,641,1366,768,0-31-2024,16-11-48,14,VR_target_stimuli/s44_1.3x_4.4_325_BC.png,250,1.3x,4.4,6,2626,263,meters,jsons/MX_seq41_0_VE250_flipped.json,189631,835054,28,Woman
14,661474,final-intermixed-textured,v2,jsons/MX_seq41_0_VE250_flipped.json,http://54.235.29.9/FacialAge/BNav_EC2/DepthDuration/MX_fS_VE_MTurk/MX_fS_HTML.html#151,151,1366,641,1366,768,0-31-2024,16-11-48,15,VR_target_stimuli/s3_1x_5_385_BC.png,250,1x,5.0,9,3109,248,meters,jsons/MX_seq41_0_VE250_flipped.json,189631,835054,28,Woman
15,661474,final-intermixed-textured,v2,jsons/MX_seq41_0_VE250_flipped.json,http://54.235.29.9/FacialAge/BNav_EC2/DepthDuration/MX_fS_VE_MTurk/MX_fS_HTML.html#151,151,1366,641,1366,768,0-31-2024,16-11-48,16,VR_target_stimuli/s1_0.75x_1.7_265.png,250,0.75x,1.7,7,2972,246,meters,jsons/MX_seq41_0_VE250_flipped.json,189631,835054,28,Woman
16,661474,final-intermixed-textured,v2,jsons/MX_seq41_0_VE250_flipped.json,http://54.235.29.9/FacialAge/BNav_EC2/DepthDuration/MX_fS_VE_MTurk/MX_fS_HTML.html#151,151,1366,641,1366,768,0-31-2024,16-11-48,17,catch_stimuli/c1_BC.png,250,,,0,2148,247,meters,jsons/MX_seq41_0_VE250_flipped.json,189631,835054,28,Woman
17,661474,final-intermixed-textured,v2,jsons/MX_seq41_0_VE250_flipped.json,http://54.235.29.9/FacialAge/BNav_EC2/DepthDuration/MX_fS_VE_MTurk/MX_fS_HTML.html#151,151,1366,641,1366,768,0-31-2024,16-11-48,18,VR_target_stimuli/s11_0.75x_5_359_BC.png,250,0.75x,5.0,11,2827,246,meters,jsons/MX_seq41_0_VE250_flipped.json,189631,835054,28,Woman
18,661474,final-intermixed-textured,v2,jsons/MX_seq41_0_VE250_flipped.json,http://54.235.29.9/FacialAge/BNav_EC2/DepthDuration/MX_fS_VE_MTurk/MX_fS_HTML.html#151,151,1366,641,1366,768,0-31-2024,16-11-48,19,VR_target_stimuli/s2_1.3x_2.7_397.png,250,1.3x,2.7,8,3112,246,meters,jsons/MX_seq41_0_VE250_flipped.json,189631,835054,28,Woman
19,661474,final-intermixed-textured,v2,jsons/MX_seq41_0_VE250_flipped.json,http://54.235.29.9/FacialAge/BNav_EC2/DepthDuration/MX_fS_VE_MTurk/MX_fS_HTML.html#151,151,1366,641,1366,768,0-31-2024,16-11-48,20,VR_target_stimuli/s6_1x_2.1_293.png,250,1x,2.1,8,2427,246,meters,jsons/MX_seq41_0_VE250_flipped.json,189631,835054,28,Woman
20,661474,final-intermixed-textured,v2,jsons/MX_seq41_0_VE250_flipped.json,http://54.235.29.9/FacialAge/BNav_EC2/DepthDuration/MX_fS_VE_MTurk/MX_fS_HTML.html#151,151,1366,641,1366,768,0-31-2024,16-11-48,21,VR_target_stimuli/s0_1.3x_2.6_356.png,250,1.3x,2.6,8,2180,262,meters,jsons/MX_seq41_0_VE250_flipped.json,189631,835054,28,Woman
21,661474,final-intermixed-textured,v2,jsons/MX_seq41_0_VE250_flipped.json,http://54.235.29.9/FacialAge/BNav_EC2/DepthDuration/MX_fS_VE_MTurk/MX_fS_HTML.html#151,151,1366,641,1366,768,0-31-2024,16-11-48,22,VR_target_stimuli/s34_0.75x_2.8_269.png,250,0.75x,2.8,9,2273,248,meters,jsons/MX_seq41_0_VE250_flipped.json,189631,835054,28,Woman
22,661474,final-intermixed-textured,v2,jsons/MX_seq41_0_VE250_flipped.json,http://54.235.29.9/FacialAge/BNav_EC2/DepthDuration/MX_fS_VE_MTurk/MX_fS_HTML.html#151,151,1366,641,1366,768,0-31-2024,16-11-48,23,VR_target_stimuli/s13_1x_2.4_310_BC.png,250,1x,2.4,8,2031,247,meters,jsons/MX_seq41_0_VE250_flipped.json,189631,835054,28,Woman
23,661474,final-intermixed-textured,v2,jsons/MX_seq41_0_VE250_flipped.json,http://54.235.29.9/FacialAge/BNav_EC2/DepthDuration/MX_fS_VE_MTurk/MX_fS_HTML.html#151,151,1366,641,1366,768,0-31-2024,16-11-48,24,VR_target_stimuli/s14_0.75x_3.83_355_BC.png,250,0.75x,3.83,11,2320,244,meters,jsons/MX_seq41_0_VE250_flipped.json,189631,835054,28,Woman
24,661474,final-intermixed-textured,v2,jsons/MX_seq41_0_VE250_flipped.json,http://54.235.29.9/FacialAge/BNav_EC2/DepthDuration/MX_fS_VE_MTurk/MX_fS_HTML.html#151,151,1366,641,1366,768,0-31-2024,16-11-48,25,VR_target_stimuli/s47_1.3x_3.45_373_BC.png,250,1.3x,3.45,7,2334,248,meters,jsons/MX_seq41_0_VE250_flipped.json,189631,835054,28,Woman
25,661474,final-intermixed-textured,v2,jsons/MX_seq41_0_VE250_flipped.json,http://54.235.29.9/FacialAge/BNav_EC2/DepthDuration/MX_fS_VE_MTurk/MX_fS_HTML.html#151,151,1366,641,1366,768,0-31-2024,16-11-48,26,catch_stimuli/c2_BC.png,250,,,0,2034,261,meters,jsons/MX_seq41_0_VE250_flipped.json,189631,835054,28,Woman
26,661474,final-intermixed-textured,v2,jsons/MX_seq41_0_VE250_flipped.json,http://54.235.29.9/FacialAge/BNav_EC2/DepthDuration/MX_fS_VE_MTurk/MX_fS_HTML.html#151,151,1366,641,1366,768,0-31-2024,16-11-48,27,VR_target_stimuli/s29_1x_1.3_250.png,250,1x,1.3,5,2203,261,meters,jsons/MX_seq41_0_VE250_flipped.json,189631,835054,28,Woman
27,661474,final-intermixed-textured,v2,jsons/MX_seq41_0_VE250_flipped.json,http://54.235.29.9/FacialAge/BNav_EC2/DepthDuration/MX_fS_VE_MTurk/MX_fS_HTML.html#151,151,1366,641,1366,768,0-31-2024,16-11-48,28,VR_target_stimuli/s28_1x_3.2_362.png,250,1x,3.2,7,2304,247,meters,jsons/MX_seq41_0_VE250_flipped.json,189631,835054,28,Woman
28,661474,final-intermixed-textured,v2,jsons/MX_seq41_0_VE250_flipped.json,http://54.235.29.9/FacialAge/BNav_EC2/DepthDuration/MX_fS_VE_MTurk/MX_fS_HTML.html#151,151,1366,641,1366,768,0-31-2024,16-11-48,29,VR_target_stimuli/s48_0.75x_2.55_243_BC.png,250,0.75x,2.55,7,2038,246,meters,jsons/MX_seq41_0_VE250_flipped.json,189631,835054,28,Woman
29,661474,final-intermixed-textured,v2,jsons/MX_seq41_0_VE250_flipped.json,http://54.235.29.9/FacialAge/BNav_EC2/DepthDuration/MX_fS_VE_MTurk/MX_fS_HTML.html#151,151,1366,641,1366,768,0-31-2024,16-11-48,30,VR_target_stimuli/s19_1.3x_1.21_270.png,250,1.3x,1.21,5,2200,262,meters,jsons/MX_seq41_0_VE250_flipped.json,189631,835054,28,Woman
30,661474,final-intermixed-textured,v2,jsons/MX_seq41_0_VE250_flipped.json,http://54.235.29.9/FacialAge/BNav_EC2/DepthDuration/MX_fS_VE_MTurk/MX_fS_HTML.html#151,151,1366,641,1366,768,0-31-2024,16-11-48,31,VR_target_stimuli/s21_1x_4.22_379_BC.png,250,1x,4.22,7,2175,247,meters,jsons/MX_seq41_0_VE250_flipped.json,189631,835054,28,Woman
31,661474,final-intermixed-textured,v2,jsons/MX_seq41_0_VE250_flipped.json,http://54.235.29.9/FacialAge/BNav_EC2/DepthDuration/MX_fS_VE_MTurk/MX_fS_HTML.html#151,151,1366,641,1366,768,0-31-2024,16-11-48,32,VR_target_stimuli/s8_1.3x_3.1_345_BC.png,250,1.3x,3.1,5,2029,248,meters,jsons/MX_seq41_0_VE250_flipped.json,189631,835054,28,Woman
32,661474,final-intermixed-textured,v2,jsons/MX_seq41_0_VE250_flipped.json,http://54.235.29.9/FacialAge/BNav_EC2/DepthDuration/MX_fS_VE_MTurk/MX_fS_HTML.html#151,151,1366,641,1366,768,0-31-2024,16-11-48,33,VR_target_stimuli/s27_0.75x_1.76_243.png,250,0.75x,1.76,7,1861,248,meters,jsons/MX_seq41_0_VE250_flipped.json,189631,835054,28,Woman
33,661474,final-intermixed-textured,v2,jsons/MX_seq41_0_VE250_flipped.json,http://54.235.29.9/FacialAge/BNav_EC2/DepthDuration/MX_fS_VE_MTurk/MX_fS_HTML.html#151,151,1366,641,1366,768,0-31-2024,16-11-48,34,catch_stimuli/c3_BC.png,250,,,0,1938,246,meters,jsons/MX_seq41_0_VE250_flipped.json,189631,835054,28,Woman
34,661474,final-intermixed-textured,v2,jsons/MX_seq41_0_VE250_flipped.json,http://54.235.29.9/FacialAge/BNav_EC2/DepthDuration/MX_fS_VE_MTurk/MX_fS_HTML.html#151,151,1366,641,1366,768,0-31-2024,16-11-48,35,VR_target_stimuli/s15_1.3x_4.2_389_BC.png,250,1.3x,4.2,11,2124,247,meters,jsons/MX_seq41_0_VE250_flipped.json,189631,835054,28,Woman
35,661474,final-intermixed-textured,v2,jsons/MX_seq41_0_VE250_flipped.json,http://54.235.29.9/FacialAge/BNav_EC2/DepthDuration/MX_fS_VE_MTurk/MX_fS_HTML.html#151,151,1366,641,1366,768,0-31-2024,16-11-48,36,VR_target_stimuli/s4_1x_1.4_313_BC.png,250,1x,1.4,7,3104,247,meters,jsons/MX_seq41_0_VE250_flipped.json,189631,835054,28,Woman
36,661474,final-intermixed-textured,v2,jsons/MX_seq41_0_VE250_flipped.json,http://54.235.29.9/FacialAge/BNav_EC2/DepthDuration/MX_fS_VE_MTurk/MX_fS_HTML.html#151,151,1366,641,1366,768,0-31-2024,16-11-48,37,VR_target_stimuli/s35_0.75x_2_323.png,250,0.75x,2.0,9,1956,246,meters,jsons/MX_seq41_0_VE250_flipped.json,189631,835054,28,Woman
37,661474,final-intermixed-textured,v2,jsons/MX_seq41_0_VE250_flipped.json,http://54.235.29.9/FacialAge/BNav_EC2/DepthDuration/MX_fS_VE_MTurk/MX_fS_HTML.html#151,151,1366,641,1366,768,0-31-2024,16-11-48,38,VR_target_stimuli/s49_0.75x_4.67_328_BC.png,250,0.75x,4.67,7,2361,261,meters,jsons/MX_seq41_0_VE250_flipped.json,189631,835054,28,Woman
38,661474,final-intermixed-textured,v2,jsons/MX_seq41_0_VE250_flipped.json,http://54.235.29.9/FacialAge/BNav_EC2/DepthDuration/MX_fS_VE_MTurk/MX_fS_HTML.html#151,151,1366,641,1366,768,0-31-2024,16-11-48,39,VR_target_stimuli/s7_1.3x_1.5_256.png,250,1.3x,1.5,5,2197,248,meters,jsons/MX_seq41_0_VE250_flipped.json,189631,835054,28,Woman
39,661474,final-intermixed-textured,v2,jsons/MX_seq41_0_VE250_flipped.json,http://54.235.29.9/FacialAge/BNav_EC2/DepthDuration/MX_fS_VE_MTurk/MX_fS_HTML.html#151,151,1366,641,1366,768,0-31-2024,16-11-48,40,VR_target_stimuli/s20_1x_4.99_398.png,250,1x,4.99,11,2250,262,meters,jsons/MX_seq41_0_VE250_flipped.json,189631,835054,28,Woman
40,661474,final-intermixed-textured,v2,jsons/MX_seq41_0_VE250_flipped.json,http://54.235.29.9/FacialAge/BNav_EC2/DepthDuration/MX_fS_VE_MTurk/MX_fS_HTML.html#151,151,1366,641,1366,768,0-31-2024,16-11-48,41,VR_target_stimuli/s31_1.3x_4.96_342_BC.png,250,1.3x,4.96,6,2043,246,meters,jsons/MX_seq41_0_VE250_flipped.json,189631,835054,28,Woman
41,661474,final-intermixed-textured,v2,jsons/MX_seq41_0_VE250_flipped.json,http://54.235.29.9/FacialAge/BNav_EC2/DepthDuration/MX_fS_VE_MTurk/MX_fS_HTML.html#151,151,1366,641,1366,768,0-31-2024,16-11-48,42,VR_target_stimuli/s33_0.75x_3.1_361_BC.png,250,0.75x,3.1,7,1906,245,meters,jsons/MX_seq41_0_VE250_flipped.json,189631,835054,28,Woman
42,661474,final-intermixed-textured,v2,jsons/MX_seq41_0_VE250_flipped.json,http://54.235.29.9/FacialAge/BNav_EC2/DepthDuration/MX_fS_VE_MTurk/MX_fS_HTML.html#151,151,1366,641,1366,768,0-31-2024,16-11-48,43,VR_target_stimuli/s52_1x_3.2_275.png,250,1x,3.2,7,2014,246,meters,jsons/MX_seq41_0_VE250_flipped.json,189631,835054,28,Woman
43,661474,final-intermixed-textured,v2,jsons/MX_seq41_0_VE250_flipped.json,http://54.235.29.9/FacialAge/BNav_EC2/DepthDuration/MX_fS_VE_MTurk/MX_fS_HTML.html#151,151,1366,641,1366,768,0-31-2024,16-11-48,44,VR_target_stimuli/s32_0.75x_1.5_213.png,250,0.75x,1.5,7,1725,247,meters,jsons/MX_seq41_0_VE250_flipped.json,189631,835054,28,Woman
44,661474,final-intermixed-textured,v2,jsons/MX_seq41_0_VE250_flipped.json,http://54.235.29.9/FacialAge/BNav_EC2/DepthDuration/MX_fS_VE_MTurk/MX_fS_HTML.html#151,151,1366,641,1366,768,0-31-2024,16-11-48,45,catch_stimuli/c4_BC.png,250,,,0,2271,247,meters,jsons/MX_seq41_0_VE250_flipped.json,189631,835054,28,Woman
45,661474,final-intermixed-textured,v2,jsons/MX_seq41_0_VE250_flipped.json,http://54.235.29.9/FacialAge/BNav_EC2/DepthDuration/MX_fS_VE_MTurk/MX_fS_HTML.html#151,151,1366,641,1366,768,0-31-2024,16-11-48,46,VR_target_stimuli/s18_1.3x_2.25_368.png,250,1.3x,2.25,5,2337,260,meters,jsons/MX_seq41_0_VE250_flipped.json,189631,835054,28,Woman
46,661474,final-intermixed-textured,v2,jsons/MX_seq41_0_VE250_flipped.json,http://54.235.29.9/FacialAge/BNav_EC2/DepthDuration/MX_fS_VE_MTurk/MX_fS_HTML.html#151,151,1366,641,1366,768,0-31-2024,16-11-48,47,VR_target_stimuli/s39_1x_1_207_BC.png,250,1x,1.0,3,2313,249,meters,jsons/MX_seq41_0_VE250_flipped.json,189631,835054,28,Woman
47,661474,final-intermixed-textured,v2,jsons/MX_seq41_0_VE250_flipped.json,http://54.235.29.9/FacialAge/BNav_EC2/DepthDuration/MX_fS_VE_MTurk/MX_fS_HTML.html#151,151,1366,641,1366,768,0-31-2024,16-11-48,48,VR_target_stimuli/s51_1x_3.64_461_BC.png,250,1x,3.64,5,2107,247,meters,jsons/MX_seq41_0_VE250_flipped.json,189631,835054,28,Woman
48,661474,final-intermixed-textured,v2,jsons/MX_seq41_0_VE250_flipped.json,http://54.235.29.9/FacialAge/BNav_EC2/DepthDuration/MX_fS_VE_MTurk/MX_fS_HTML.html#151,151,1366,641,1366,768,0-31-2024,16-11-48,49,VR_target_stimuli/s43_0.75x_2.2_348.png,250,0.75x,2.2,7,2082,248,meters,jsons/MX_seq41_0_VE250_flipped.json,189631,835054,28,Woman
49,661474,final-intermixed-textured,v2,jsons/MX_seq41_0_VE250_flipped.json,http://54.235.29.9/FacialAge/BNav_EC2/DepthDuration/MX_fS_VE_MTurk/MX_fS_HTML.html#151,151,1366,641,1366,768,0-31-2024,16-11-48,50,VR_target_stimuli/s24_1.3x_3.3_352_BC.png,250,1.3x,3.3,8,2230,248,meters,jsons/MX_seq41_0_VE250_flipped.json,189631,835054,28,Woman
50,661474,final-intermixed-textured,v2,jsons/MX_seq41_0_VE250_flipped.json,http://54.235.29.9/FacialAge/BNav_EC2/DepthDuration/MX_fS_VE_MTurk/MX_fS_HTML.html#151,151,1366,641,1366,768,0-31-2024,16-11-48,51,VR_target_stimuli/s10_0.75x_2.7_321_BC.png,250,0.75x,2.7,8,1982,245,meters,jsons/MX_seq41_0_VE250_flipped.json,189631,835054,28,Woman
51,661474,final-intermixed-textured,v2,jsons/MX_seq41_0_VE250_flipped.json,http://54.235.29.9/FacialAge/BNav_EC2/DepthDuration/MX_fS_VE_MTurk/MX_fS_HTML.html#151,151,1366,641,1366,768,0-31-2024,16-11-48,52,VR_target_stimuli/s36_1x_4.1_423.png,250,1x,4.1,8,1778,247,meters,jsons/MX_seq41_0_VE250_flipped.json,189631,835054,28,Woman
52,661474,final-intermixed-textured,v2,jsons/MX_seq41_0_VE250_flipped.json,http://54.235.29.9/FacialAge/BNav_EC2/DepthDuration/MX_fS_VE_MTurk/MX_fS_HTML.html#151,151,1366,641,1366,768,0-31-2024,16-11-48,53,catch_stimuli/c5_BC.png,250,,,0,2109,245,meters,jsons/MX_seq41_0_VE250_flipped.json,189631,835054,28,Woman
53,661474,final-intermixed-textured,v2,jsons/MX_seq41_0_VE250_flipped.json,http://54.235.29.9/FacialAge/BNav_EC2/DepthDuration/MX_fS_VE_MTurk/MX_fS_HTML.html#151,151,1366,641,1366,768,0-31-2024,16-11-48,54,VR_target_stimuli/s40_1.3x_1.2_332.png,250,1.3x,1.2,3,2391,246,meters,jsons/MX_seq41_0_VE250_flipped.json,189631,835054,28,Woman
54,661474,final-intermixed-textured,v2,jsons/MX_seq41_0_VE250_flipped.json,http://54.235.29.9/FacialAge/BNav_EC2/DepthDuration/MX_fS_VE_MTurk/MX_fS_HTML.html#151,151,1366,641,1366,768,0-31-2024,16-11-48,55,VR_target_stimuli/s41_1x_2.1_286_BC.png,250,1x,2.1,5,2545,245,meters,jsons/MX_seq41_0_VE250_flipped.json,189631,835054,28,Woman
55,661474,final-intermixed-textured,v2,jsons/MX_seq41_0_VE250_flipped.json,http://54.235.29.9/FacialAge/BNav_EC2/DepthDuration/MX_fS_VE_MTurk/MX_fS_HTML.html#151,151,1366,641,1366,768,0-31-2024,16-11-48,56,VR_target_stimuli/s45_0.75x_3.5_362.png,250,0.75x,3.5,7,2259,262,meters,jsons/MX_seq41_0_VE250_flipped.json,189631,835054,28,Woman
56,661474,final-intermixed-textured,v2,jsons/MX_seq41_0_VE250_flipped.json,http://54.235.29.9/FacialAge/BNav_EC2/DepthDuration/MX_fS_VE_MTurk/MX_fS_HTML.html#151,151,1366,641,1366,768,0-31-2024,16-11-48,57,VR_target_stimuli/s23_1.3x_3.65_354.png,250,1.3x,3.65,8,2120,247,meters,jsons/MX_seq41_0_VE250_flipped.json,189631,835054,28,Woman
57,661474,final-intermixed-textured,v2,jsons/MX_seq41_0_VE250_flipped.json,http://54.235.29.9/FacialAge/BNav_EC2/DepthDuration/MX_fS_VE_MTurk/MX_fS_HTML.html#151,151,1366,641,1366,768,0-31-2024,16-11-48,58,VR_target_stimuli/s26_1.3x_4_441_BC.png,250,1.3x,4.0,9,2309,248,meters,jsons/MX_seq41_0_VE250_flipped.json,189631,835054,28,Woman
58,661474,final-intermixed-textured,v2,jsons/MX_seq41_0_VE250_flipped.json,http://54.235.29.9/FacialAge/BNav_EC2/DepthDuration/MX_fS_VE_MTurk/MX_fS_HTML.html#151,151,1366,641,1366,768,0-31-2024,16-11-48,59,VR_target_stimuli/s12_1x_3.1_372.png,250,1x,3.1,9,1889,248,meters,jsons/MX_seq41_0_VE250_flipped.json,189631,835054,28,Woman
59,661474,final-intermixed-textured,v2,jsons/MX_seq41_0_VE250_flipped.json,http://54.235.29.9/FacialAge/BNav_EC2/DepthDuration/MX_fS_VE_MTurk/MX_fS_HTML.html#151,151,1366,641,1366,768,0-31-2024,16-11-48,60,VR_target_stimuli/s30_0.75x_2.3_332_BC.png,250,0.75x,2.3,9,1739,247,meters,jsons/MX_seq41_0_VE250_flipped.json,189631,835054,28,Woman
