,subjID,experimentName,versionName,sequenceName,url,selected_row,windowWidth,windowHeight,screenWidth,screenHeight,startDate,startTime,trial,stimulus,duration,scale,actual_depth,depth_estimate,trial_RT,log_sceneDuration,unitSelection,seq_filepath,experimentTime,totalTime,age,gender
0,687113,final-intermixed-textured,v2,jsons/MX_seq19_1_VE250_flipped.json,http://54.235.29.9/FacialAge/BNav_EC2/DepthDuration/MX_fS_VE_MTurk/MX_fS_HTML.html#303,303,1536,730,1536,864,0-31-2024,20-12-8,1,VR_target_stimuli/s35_1.3x_2_338.png,250,1.3x,2.0,0.6,5679,251,meters,jsons/MX_seq19_1_VE250_flipped.json,515630,967412,30,Man
1,687113,final-intermixed-textured,v2,jsons/MX_seq19_1_VE250_flipped.json,http://54.235.29.9/FacialAge/BNav_EC2/DepthDuration/MX_fS_VE_MTurk/MX_fS_HTML.html#303,303,1536,730,1536,864,0-31-2024,20-12-8,2,VR_target_stimuli/s49_0.75x_4.67_328_BC.png,250,0.75x,4.67,0.2,7137,254,meters,jsons/MX_seq19_1_VE250_flipped.json,515630,967412,30,Man
2,687113,final-intermixed-textured,v2,jsons/MX_seq19_1_VE250_flipped.json,http://54.235.29.9/FacialAge/BNav_EC2/DepthDuration/MX_fS_VE_MTurk/MX_fS_HTML.html#303,303,1536,730,1536,864,0-31-2024,20-12-8,3,VR_target_stimuli/s7_1x_1.5_255.png,250,1x,1.5,0.4,5556,250,meters,jsons/MX_seq19_1_VE250_flipped.json,515630,967412,30,Man
3,687113,final-intermixed-textured,v2,jsons/MX_seq19_1_VE250_flipped.json,http://54.235.29.9/FacialAge/BNav_EC2/DepthDuration/MX_fS_VE_MTurk/MX_fS_HTML.html#303,303,1536,730,1536,864,0-31-2024,20-12-8,4,VR_target_stimuli/s20_0.75x_4.99_390.png,250,0.75x,4.99,0.4,5939,252,meters,jsons/MX_seq19_1_VE250_flipped.json,515630,967412,30,Man
4,687113,final-intermixed-textured,v2,jsons/MX_seq19_1_VE250_flipped.json,http://54.235.29.9/FacialAge/BNav_EC2/DepthDuration/MX_fS_VE_MTurk/MX_fS_HTML.html#303,303,1536,730,1536,864,0-31-2024,20-12-8,5,VR_target_stimuli/s31_1.3x_4.96_342_BC.png,250,1.3x,4.96,0.2,5415,246,meters,jsons/MX_seq19_1_VE250_flipped.json,515630,967412,30,Man
5,687113,final-intermixed-textured,v2,jsons/MX_seq19_1_VE250_flipped.json,http://54.235.29.9/FacialAge/BNav_EC2/DepthDuration/MX_fS_VE_MTurk/MX_fS_HTML.html#303,303,1536,730,1536,864,0-31-2024,20-12-8,6,VR_target_stimuli/s33_1x_3.1_366_BC.png,250,1x,3.1,0.5,7061,253,meters,jsons/MX_seq19_1_VE250_flipped.json,515630,967412,30,Man
6,687113,final-intermixed-textured,v2,jsons/MX_seq19_1_VE250_flipped.json,http://54.235.29.9/FacialAge/BNav_EC2/DepthDuration/MX_fS_VE_MTurk/MX_fS_HTML.html#303,303,1536,730,1536,864,0-31-2024,20-12-8,7,catch_stimuli/c0_BC.png,250,,,0.0,4952,247,meters,jsons/MX_seq19_1_VE250_flipped.json,515630,967412,30,Man
7,687113,final-intermixed-textured,v2,jsons/MX_seq19_1_VE250_flipped.json,http://54.235.29.9/FacialAge/BNav_EC2/DepthDuration/MX_fS_VE_MTurk/MX_fS_HTML.html#303,303,1536,730,1536,864,0-31-2024,20-12-8,8,VR_target_stimuli/s52_1x_3.2_275_BC.png,250,1x,3.2,0.15,6159,257,meters,jsons/MX_seq19_1_VE250_flipped.json,515630,967412,30,Man
8,687113,final-intermixed-textured,v2,jsons/MX_seq19_1_VE250_flipped.json,http://54.235.29.9/FacialAge/BNav_EC2/DepthDuration/MX_fS_VE_MTurk/MX_fS_HTML.html#303,303,1536,730,1536,864,0-31-2024,20-12-8,9,VR_target_stimuli/s32_0.75x_1.5_213.png,250,0.75x,1.5,0.01,11686,250,meters,jsons/MX_seq19_1_VE250_flipped.json,515630,967412,30,Man
9,687113,final-intermixed-textured,v2,jsons/MX_seq19_1_VE250_flipped.json,http://54.235.29.9/FacialAge/BNav_EC2/DepthDuration/MX_fS_VE_MTurk/MX_fS_HTML.html#303,303,1536,730,1536,864,0-31-2024,20-12-8,10,VR_target_stimuli/s18_1.3x_2.25_368.png,250,1.3x,2.25,0.5,11631,248,meters,jsons/MX_seq19_1_VE250_flipped.json,515630,967412,30,Man
10,687113,final-intermixed-textured,v2,jsons/MX_seq19_1_VE250_flipped.json,http://54.235.29.9/FacialAge/BNav_EC2/DepthDuration/MX_fS_VE_MTurk/MX_fS_HTML.html#303,303,1536,730,1536,864,0-31-2024,20-12-8,11,VR_target_stimuli/s39_0.75x_1_205_BC.png,250,0.75x,1.0,0.5,6104,248,meters,jsons/MX_seq19_1_VE250_flipped.json,515630,967412,30,Man
11,687113,final-intermixed-textured,v2,jsons/MX_seq19_1_VE250_flipped.json,http://54.235.29.9/FacialAge/BNav_EC2/DepthDuration/MX_fS_VE_MTurk/MX_fS_HTML.html#303,303,1536,730,1536,864,0-31-2024,20-12-8,12,VR_target_stimuli/s51_1x_3.64_461.png,250,1x,3.64,0.65,6203,248,meters,jsons/MX_seq19_1_VE250_flipped.json,515630,967412,30,Man
12,687113,final-intermixed-textured,v2,jsons/MX_seq19_1_VE250_flipped.json,http://54.235.29.9/FacialAge/BNav_EC2/DepthDuration/MX_fS_VE_MTurk/MX_fS_HTML.html#303,303,1536,730,1536,864,0-31-2024,20-12-8,13,VR_target_stimuli/s43_1.3x_2.2_363_BC.png,250,1.3x,2.2,0.7,5421,250,meters,jsons/MX_seq19_1_VE250_flipped.json,515630,967412,30,Man
13,687113,final-intermixed-textured,v2,jsons/MX_seq19_1_VE250_flipped.json,http://54.235.29.9/FacialAge/BNav_EC2/DepthDuration/MX_fS_VE_MTurk/MX_fS_HTML.html#303,303,1536,730,1536,864,0-31-2024,20-12-8,14,VR_target_stimuli/s24_1x_3.3_349.png,250,1x,3.3,0.4,6339,252,meters,jsons/MX_seq19_1_VE250_flipped.json,515630,967412,30,Man
14,687113,final-intermixed-textured,v2,jsons/MX_seq19_1_VE250_flipped.json,http://54.235.29.9/FacialAge/BNav_EC2/DepthDuration/MX_fS_VE_MTurk/MX_fS_HTML.html#303,303,1536,730,1536,864,0-31-2024,20-12-8,15,VR_target_stimuli/s10_0.75x_2.7_321.png,250,0.75x,2.7,0.4,7936,249,meters,jsons/MX_seq19_1_VE250_flipped.json,515630,967412,30,Man
15,687113,final-intermixed-textured,v2,jsons/MX_seq19_1_VE250_flipped.json,http://54.235.29.9/FacialAge/BNav_EC2/DepthDuration/MX_fS_VE_MTurk/MX_fS_HTML.html#303,303,1536,730,1536,864,0-31-2024,20-12-8,16,VR_target_stimuli/s36_1.3x_4.1_442_BC.png,250,1.3x,4.1,0.6,44769,253,meters,jsons/MX_seq19_1_VE250_flipped.json,515630,967412,30,Man
16,687113,final-intermixed-textured,v2,jsons/MX_seq19_1_VE250_flipped.json,http://54.235.29.9/FacialAge/BNav_EC2/DepthDuration/MX_fS_VE_MTurk/MX_fS_HTML.html#303,303,1536,730,1536,864,0-31-2024,20-12-8,17,catch_stimuli/c1_BC.png,250,,,0.0,4809,247,meters,jsons/MX_seq19_1_VE250_flipped.json,515630,967412,30,Man
17,687113,final-intermixed-textured,v2,jsons/MX_seq19_1_VE250_flipped.json,http://54.235.29.9/FacialAge/BNav_EC2/DepthDuration/MX_fS_VE_MTurk/MX_fS_HTML.html#303,303,1536,730,1536,864,0-31-2024,20-12-8,18,VR_target_stimuli/s40_1.3x_1.2_332.png,250,1.3x,1.2,0.65,4987,252,meters,jsons/MX_seq19_1_VE250_flipped.json,515630,967412,30,Man
18,687113,final-intermixed-textured,v2,jsons/MX_seq19_1_VE250_flipped.json,http://54.235.29.9/FacialAge/BNav_EC2/DepthDuration/MX_fS_VE_MTurk/MX_fS_HTML.html#303,303,1536,730,1536,864,0-31-2024,20-12-8,19,VR_target_stimuli/s41_1x_2.1_286_BC.png,250,1x,2.1,0.35,4871,248,meters,jsons/MX_seq19_1_VE250_flipped.json,515630,967412,30,Man
19,687113,final-intermixed-textured,v2,jsons/MX_seq19_1_VE250_flipped.json,http://54.235.29.9/FacialAge/BNav_EC2/DepthDuration/MX_fS_VE_MTurk/MX_fS_HTML.html#303,303,1536,730,1536,864,0-31-2024,20-12-8,20,VR_target_stimuli/s45_0.75x_3.5_362_BC.png,250,0.75x,3.5,0.5,4942,242,meters,jsons/MX_seq19_1_VE250_flipped.json,515630,967412,30,Man
20,687113,final-intermixed-textured,v2,jsons/MX_seq19_1_VE250_flipped.json,http://54.235.29.9/FacialAge/BNav_EC2/DepthDuration/MX_fS_VE_MTurk/MX_fS_HTML.html#303,303,1536,730,1536,864,0-31-2024,20-12-8,21,VR_target_stimuli/s23_1x_3.65_353.png,250,1x,3.65,0.55,10454,251,meters,jsons/MX_seq19_1_VE250_flipped.json,515630,967412,30,Man
21,687113,final-intermixed-textured,v2,jsons/MX_seq19_1_VE250_flipped.json,http://54.235.29.9/FacialAge/BNav_EC2/DepthDuration/MX_fS_VE_MTurk/MX_fS_HTML.html#303,303,1536,730,1536,864,0-31-2024,20-12-8,22,VR_target_stimuli/s26_1.3x_4_441_BC.png,250,1.3x,4.0,0.0,6521,249,meters,jsons/MX_seq19_1_VE250_flipped.json,515630,967412,30,Man
22,687113,final-intermixed-textured,v2,jsons/MX_seq19_1_VE250_flipped.json,http://54.235.29.9/FacialAge/BNav_EC2/DepthDuration/MX_fS_VE_MTurk/MX_fS_HTML.html#303,303,1536,730,1536,864,0-31-2024,20-12-8,23,VR_target_stimuli/s12_0.75x_3.1_364_BC.png,250,0.75x,3.1,0.6,6170,249,meters,jsons/MX_seq19_1_VE250_flipped.json,515630,967412,30,Man
23,687113,final-intermixed-textured,v2,jsons/MX_seq19_1_VE250_flipped.json,http://54.235.29.9/FacialAge/BNav_EC2/DepthDuration/MX_fS_VE_MTurk/MX_fS_HTML.html#303,303,1536,730,1536,864,0-31-2024,20-12-8,24,VR_target_stimuli/s30_1.3x_2.3_337.png,250,1.3x,2.3,0.65,13200,248,meters,jsons/MX_seq19_1_VE250_flipped.json,515630,967412,30,Man
24,687113,final-intermixed-textured,v2,jsons/MX_seq19_1_VE250_flipped.json,http://54.235.29.9/FacialAge/BNav_EC2/DepthDuration/MX_fS_VE_MTurk/MX_fS_HTML.html#303,303,1536,730,1536,864,0-31-2024,20-12-8,25,VR_target_stimuli/s16_1x_1_219_BC.png,250,1x,1.0,0.45,7139,253,meters,jsons/MX_seq19_1_VE250_flipped.json,515630,967412,30,Man
25,687113,final-intermixed-textured,v2,jsons/MX_seq19_1_VE250_flipped.json,http://54.235.29.9/FacialAge/BNav_EC2/DepthDuration/MX_fS_VE_MTurk/MX_fS_HTML.html#303,303,1536,730,1536,864,0-31-2024,20-12-8,26,catch_stimuli/c2_BC.png,250,,,0.0,5653,248,meters,jsons/MX_seq19_1_VE250_flipped.json,515630,967412,30,Man
26,687113,final-intermixed-textured,v2,jsons/MX_seq19_1_VE250_flipped.json,http://54.235.29.9/FacialAge/BNav_EC2/DepthDuration/MX_fS_VE_MTurk/MX_fS_HTML.html#303,303,1536,730,1536,864,0-31-2024,20-12-8,27,VR_target_stimuli/s17_0.75x_1.8_285.png,250,0.75x,1.8,0.45,5904,250,meters,jsons/MX_seq19_1_VE250_flipped.json,515630,967412,30,Man
27,687113,final-intermixed-textured,v2,jsons/MX_seq19_1_VE250_flipped.json,http://54.235.29.9/FacialAge/BNav_EC2/DepthDuration/MX_fS_VE_MTurk/MX_fS_HTML.html#303,303,1536,730,1536,864,0-31-2024,20-12-8,28,VR_target_stimuli/s5_0.75x_4_375_BC.png,250,0.75x,4.0,0.5,7116,249,meters,jsons/MX_seq19_1_VE250_flipped.json,515630,967412,30,Man
28,687113,final-intermixed-textured,v2,jsons/MX_seq19_1_VE250_flipped.json,http://54.235.29.9/FacialAge/BNav_EC2/DepthDuration/MX_fS_VE_MTurk/MX_fS_HTML.html#303,303,1536,730,1536,864,0-31-2024,20-12-8,29,VR_target_stimuli/s37_1.3x_3.3_555_BC.png,250,1.3x,3.3,1.1,8041,238,meters,jsons/MX_seq19_1_VE250_flipped.json,515630,967412,30,Man
29,687113,final-intermixed-textured,v2,jsons/MX_seq19_1_VE250_flipped.json,http://54.235.29.9/FacialAge/BNav_EC2/DepthDuration/MX_fS_VE_MTurk/MX_fS_HTML.html#303,303,1536,730,1536,864,0-31-2024,20-12-8,30,VR_target_stimuli/s46_1x_2.42_348.png,250,1x,2.42,0.6,6828,257,meters,jsons/MX_seq19_1_VE250_flipped.json,515630,967412,30,Man
30,687113,final-intermixed-textured,v2,jsons/MX_seq19_1_VE250_flipped.json,http://54.235.29.9/FacialAge/BNav_EC2/DepthDuration/MX_fS_VE_MTurk/MX_fS_HTML.html#303,303,1536,730,1536,864,0-31-2024,20-12-8,31,VR_target_stimuli/s22_0.75x_4.29_348.png,250,0.75x,4.29,0.45,8423,250,meters,jsons/MX_seq19_1_VE250_flipped.json,515630,967412,30,Man
31,687113,final-intermixed-textured,v2,jsons/MX_seq19_1_VE250_flipped.json,http://54.235.29.9/FacialAge/BNav_EC2/DepthDuration/MX_fS_VE_MTurk/MX_fS_HTML.html#303,303,1536,730,1536,864,0-31-2024,20-12-8,32,VR_target_stimuli/s42_1x_3.2_303_BC.png,250,1x,3.2,0.35,5388,246,meters,jsons/MX_seq19_1_VE250_flipped.json,515630,967412,30,Man
32,687113,final-intermixed-textured,v2,jsons/MX_seq19_1_VE250_flipped.json,http://54.235.29.9/FacialAge/BNav_EC2/DepthDuration/MX_fS_VE_MTurk/MX_fS_HTML.html#303,303,1536,730,1536,864,0-31-2024,20-12-8,33,VR_target_stimuli/s25_1.3x_1.4_299.png,250,1.3x,1.4,0.5,11328,253,meters,jsons/MX_seq19_1_VE250_flipped.json,515630,967412,30,Man
33,687113,final-intermixed-textured,v2,jsons/MX_seq19_1_VE250_flipped.json,http://54.235.29.9/FacialAge/BNav_EC2/DepthDuration/MX_fS_VE_MTurk/MX_fS_HTML.html#303,303,1536,730,1536,864,0-31-2024,20-12-8,34,catch_stimuli/c3_BC.png,250,,,0.0,3935,250,meters,jsons/MX_seq19_1_VE250_flipped.json,515630,967412,30,Man
34,687113,final-intermixed-textured,v2,jsons/MX_seq19_1_VE250_flipped.json,http://54.235.29.9/FacialAge/BNav_EC2/DepthDuration/MX_fS_VE_MTurk/MX_fS_HTML.html#303,303,1536,730,1536,864,0-31-2024,20-12-8,35,VR_target_stimuli/s50_1x_4.53_518.png,250,1x,4.53,1.2,4412,236,meters,jsons/MX_seq19_1_VE250_flipped.json,515630,967412,30,Man
35,687113,final-intermixed-textured,v2,jsons/MX_seq19_1_VE250_flipped.json,http://54.235.29.9/FacialAge/BNav_EC2/DepthDuration/MX_fS_VE_MTurk/MX_fS_HTML.html#303,303,1536,730,1536,864,0-31-2024,20-12-8,36,VR_target_stimuli/s53_0.75x_1.6_403_BC.png,250,0.75x,1.6,1.1,5018,252,meters,jsons/MX_seq19_1_VE250_flipped.json,515630,967412,30,Man
36,687113,final-intermixed-textured,v2,jsons/MX_seq19_1_VE250_flipped.json,http://54.235.29.9/FacialAge/BNav_EC2/DepthDuration/MX_fS_VE_MTurk/MX_fS_HTML.html#303,303,1536,730,1536,864,0-31-2024,20-12-8,37,VR_target_stimuli/s38_1.3x_3.55_358_BC.png,250,1.3x,3.55,0.6,9753,251,meters,jsons/MX_seq19_1_VE250_flipped.json,515630,967412,30,Man
37,687113,final-intermixed-textured,v2,jsons/MX_seq19_1_VE250_flipped.json,http://54.235.29.9/FacialAge/BNav_EC2/DepthDuration/MX_fS_VE_MTurk/MX_fS_HTML.html#303,303,1536,730,1536,864,0-31-2024,20-12-8,38,VR_target_stimuli/s9_1.3x_1.2_276.png,250,1.3x,1.2,0.6,6380,249,meters,jsons/MX_seq19_1_VE250_flipped.json,515630,967412,30,Man
38,687113,final-intermixed-textured,v2,jsons/MX_seq19_1_VE250_flipped.json,http://54.235.29.9/FacialAge/BNav_EC2/DepthDuration/MX_fS_VE_MTurk/MX_fS_HTML.html#303,303,1536,730,1536,864,0-31-2024,20-12-8,39,VR_target_stimuli/s44_1x_4.4_317_BC.png,250,1x,4.4,0.25,8896,252,meters,jsons/MX_seq19_1_VE250_flipped.json,515630,967412,30,Man
39,687113,final-intermixed-textured,v2,jsons/MX_seq19_1_VE250_flipped.json,http://54.235.29.9/FacialAge/BNav_EC2/DepthDuration/MX_fS_VE_MTurk/MX_fS_HTML.html#303,303,1536,730,1536,864,0-31-2024,20-12-8,40,VR_target_stimuli/s3_0.75x_5_381.png,250,0.75x,5.0,0.6,8196,246,meters,jsons/MX_seq19_1_VE250_flipped.json,515630,967412,30,Man
40,687113,final-intermixed-textured,v2,jsons/MX_seq19_1_VE250_flipped.json,http://54.235.29.9/FacialAge/BNav_EC2/DepthDuration/MX_fS_VE_MTurk/MX_fS_HTML.html#303,303,1536,730,1536,864,0-31-2024,20-12-8,41,VR_target_stimuli/s1_1x_1.7_262.png,250,1x,1.7,0.65,6710,235,meters,jsons/MX_seq19_1_VE250_flipped.json,515630,967412,30,Man
41,687113,final-intermixed-textured,v2,jsons/MX_seq19_1_VE250_flipped.json,http://54.235.29.9/FacialAge/BNav_EC2/DepthDuration/MX_fS_VE_MTurk/MX_fS_HTML.html#303,303,1536,730,1536,864,0-31-2024,20-12-8,42,VR_target_stimuli/s11_1.3x_5_363.png,250,1.3x,5.0,0.4,5348,251,meters,jsons/MX_seq19_1_VE250_flipped.json,515630,967412,30,Man
42,687113,final-intermixed-textured,v2,jsons/MX_seq19_1_VE250_flipped.json,http://54.235.29.9/FacialAge/BNav_EC2/DepthDuration/MX_fS_VE_MTurk/MX_fS_HTML.html#303,303,1536,730,1536,864,0-31-2024,20-12-8,43,VR_target_stimuli/s2_0.75x_2.7_384_BC.png,250,0.75x,2.7,0.6,5541,244,meters,jsons/MX_seq19_1_VE250_flipped.json,515630,967412,30,Man
43,687113,final-intermixed-textured,v2,jsons/MX_seq19_1_VE250_flipped.json,http://54.235.29.9/FacialAge/BNav_EC2/DepthDuration/MX_fS_VE_MTurk/MX_fS_HTML.html#303,303,1536,730,1536,864,0-31-2024,20-12-8,44,VR_target_stimuli/s6_1.3x_2.1_298_BC.png,250,1.3x,2.1,0.55,9014,249,meters,jsons/MX_seq19_1_VE250_flipped.json,515630,967412,30,Man
44,687113,final-intermixed-textured,v2,jsons/MX_seq19_1_VE250_flipped.json,http://54.235.29.9/FacialAge/BNav_EC2/DepthDuration/MX_fS_VE_MTurk/MX_fS_HTML.html#303,303,1536,730,1536,864,0-31-2024,20-12-8,45,catch_stimuli/c4_BC.png,250,,,0.0,2739,250,meters,jsons/MX_seq19_1_VE250_flipped.json,515630,967412,30,Man
45,687113,final-intermixed-textured,v2,jsons/MX_seq19_1_VE250_flipped.json,http://54.235.29.9/FacialAge/BNav_EC2/DepthDuration/MX_fS_VE_MTurk/MX_fS_HTML.html#303,303,1536,730,1536,864,0-31-2024,20-12-8,46,VR_target_stimuli/s0_1x_2.6_351_BC.png,250,1x,2.6,0.65,7267,249,meters,jsons/MX_seq19_1_VE250_flipped.json,515630,967412,30,Man
46,687113,final-intermixed-textured,v2,jsons/MX_seq19_1_VE250_flipped.json,http://54.235.29.9/FacialAge/BNav_EC2/DepthDuration/MX_fS_VE_MTurk/MX_fS_HTML.html#303,303,1536,730,1536,864,0-31-2024,20-12-8,47,VR_target_stimuli/s34_0.75x_2.8_269.png,250,0.75x,2.8,0.15,5567,254,meters,jsons/MX_seq19_1_VE250_flipped.json,515630,967412,30,Man
47,687113,final-intermixed-textured,v2,jsons/MX_seq19_1_VE250_flipped.json,http://54.235.29.9/FacialAge/BNav_EC2/DepthDuration/MX_fS_VE_MTurk/MX_fS_HTML.html#303,303,1536,730,1536,864,0-31-2024,20-12-8,48,VR_target_stimuli/s13_0.75x_2.4_308_BC.png,250,0.75x,2.4,0.5,66621,252,meters,jsons/MX_seq19_1_VE250_flipped.json,515630,967412,30,Man
48,687113,final-intermixed-textured,v2,jsons/MX_seq19_1_VE250_flipped.json,http://54.235.29.9/FacialAge/BNav_EC2/DepthDuration/MX_fS_VE_MTurk/MX_fS_HTML.html#303,303,1536,730,1536,864,0-31-2024,20-12-8,49,VR_target_stimuli/s14_1.3x_3.83_359.png,250,1.3x,3.83,0.65,4001,247,meters,jsons/MX_seq19_1_VE250_flipped.json,515630,967412,30,Man
49,687113,final-intermixed-textured,v2,jsons/MX_seq19_1_VE250_flipped.json,http://54.235.29.9/FacialAge/BNav_EC2/DepthDuration/MX_fS_VE_MTurk/MX_fS_HTML.html#303,303,1536,730,1536,864,0-31-2024,20-12-8,50,VR_target_stimuli/s47_1x_3.45_370_BC.png,250,1x,3.45,0.65,4523,237,meters,jsons/MX_seq19_1_VE250_flipped.json,515630,967412,30,Man
50,687113,final-intermixed-textured,v2,jsons/MX_seq19_1_VE250_flipped.json,http://54.235.29.9/FacialAge/BNav_EC2/DepthDuration/MX_fS_VE_MTurk/MX_fS_HTML.html#303,303,1536,730,1536,864,0-31-2024,20-12-8,51,VR_target_stimuli/s29_1.3x_1.3_253_BC.png,250,1.3x,1.3,0.5,4778,252,meters,jsons/MX_seq19_1_VE250_flipped.json,515630,967412,30,Man
51,687113,final-intermixed-textured,v2,jsons/MX_seq19_1_VE250_flipped.json,http://54.235.29.9/FacialAge/BNav_EC2/DepthDuration/MX_fS_VE_MTurk/MX_fS_HTML.html#303,303,1536,730,1536,864,0-31-2024,20-12-8,52,VR_target_stimuli/s28_0.75x_3.2_357.png,250,0.75x,3.2,0.5,7717,246,meters,jsons/MX_seq19_1_VE250_flipped.json,515630,967412,30,Man
52,687113,final-intermixed-textured,v2,jsons/MX_seq19_1_VE250_flipped.json,http://54.235.29.9/FacialAge/BNav_EC2/DepthDuration/MX_fS_VE_MTurk/MX_fS_HTML.html#303,303,1536,730,1536,864,0-31-2024,20-12-8,53,catch_stimuli/c5_BC.png,250,,,0.0,3485,249,meters,jsons/MX_seq19_1_VE250_flipped.json,515630,967412,30,Man
53,687113,final-intermixed-textured,v2,jsons/MX_seq19_1_VE250_flipped.json,http://54.235.29.9/FacialAge/BNav_EC2/DepthDuration/MX_fS_VE_MTurk/MX_fS_HTML.html#303,303,1536,730,1536,864,0-31-2024,20-12-8,54,VR_target_stimuli/s48_1x_2.55_256.png,250,1x,2.55,0.1,4306,249,meters,jsons/MX_seq19_1_VE250_flipped.json,515630,967412,30,Man
54,687113,final-intermixed-textured,v2,jsons/MX_seq19_1_VE250_flipped.json,http://54.235.29.9/FacialAge/BNav_EC2/DepthDuration/MX_fS_VE_MTurk/MX_fS_HTML.html#303,303,1536,730,1536,864,0-31-2024,20-12-8,55,VR_target_stimuli/s19_0.75x_1.21_257_BC.png,250,0.75x,1.21,0.6,3421,248,meters,jsons/MX_seq19_1_VE250_flipped.json,515630,967412,30,Man
55,687113,final-intermixed-textured,v2,jsons/MX_seq19_1_VE250_flipped.json,http://54.235.29.9/FacialAge/BNav_EC2/DepthDuration/MX_fS_VE_MTurk/MX_fS_HTML.html#303,303,1536,730,1536,864,0-31-2024,20-12-8,56,VR_target_stimuli/s21_1.3x_4.22_384_BC.png,250,1.3x,4.22,0.65,7016,247,meters,jsons/MX_seq19_1_VE250_flipped.json,515630,967412,30,Man
56,687113,final-intermixed-textured,v2,jsons/MX_seq19_1_VE250_flipped.json,http://54.235.29.9/FacialAge/BNav_EC2/DepthDuration/MX_fS_VE_MTurk/MX_fS_HTML.html#303,303,1536,730,1536,864,0-31-2024,20-12-8,57,VR_target_stimuli/s8_1x_3.1_332_BC.png,250,1x,3.1,0.45,4454,250,meters,jsons/MX_seq19_1_VE250_flipped.json,515630,967412,30,Man
57,687113,final-intermixed-textured,v2,jsons/MX_seq19_1_VE250_flipped.json,http://54.235.29.9/FacialAge/BNav_EC2/DepthDuration/MX_fS_VE_MTurk/MX_fS_HTML.html#303,303,1536,730,1536,864,0-31-2024,20-12-8,58,VR_target_stimuli/s27_1x_1.76_248.png,250,1x,1.76,0.4,4115,240,meters,jsons/MX_seq19_1_VE250_flipped.json,515630,967412,30,Man
58,687113,final-intermixed-textured,v2,jsons/MX_seq19_1_VE250_flipped.json,http://54.235.29.9/FacialAge/BNav_EC2/DepthDuration/MX_fS_VE_MTurk/MX_fS_HTML.html#303,303,1536,730,1536,864,0-31-2024,20-12-8,59,VR_target_stimuli/s15_0.75x_4.2_388.png,250,0.75x,4.2,0.7,7979,256,meters,jsons/MX_seq19_1_VE250_flipped.json,515630,967412,30,Man
59,687113,final-intermixed-textured,v2,jsons/MX_seq19_1_VE250_flipped.json,http://54.235.29.9/FacialAge/BNav_EC2/DepthDuration/MX_fS_VE_MTurk/MX_fS_HTML.html#303,303,1536,730,1536,864,0-31-2024,20-12-8,60,VR_target_stimuli/s4_1.3x_1.4_328.png,250,1.3x,1.4,0.65,4087,253,meters,jsons/MX_seq19_1_VE250_flipped.json,515630,967412,30,Man
