,subjID,experimentName,versionName,sequenceName,url,selected_row,windowWidth,windowHeight,screenWidth,screenHeight,startDate,startTime,trial,stimulus,duration,scale,actual_depth,depth_estimate,trial_RT,log_sceneDuration,unitSelection,seq_filepath,experimentTime,totalTime,age,gender
0,695039,final-intermixed-textured,v2,jsons/MX_seq12_1_VE250_flipped.json,http://54.235.29.9/FacialAge/BNav_EC2/DepthDuration/MX_fS_VE_MTurk/MX_fS_HTML.html#214,214,1920,957,1920,1080,0-31-2024,18-42-46,1,VR_target_stimuli/s48_1.3x_2.55_255_BC.png,250,1.3x,2.55,4,6371,250,meters,jsons/MX_seq12_1_VE250_flipped.json,191848,497306,28,Man
1,695039,final-intermixed-textured,v2,jsons/MX_seq12_1_VE250_flipped.json,http://54.235.29.9/FacialAge/BNav_EC2/DepthDuration/MX_fS_VE_MTurk/MX_fS_HTML.html#214,214,1920,957,1920,1080,0-31-2024,18-42-46,2,VR_target_stimuli/s19_0.75x_1.21_257_BC.png,250,0.75x,1.21,3,4786,249,meters,jsons/MX_seq12_1_VE250_flipped.json,191848,497306,28,Man
2,695039,final-intermixed-textured,v2,jsons/MX_seq12_1_VE250_flipped.json,http://54.235.29.9/FacialAge/BNav_EC2/DepthDuration/MX_fS_VE_MTurk/MX_fS_HTML.html#214,214,1920,957,1920,1080,0-31-2024,18-42-46,3,VR_target_stimuli/s21_1x_4.22_379.png,250,1x,4.22,6,4162,249,meters,jsons/MX_seq12_1_VE250_flipped.json,191848,497306,28,Man
3,695039,final-intermixed-textured,v2,jsons/MX_seq12_1_VE250_flipped.json,http://54.235.29.9/FacialAge/BNav_EC2/DepthDuration/MX_fS_VE_MTurk/MX_fS_HTML.html#214,214,1920,957,1920,1080,0-31-2024,18-42-46,4,VR_target_stimuli/s8_0.75x_3.1_325.png,250,0.75x,3.1,5,3555,250,meters,jsons/MX_seq12_1_VE250_flipped.json,191848,497306,28,Man
4,695039,final-intermixed-textured,v2,jsons/MX_seq12_1_VE250_flipped.json,http://54.235.29.9/FacialAge/BNav_EC2/DepthDuration/MX_fS_VE_MTurk/MX_fS_HTML.html#214,214,1920,957,1920,1080,0-31-2024,18-42-46,5,VR_target_stimuli/s27_1.3x_1.76_250.png,250,1.3x,1.76,4,4867,250,meters,jsons/MX_seq12_1_VE250_flipped.json,191848,497306,28,Man
5,695039,final-intermixed-textured,v2,jsons/MX_seq12_1_VE250_flipped.json,http://54.235.29.9/FacialAge/BNav_EC2/DepthDuration/MX_fS_VE_MTurk/MX_fS_HTML.html#214,214,1920,957,1920,1080,0-31-2024,18-42-46,6,VR_target_stimuli/s15_1x_4.2_390_BC.png,250,1x,4.2,5,2795,250,meters,jsons/MX_seq12_1_VE250_flipped.json,191848,497306,28,Man
6,695039,final-intermixed-textured,v2,jsons/MX_seq12_1_VE250_flipped.json,http://54.235.29.9/FacialAge/BNav_EC2/DepthDuration/MX_fS_VE_MTurk/MX_fS_HTML.html#214,214,1920,957,1920,1080,0-31-2024,18-42-46,7,catch_stimuli/c0_BC.png,250,,,0,3410,250,meters,jsons/MX_seq12_1_VE250_flipped.json,191848,497306,28,Man
7,695039,final-intermixed-textured,v2,jsons/MX_seq12_1_VE250_flipped.json,http://54.235.29.9/FacialAge/BNav_EC2/DepthDuration/MX_fS_VE_MTurk/MX_fS_HTML.html#214,214,1920,957,1920,1080,0-31-2024,18-42-46,8,VR_target_stimuli/s4_1x_1.4_313_BC.png,250,1x,1.4,2,3484,249,meters,jsons/MX_seq12_1_VE250_flipped.json,191848,497306,28,Man
8,695039,final-intermixed-textured,v2,jsons/MX_seq12_1_VE250_flipped.json,http://54.235.29.9/FacialAge/BNav_EC2/DepthDuration/MX_fS_VE_MTurk/MX_fS_HTML.html#214,214,1920,957,1920,1080,0-31-2024,18-42-46,9,VR_target_stimuli/s35_0.75x_2_323_BC.png,250,0.75x,2.0,3,4187,250,meters,jsons/MX_seq12_1_VE250_flipped.json,191848,497306,28,Man
9,695039,final-intermixed-textured,v2,jsons/MX_seq12_1_VE250_flipped.json,http://54.235.29.9/FacialAge/BNav_EC2/DepthDuration/MX_fS_VE_MTurk/MX_fS_HTML.html#214,214,1920,957,1920,1080,0-31-2024,18-42-46,10,VR_target_stimuli/s49_1.3x_4.67_354.png,250,1.3x,4.67,6,2555,249,meters,jsons/MX_seq12_1_VE250_flipped.json,191848,497306,28,Man
10,695039,final-intermixed-textured,v2,jsons/MX_seq12_1_VE250_flipped.json,http://54.235.29.9/FacialAge/BNav_EC2/DepthDuration/MX_fS_VE_MTurk/MX_fS_HTML.html#214,214,1920,957,1920,1080,0-31-2024,18-42-46,11,VR_target_stimuli/s7_0.75x_1.5_253.png,250,0.75x,1.5,4,3538,250,meters,jsons/MX_seq12_1_VE250_flipped.json,191848,497306,28,Man
11,695039,final-intermixed-textured,v2,jsons/MX_seq12_1_VE250_flipped.json,http://54.235.29.9/FacialAge/BNav_EC2/DepthDuration/MX_fS_VE_MTurk/MX_fS_HTML.html#214,214,1920,957,1920,1080,0-31-2024,18-42-46,12,VR_target_stimuli/s20_1x_4.99_398.png,250,1x,4.99,6,3227,250,meters,jsons/MX_seq12_1_VE250_flipped.json,191848,497306,28,Man
12,695039,final-intermixed-textured,v2,jsons/MX_seq12_1_VE250_flipped.json,http://54.235.29.9/FacialAge/BNav_EC2/DepthDuration/MX_fS_VE_MTurk/MX_fS_HTML.html#214,214,1920,957,1920,1080,0-31-2024,18-42-46,13,VR_target_stimuli/s31_1.3x_4.96_342_BC.png,250,1.3x,4.96,3,2259,251,meters,jsons/MX_seq12_1_VE250_flipped.json,191848,497306,28,Man
13,695039,final-intermixed-textured,v2,jsons/MX_seq12_1_VE250_flipped.json,http://54.235.29.9/FacialAge/BNav_EC2/DepthDuration/MX_fS_VE_MTurk/MX_fS_HTML.html#214,214,1920,957,1920,1080,0-31-2024,18-42-46,14,VR_target_stimuli/s33_1x_3.1_366_BC.png,250,1x,3.1,4,2283,251,meters,jsons/MX_seq12_1_VE250_flipped.json,191848,497306,28,Man
14,695039,final-intermixed-textured,v2,jsons/MX_seq12_1_VE250_flipped.json,http://54.235.29.9/FacialAge/BNav_EC2/DepthDuration/MX_fS_VE_MTurk/MX_fS_HTML.html#214,214,1920,957,1920,1080,0-31-2024,18-42-46,15,VR_target_stimuli/s52_0.75x_3.2_270.png,250,0.75x,3.2,6,3210,250,meters,jsons/MX_seq12_1_VE250_flipped.json,191848,497306,28,Man
15,695039,final-intermixed-textured,v2,jsons/MX_seq12_1_VE250_flipped.json,http://54.235.29.9/FacialAge/BNav_EC2/DepthDuration/MX_fS_VE_MTurk/MX_fS_HTML.html#214,214,1920,957,1920,1080,0-31-2024,18-42-46,16,VR_target_stimuli/s32_1.3x_1.5_224_BC.png,250,1.3x,1.5,4,2306,250,meters,jsons/MX_seq12_1_VE250_flipped.json,191848,497306,28,Man
16,695039,final-intermixed-textured,v2,jsons/MX_seq12_1_VE250_flipped.json,http://54.235.29.9/FacialAge/BNav_EC2/DepthDuration/MX_fS_VE_MTurk/MX_fS_HTML.html#214,214,1920,957,1920,1080,0-31-2024,18-42-46,17,catch_stimuli/c1_BC.png,250,,,0,2531,251,meters,jsons/MX_seq12_1_VE250_flipped.json,191848,497306,28,Man
17,695039,final-intermixed-textured,v2,jsons/MX_seq12_1_VE250_flipped.json,http://54.235.29.9/FacialAge/BNav_EC2/DepthDuration/MX_fS_VE_MTurk/MX_fS_HTML.html#214,214,1920,957,1920,1080,0-31-2024,18-42-46,18,VR_target_stimuli/s18_1.3x_2.25_368.png,250,1.3x,2.25,3,3715,249,meters,jsons/MX_seq12_1_VE250_flipped.json,191848,497306,28,Man
18,695039,final-intermixed-textured,v2,jsons/MX_seq12_1_VE250_flipped.json,http://54.235.29.9/FacialAge/BNav_EC2/DepthDuration/MX_fS_VE_MTurk/MX_fS_HTML.html#214,214,1920,957,1920,1080,0-31-2024,18-42-46,19,VR_target_stimuli/s39_1x_1_207.png,250,1x,1.0,4,3122,250,meters,jsons/MX_seq12_1_VE250_flipped.json,191848,497306,28,Man
19,695039,final-intermixed-textured,v2,jsons/MX_seq12_1_VE250_flipped.json,http://54.235.29.9/FacialAge/BNav_EC2/DepthDuration/MX_fS_VE_MTurk/MX_fS_HTML.html#214,214,1920,957,1920,1080,0-31-2024,18-42-46,20,VR_target_stimuli/s51_0.75x_3.64_460_BC.png,250,0.75x,3.64,4,3258,249,meters,jsons/MX_seq12_1_VE250_flipped.json,191848,497306,28,Man
20,695039,final-intermixed-textured,v2,jsons/MX_seq12_1_VE250_flipped.json,http://54.235.29.9/FacialAge/BNav_EC2/DepthDuration/MX_fS_VE_MTurk/MX_fS_HTML.html#214,214,1920,957,1920,1080,0-31-2024,18-42-46,21,VR_target_stimuli/s43_1x_2.2_354_BC.png,250,1x,2.2,5,2242,249,meters,jsons/MX_seq12_1_VE250_flipped.json,191848,497306,28,Man
21,695039,final-intermixed-textured,v2,jsons/MX_seq12_1_VE250_flipped.json,http://54.235.29.9/FacialAge/BNav_EC2/DepthDuration/MX_fS_VE_MTurk/MX_fS_HTML.html#214,214,1920,957,1920,1080,0-31-2024,18-42-46,22,VR_target_stimuli/s24_1.3x_3.3_352.png,250,1.3x,3.3,4,2235,250,meters,jsons/MX_seq12_1_VE250_flipped.json,191848,497306,28,Man
22,695039,final-intermixed-textured,v2,jsons/MX_seq12_1_VE250_flipped.json,http://54.235.29.9/FacialAge/BNav_EC2/DepthDuration/MX_fS_VE_MTurk/MX_fS_HTML.html#214,214,1920,957,1920,1080,0-31-2024,18-42-46,23,VR_target_stimuli/s10_0.75x_2.7_321_BC.png,250,0.75x,2.7,5,2283,249,meters,jsons/MX_seq12_1_VE250_flipped.json,191848,497306,28,Man
23,695039,final-intermixed-textured,v2,jsons/MX_seq12_1_VE250_flipped.json,http://54.235.29.9/FacialAge/BNav_EC2/DepthDuration/MX_fS_VE_MTurk/MX_fS_HTML.html#214,214,1920,957,1920,1080,0-31-2024,18-42-46,24,VR_target_stimuli/s36_1.3x_4.1_442_BC.png,250,1.3x,4.1,6,2451,250,meters,jsons/MX_seq12_1_VE250_flipped.json,191848,497306,28,Man
24,695039,final-intermixed-textured,v2,jsons/MX_seq12_1_VE250_flipped.json,http://54.235.29.9/FacialAge/BNav_EC2/DepthDuration/MX_fS_VE_MTurk/MX_fS_HTML.html#214,214,1920,957,1920,1080,0-31-2024,18-42-46,25,VR_target_stimuli/s40_1x_1.2_319.png,250,1x,1.2,4,2395,249,meters,jsons/MX_seq12_1_VE250_flipped.json,191848,497306,28,Man
25,695039,final-intermixed-textured,v2,jsons/MX_seq12_1_VE250_flipped.json,http://54.235.29.9/FacialAge/BNav_EC2/DepthDuration/MX_fS_VE_MTurk/MX_fS_HTML.html#214,214,1920,957,1920,1080,0-31-2024,18-42-46,26,catch_stimuli/c2_BC.png,250,,,0,2154,249,meters,jsons/MX_seq12_1_VE250_flipped.json,191848,497306,28,Man
26,695039,final-intermixed-textured,v2,jsons/MX_seq12_1_VE250_flipped.json,http://54.235.29.9/FacialAge/BNav_EC2/DepthDuration/MX_fS_VE_MTurk/MX_fS_HTML.html#214,214,1920,957,1920,1080,0-31-2024,18-42-46,27,VR_target_stimuli/s41_0.75x_2.1_281.png,250,0.75x,2.1,4,4603,250,meters,jsons/MX_seq12_1_VE250_flipped.json,191848,497306,28,Man
27,695039,final-intermixed-textured,v2,jsons/MX_seq12_1_VE250_flipped.json,http://54.235.29.9/FacialAge/BNav_EC2/DepthDuration/MX_fS_VE_MTurk/MX_fS_HTML.html#214,214,1920,957,1920,1080,0-31-2024,18-42-46,28,VR_target_stimuli/s45_0.75x_3.5_362_BC.png,250,0.75x,3.5,4,2699,251,meters,jsons/MX_seq12_1_VE250_flipped.json,191848,497306,28,Man
28,695039,final-intermixed-textured,v2,jsons/MX_seq12_1_VE250_flipped.json,http://54.235.29.9/FacialAge/BNav_EC2/DepthDuration/MX_fS_VE_MTurk/MX_fS_HTML.html#214,214,1920,957,1920,1080,0-31-2024,18-42-46,29,VR_target_stimuli/s23_1.3x_3.65_354.png,250,1.3x,3.65,4,2843,250,meters,jsons/MX_seq12_1_VE250_flipped.json,191848,497306,28,Man
29,695039,final-intermixed-textured,v2,jsons/MX_seq12_1_VE250_flipped.json,http://54.235.29.9/FacialAge/BNav_EC2/DepthDuration/MX_fS_VE_MTurk/MX_fS_HTML.html#214,214,1920,957,1920,1080,0-31-2024,18-42-46,30,VR_target_stimuli/s26_1x_4_433.png,250,1x,4.0,5,2100,249,meters,jsons/MX_seq12_1_VE250_flipped.json,191848,497306,28,Man
30,695039,final-intermixed-textured,v2,jsons/MX_seq12_1_VE250_flipped.json,http://54.235.29.9/FacialAge/BNav_EC2/DepthDuration/MX_fS_VE_MTurk/MX_fS_HTML.html#214,214,1920,957,1920,1080,0-31-2024,18-42-46,31,VR_target_stimuli/s12_0.75x_3.1_364.png,250,0.75x,3.1,4,2531,251,meters,jsons/MX_seq12_1_VE250_flipped.json,191848,497306,28,Man
31,695039,final-intermixed-textured,v2,jsons/MX_seq12_1_VE250_flipped.json,http://54.235.29.9/FacialAge/BNav_EC2/DepthDuration/MX_fS_VE_MTurk/MX_fS_HTML.html#214,214,1920,957,1920,1080,0-31-2024,18-42-46,32,VR_target_stimuli/s30_1x_2.3_334_BC.png,250,1x,2.3,4,2107,248,meters,jsons/MX_seq12_1_VE250_flipped.json,191848,497306,28,Man
32,695039,final-intermixed-textured,v2,jsons/MX_seq12_1_VE250_flipped.json,http://54.235.29.9/FacialAge/BNav_EC2/DepthDuration/MX_fS_VE_MTurk/MX_fS_HTML.html#214,214,1920,957,1920,1080,0-31-2024,18-42-46,33,VR_target_stimuli/s16_1.3x_1_223_BC.png,250,1.3x,1.0,3,2459,250,meters,jsons/MX_seq12_1_VE250_flipped.json,191848,497306,28,Man
33,695039,final-intermixed-textured,v2,jsons/MX_seq12_1_VE250_flipped.json,http://54.235.29.9/FacialAge/BNav_EC2/DepthDuration/MX_fS_VE_MTurk/MX_fS_HTML.html#214,214,1920,957,1920,1080,0-31-2024,18-42-46,34,catch_stimuli/c3_BC.png,250,,,0,2643,250,meters,jsons/MX_seq12_1_VE250_flipped.json,191848,497306,28,Man
34,695039,final-intermixed-textured,v2,jsons/MX_seq12_1_VE250_flipped.json,http://54.235.29.9/FacialAge/BNav_EC2/DepthDuration/MX_fS_VE_MTurk/MX_fS_HTML.html#214,214,1920,957,1920,1080,0-31-2024,18-42-46,35,VR_target_stimuli/s17_1x_1.8_291_BC.png,250,1x,1.8,3,2026,250,meters,jsons/MX_seq12_1_VE250_flipped.json,191848,497306,28,Man
35,695039,final-intermixed-textured,v2,jsons/MX_seq12_1_VE250_flipped.json,http://54.235.29.9/FacialAge/BNav_EC2/DepthDuration/MX_fS_VE_MTurk/MX_fS_HTML.html#214,214,1920,957,1920,1080,0-31-2024,18-42-46,36,VR_target_stimuli/s5_0.75x_4_375.png,250,0.75x,4.0,5,2907,249,meters,jsons/MX_seq12_1_VE250_flipped.json,191848,497306,28,Man
36,695039,final-intermixed-textured,v2,jsons/MX_seq12_1_VE250_flipped.json,http://54.235.29.9/FacialAge/BNav_EC2/DepthDuration/MX_fS_VE_MTurk/MX_fS_HTML.html#214,214,1920,957,1920,1080,0-31-2024,18-42-46,37,VR_target_stimuli/s37_1.3x_3.3_555_BC.png,250,1.3x,3.3,2,2346,249,meters,jsons/MX_seq12_1_VE250_flipped.json,191848,497306,28,Man
37,695039,final-intermixed-textured,v2,jsons/MX_seq12_1_VE250_flipped.json,http://54.235.29.9/FacialAge/BNav_EC2/DepthDuration/MX_fS_VE_MTurk/MX_fS_HTML.html#214,214,1920,957,1920,1080,0-31-2024,18-42-46,38,VR_target_stimuli/s46_1.3x_2.42_354.png,250,1.3x,2.42,4,2251,251,meters,jsons/MX_seq12_1_VE250_flipped.json,191848,497306,28,Man
38,695039,final-intermixed-textured,v2,jsons/MX_seq12_1_VE250_flipped.json,http://54.235.29.9/FacialAge/BNav_EC2/DepthDuration/MX_fS_VE_MTurk/MX_fS_HTML.html#214,214,1920,957,1920,1080,0-31-2024,18-42-46,39,VR_target_stimuli/s22_1x_4.29_354.png,250,1x,4.29,5,2043,250,meters,jsons/MX_seq12_1_VE250_flipped.json,191848,497306,28,Man
39,695039,final-intermixed-textured,v2,jsons/MX_seq12_1_VE250_flipped.json,http://54.235.29.9/FacialAge/BNav_EC2/DepthDuration/MX_fS_VE_MTurk/MX_fS_HTML.html#214,214,1920,957,1920,1080,0-31-2024,18-42-46,40,VR_target_stimuli/s42_0.75x_3.2_301_BC.png,250,0.75x,3.2,5,2122,249,meters,jsons/MX_seq12_1_VE250_flipped.json,191848,497306,28,Man
40,695039,final-intermixed-textured,v2,jsons/MX_seq12_1_VE250_flipped.json,http://54.235.29.9/FacialAge/BNav_EC2/DepthDuration/MX_fS_VE_MTurk/MX_fS_HTML.html#214,214,1920,957,1920,1080,0-31-2024,18-42-46,41,VR_target_stimuli/s25_1x_1.4_290.png,250,1x,1.4,4,2403,249,meters,jsons/MX_seq12_1_VE250_flipped.json,191848,497306,28,Man
41,695039,final-intermixed-textured,v2,jsons/MX_seq12_1_VE250_flipped.json,http://54.235.29.9/FacialAge/BNav_EC2/DepthDuration/MX_fS_VE_MTurk/MX_fS_HTML.html#214,214,1920,957,1920,1080,0-31-2024,18-42-46,42,VR_target_stimuli/s50_1.3x_4.53_518.png,250,1.3x,4.53,6,2130,250,meters,jsons/MX_seq12_1_VE250_flipped.json,191848,497306,28,Man
42,695039,final-intermixed-textured,v2,jsons/MX_seq12_1_VE250_flipped.json,http://54.235.29.9/FacialAge/BNav_EC2/DepthDuration/MX_fS_VE_MTurk/MX_fS_HTML.html#214,214,1920,957,1920,1080,0-31-2024,18-42-46,43,VR_target_stimuli/s53_0.75x_1.6_403_BC.png,250,0.75x,1.6,3,2163,249,meters,jsons/MX_seq12_1_VE250_flipped.json,191848,497306,28,Man
43,695039,final-intermixed-textured,v2,jsons/MX_seq12_1_VE250_flipped.json,http://54.235.29.9/FacialAge/BNav_EC2/DepthDuration/MX_fS_VE_MTurk/MX_fS_HTML.html#214,214,1920,957,1920,1080,0-31-2024,18-42-46,44,VR_target_stimuli/s38_1.3x_3.55_358_BC.png,250,1.3x,3.55,5,2051,250,meters,jsons/MX_seq12_1_VE250_flipped.json,191848,497306,28,Man
44,695039,final-intermixed-textured,v2,jsons/MX_seq12_1_VE250_flipped.json,http://54.235.29.9/FacialAge/BNav_EC2/DepthDuration/MX_fS_VE_MTurk/MX_fS_HTML.html#214,214,1920,957,1920,1080,0-31-2024,18-42-46,45,catch_stimuli/c4_BC.png,250,,,0,2427,251,meters,jsons/MX_seq12_1_VE250_flipped.json,191848,497306,28,Man
45,695039,final-intermixed-textured,v2,jsons/MX_seq12_1_VE250_flipped.json,http://54.235.29.9/FacialAge/BNav_EC2/DepthDuration/MX_fS_VE_MTurk/MX_fS_HTML.html#214,214,1920,957,1920,1080,0-31-2024,18-42-46,46,VR_target_stimuli/s9_1x_1.2_263_BC.png,250,1x,1.2,3,2027,251,meters,jsons/MX_seq12_1_VE250_flipped.json,191848,497306,28,Man
46,695039,final-intermixed-textured,v2,jsons/MX_seq12_1_VE250_flipped.json,http://54.235.29.9/FacialAge/BNav_EC2/DepthDuration/MX_fS_VE_MTurk/MX_fS_HTML.html#214,214,1920,957,1920,1080,0-31-2024,18-42-46,47,VR_target_stimuli/s44_0.75x_4.4_314.png,250,0.75x,4.4,5,2219,249,meters,jsons/MX_seq12_1_VE250_flipped.json,191848,497306,28,Man
47,695039,final-intermixed-textured,v2,jsons/MX_seq12_1_VE250_flipped.json,http://54.235.29.9/FacialAge/BNav_EC2/DepthDuration/MX_fS_VE_MTurk/MX_fS_HTML.html#214,214,1920,957,1920,1080,0-31-2024,18-42-46,48,VR_target_stimuli/s3_0.75x_5_381.png,250,0.75x,5.0,6,2051,250,meters,jsons/MX_seq12_1_VE250_flipped.json,191848,497306,28,Man
48,695039,final-intermixed-textured,v2,jsons/MX_seq12_1_VE250_flipped.json,http://54.235.29.9/FacialAge/BNav_EC2/DepthDuration/MX_fS_VE_MTurk/MX_fS_HTML.html#214,214,1920,957,1920,1080,0-31-2024,18-42-46,49,VR_target_stimuli/s1_1.3x_1.7_261.png,250,1.3x,1.7,3,2171,249,meters,jsons/MX_seq12_1_VE250_flipped.json,191848,497306,28,Man
49,695039,final-intermixed-textured,v2,jsons/MX_seq12_1_VE250_flipped.json,http://54.235.29.9/FacialAge/BNav_EC2/DepthDuration/MX_fS_VE_MTurk/MX_fS_HTML.html#214,214,1920,957,1920,1080,0-31-2024,18-42-46,50,VR_target_stimuli/s11_1x_5_361_BC.png,250,1x,5.0,5,2043,250,meters,jsons/MX_seq12_1_VE250_flipped.json,191848,497306,28,Man
50,695039,final-intermixed-textured,v2,jsons/MX_seq12_1_VE250_flipped.json,http://54.235.29.9/FacialAge/BNav_EC2/DepthDuration/MX_fS_VE_MTurk/MX_fS_HTML.html#214,214,1920,957,1920,1080,0-31-2024,18-42-46,51,VR_target_stimuli/s2_1.3x_2.7_397_BC.png,250,1.3x,2.7,4,2042,250,meters,jsons/MX_seq12_1_VE250_flipped.json,191848,497306,28,Man
51,695039,final-intermixed-textured,v2,jsons/MX_seq12_1_VE250_flipped.json,http://54.235.29.9/FacialAge/BNav_EC2/DepthDuration/MX_fS_VE_MTurk/MX_fS_HTML.html#214,214,1920,957,1920,1080,0-31-2024,18-42-46,52,VR_target_stimuli/s6_0.75x_2.1_290_BC.png,250,0.75x,2.1,5,2155,250,meters,jsons/MX_seq12_1_VE250_flipped.json,191848,497306,28,Man
52,695039,final-intermixed-textured,v2,jsons/MX_seq12_1_VE250_flipped.json,http://54.235.29.9/FacialAge/BNav_EC2/DepthDuration/MX_fS_VE_MTurk/MX_fS_HTML.html#214,214,1920,957,1920,1080,0-31-2024,18-42-46,53,catch_stimuli/c5_BC.png,250,,,0,1675,250,meters,jsons/MX_seq12_1_VE250_flipped.json,191848,497306,28,Man
53,695039,final-intermixed-textured,v2,jsons/MX_seq12_1_VE250_flipped.json,http://54.235.29.9/FacialAge/BNav_EC2/DepthDuration/MX_fS_VE_MTurk/MX_fS_HTML.html#214,214,1920,957,1920,1080,0-31-2024,18-42-46,54,VR_target_stimuli/s0_1x_2.6_351.png,250,1x,2.6,3,2156,251,meters,jsons/MX_seq12_1_VE250_flipped.json,191848,497306,28,Man
54,695039,final-intermixed-textured,v2,jsons/MX_seq12_1_VE250_flipped.json,http://54.235.29.9/FacialAge/BNav_EC2/DepthDuration/MX_fS_VE_MTurk/MX_fS_HTML.html#214,214,1920,957,1920,1080,0-31-2024,18-42-46,55,VR_target_stimuli/s34_0.75x_2.8_269.png,250,0.75x,2.8,4,2203,250,meters,jsons/MX_seq12_1_VE250_flipped.json,191848,497306,28,Man
55,695039,final-intermixed-textured,v2,jsons/MX_seq12_1_VE250_flipped.json,http://54.235.29.9/FacialAge/BNav_EC2/DepthDuration/MX_fS_VE_MTurk/MX_fS_HTML.html#214,214,1920,957,1920,1080,0-31-2024,18-42-46,56,VR_target_stimuli/s13_1.3x_2.4_313.png,250,1.3x,2.4,4,1987,249,meters,jsons/MX_seq12_1_VE250_flipped.json,191848,497306,28,Man
56,695039,final-intermixed-textured,v2,jsons/MX_seq12_1_VE250_flipped.json,http://54.235.29.9/FacialAge/BNav_EC2/DepthDuration/MX_fS_VE_MTurk/MX_fS_HTML.html#214,214,1920,957,1920,1080,0-31-2024,18-42-46,57,VR_target_stimuli/s14_1x_ 3.83_357_BC.png,250,1x,3.83,5,2139,250,meters,jsons/MX_seq12_1_VE250_flipped.json,191848,497306,28,Man
57,695039,final-intermixed-textured,v2,jsons/MX_seq12_1_VE250_flipped.json,http://54.235.29.9/FacialAge/BNav_EC2/DepthDuration/MX_fS_VE_MTurk/MX_fS_HTML.html#214,214,1920,957,1920,1080,0-31-2024,18-42-46,58,VR_target_stimuli/s47_1x_3.45_370.png,250,1x,3.45,4,2243,251,meters,jsons/MX_seq12_1_VE250_flipped.json,191848,497306,28,Man
58,695039,final-intermixed-textured,v2,jsons/MX_seq12_1_VE250_flipped.json,http://54.235.29.9/FacialAge/BNav_EC2/DepthDuration/MX_fS_VE_MTurk/MX_fS_HTML.html#214,214,1920,957,1920,1080,0-31-2024,18-42-46,59,VR_target_stimuli/s29_0.75x_1.3_246_BC.png,250,0.75x,1.3,3,2331,250,meters,jsons/MX_seq12_1_VE250_flipped.json,191848,497306,28,Man
59,695039,final-intermixed-textured,v2,jsons/MX_seq12_1_VE250_flipped.json,http://54.235.29.9/FacialAge/BNav_EC2/DepthDuration/MX_fS_VE_MTurk/MX_fS_HTML.html#214,214,1920,957,1920,1080,0-31-2024,18-42-46,60,VR_target_stimuli/s28_1.3x_3.2_365_BC.png,250,1.3x,3.2,5,2098,249,meters,jsons/MX_seq12_1_VE250_flipped.json,191848,497306,28,Man
