,subjID,experimentName,versionName,sequenceName,url,selected_row,windowWidth,windowHeight,screenWidth,screenHeight,startDate,startTime,trial,stimulus,duration,scale,actual_depth,depth_estimate,trial_RT,log_sceneDuration,unitSelection,seq_filepath,experimentTime,totalTime,age,gender
0,713504,final-intermixed-textured,v2,jsons/MX_seq48_0_VE250_flipped.json,http://54.235.29.9/FacialAge/BNav_EC2/DepthDuration/MX_fS_VE_MTurk/MX_fS_HTML.html#188,188,3440,1271,3440,1440,1-1-2024,16-45-38,1,VR_target_stimuli/s25_0.75x_1.4_281_BC.png,250,0.75x,1.4,80,2723,264,meters,jsons/MX_seq48_0_VE250_flipped.json,190183,586214,25,Man
1,713504,final-intermixed-textured,v2,jsons/MX_seq48_0_VE250_flipped.json,http://54.235.29.9/FacialAge/BNav_EC2/DepthDuration/MX_fS_VE_MTurk/MX_fS_HTML.html#188,188,3440,1271,3440,1440,1-1-2024,16-45-38,2,VR_target_stimuli/s50_1x_4.53_518.png,250,1x,4.53,60,2183,248,meters,jsons/MX_seq48_0_VE250_flipped.json,190183,586214,25,Man
2,713504,final-intermixed-textured,v2,jsons/MX_seq48_0_VE250_flipped.json,http://54.235.29.9/FacialAge/BNav_EC2/DepthDuration/MX_fS_VE_MTurk/MX_fS_HTML.html#188,188,3440,1271,3440,1440,1-1-2024,16-45-38,3,VR_target_stimuli/s53_1.3x_1.6_355.png,250,1.3x,1.6,40,3863,252,meters,jsons/MX_seq48_0_VE250_flipped.json,190183,586214,25,Man
3,713504,final-intermixed-textured,v2,jsons/MX_seq48_0_VE250_flipped.json,http://54.235.29.9/FacialAge/BNav_EC2/DepthDuration/MX_fS_VE_MTurk/MX_fS_HTML.html#188,188,3440,1271,3440,1440,1-1-2024,16-45-38,4,VR_target_stimuli/s38_1x_3.55_353_BC.png,250,1x,3.55,90,2050,247,meters,jsons/MX_seq48_0_VE250_flipped.json,190183,586214,25,Man
4,713504,final-intermixed-textured,v2,jsons/MX_seq48_0_VE250_flipped.json,http://54.235.29.9/FacialAge/BNav_EC2/DepthDuration/MX_fS_VE_MTurk/MX_fS_HTML.html#188,188,3440,1271,3440,1440,1-1-2024,16-45-38,5,VR_target_stimuli/s9_0.75x_1.2_260.png,250,0.75x,1.2,60,3913,249,meters,jsons/MX_seq48_0_VE250_flipped.json,190183,586214,25,Man
5,713504,final-intermixed-textured,v2,jsons/MX_seq48_0_VE250_flipped.json,http://54.235.29.9/FacialAge/BNav_EC2/DepthDuration/MX_fS_VE_MTurk/MX_fS_HTML.html#188,188,3440,1271,3440,1440,1-1-2024,16-45-38,6,VR_target_stimuli/s44_1.3x_4.4_325_BC.png,250,1.3x,4.4,120,2495,250,meters,jsons/MX_seq48_0_VE250_flipped.json,190183,586214,25,Man
6,713504,final-intermixed-textured,v2,jsons/MX_seq48_0_VE250_flipped.json,http://54.235.29.9/FacialAge/BNav_EC2/DepthDuration/MX_fS_VE_MTurk/MX_fS_HTML.html#188,188,3440,1271,3440,1440,1-1-2024,16-45-38,7,catch_stimuli/c0_BC.png,250,,,0,1636,253,meters,jsons/MX_seq48_0_VE250_flipped.json,190183,586214,25,Man
7,713504,final-intermixed-textured,v2,jsons/MX_seq48_0_VE250_flipped.json,http://54.235.29.9/FacialAge/BNav_EC2/DepthDuration/MX_fS_VE_MTurk/MX_fS_HTML.html#188,188,3440,1271,3440,1440,1-1-2024,16-45-38,8,VR_target_stimuli/s3_1.3x_5_390.png,250,1.3x,5.0,110,2905,260,meters,jsons/MX_seq48_0_VE250_flipped.json,190183,586214,25,Man
8,713504,final-intermixed-textured,v2,jsons/MX_seq48_0_VE250_flipped.json,http://54.235.29.9/FacialAge/BNav_EC2/DepthDuration/MX_fS_VE_MTurk/MX_fS_HTML.html#188,188,3440,1271,3440,1440,1-1-2024,16-45-38,9,VR_target_stimuli/s1_1x_1.7_262_BC.png,250,1x,1.7,90,2470,259,meters,jsons/MX_seq48_0_VE250_flipped.json,190183,586214,25,Man
9,713504,final-intermixed-textured,v2,jsons/MX_seq48_0_VE250_flipped.json,http://54.235.29.9/FacialAge/BNav_EC2/DepthDuration/MX_fS_VE_MTurk/MX_fS_HTML.html#188,188,3440,1271,3440,1440,1-1-2024,16-45-38,10,VR_target_stimuli/s11_0.75x_5_359.png,250,0.75x,5.0,190,3555,246,meters,jsons/MX_seq48_0_VE250_flipped.json,190183,586214,25,Man
10,713504,final-intermixed-textured,v2,jsons/MX_seq48_0_VE250_flipped.json,http://54.235.29.9/FacialAge/BNav_EC2/DepthDuration/MX_fS_VE_MTurk/MX_fS_HTML.html#188,188,3440,1271,3440,1440,1-1-2024,16-45-38,11,VR_target_stimuli/s2_1x_2.7_390.png,250,1x,2.7,80,2267,253,meters,jsons/MX_seq48_0_VE250_flipped.json,190183,586214,25,Man
11,713504,final-intermixed-textured,v2,jsons/MX_seq48_0_VE250_flipped.json,http://54.235.29.9/FacialAge/BNav_EC2/DepthDuration/MX_fS_VE_MTurk/MX_fS_HTML.html#188,188,3440,1271,3440,1440,1-1-2024,16-45-38,12,VR_target_stimuli/s6_1.3x_2.1_298_BC.png,250,1.3x,2.1,100,3748,253,meters,jsons/MX_seq48_0_VE250_flipped.json,190183,586214,25,Man
12,713504,final-intermixed-textured,v2,jsons/MX_seq48_0_VE250_flipped.json,http://54.235.29.9/FacialAge/BNav_EC2/DepthDuration/MX_fS_VE_MTurk/MX_fS_HTML.html#188,188,3440,1271,3440,1440,1-1-2024,16-45-38,13,VR_target_stimuli/s0_0.75x_2.6_345_BC.png,250,0.75x,2.6,120,3130,242,meters,jsons/MX_seq48_0_VE250_flipped.json,190183,586214,25,Man
13,713504,final-intermixed-textured,v2,jsons/MX_seq48_0_VE250_flipped.json,http://54.235.29.9/FacialAge/BNav_EC2/DepthDuration/MX_fS_VE_MTurk/MX_fS_HTML.html#188,188,3440,1271,3440,1440,1-1-2024,16-45-38,14,VR_target_stimuli/s34_1.3x_2.8_294.png,250,1.3x,2.8,90,2178,265,meters,jsons/MX_seq48_0_VE250_flipped.json,190183,586214,25,Man
14,713504,final-intermixed-textured,v2,jsons/MX_seq48_0_VE250_flipped.json,http://54.235.29.9/FacialAge/BNav_EC2/DepthDuration/MX_fS_VE_MTurk/MX_fS_HTML.html#188,188,3440,1271,3440,1440,1-1-2024,16-45-38,15,VR_target_stimuli/s13_1x_2.4_310_BC.png,250,1x,2.4,160,3505,252,meters,jsons/MX_seq48_0_VE250_flipped.json,190183,586214,25,Man
15,713504,final-intermixed-textured,v2,jsons/MX_seq48_0_VE250_flipped.json,http://54.235.29.9/FacialAge/BNav_EC2/DepthDuration/MX_fS_VE_MTurk/MX_fS_HTML.html#188,188,3440,1271,3440,1440,1-1-2024,16-45-38,16,VR_target_stimuli/s14_0.75x_3.83_355.png,250,0.75x,3.83,120,2770,254,meters,jsons/MX_seq48_0_VE250_flipped.json,190183,586214,25,Man
16,713504,final-intermixed-textured,v2,jsons/MX_seq48_0_VE250_flipped.json,http://54.235.29.9/FacialAge/BNav_EC2/DepthDuration/MX_fS_VE_MTurk/MX_fS_HTML.html#188,188,3440,1271,3440,1440,1-1-2024,16-45-38,17,catch_stimuli/c1_BC.png,250,,,0,1692,254,meters,jsons/MX_seq48_0_VE250_flipped.json,190183,586214,25,Man
17,713504,final-intermixed-textured,v2,jsons/MX_seq48_0_VE250_flipped.json,http://54.235.29.9/FacialAge/BNav_EC2/DepthDuration/MX_fS_VE_MTurk/MX_fS_HTML.html#188,188,3440,1271,3440,1440,1-1-2024,16-45-38,18,VR_target_stimuli/s47_0.75x_3.45_366_BC.png,250,0.75x,3.45,220,2267,254,meters,jsons/MX_seq48_0_VE250_flipped.json,190183,586214,25,Man
18,713504,final-intermixed-textured,v2,jsons/MX_seq48_0_VE250_flipped.json,http://54.235.29.9/FacialAge/BNav_EC2/DepthDuration/MX_fS_VE_MTurk/MX_fS_HTML.html#188,188,3440,1271,3440,1440,1-1-2024,16-45-38,19,VR_target_stimuli/s29_1.3x_1.3_253_BC.png,250,1.3x,1.3,100,2284,243,meters,jsons/MX_seq48_0_VE250_flipped.json,190183,586214,25,Man
19,713504,final-intermixed-textured,v2,jsons/MX_seq48_0_VE250_flipped.json,http://54.235.29.9/FacialAge/BNav_EC2/DepthDuration/MX_fS_VE_MTurk/MX_fS_HTML.html#188,188,3440,1271,3440,1440,1-1-2024,16-45-38,20,VR_target_stimuli/s28_1x_3.2_362.png,250,1x,3.2,110,3832,252,meters,jsons/MX_seq48_0_VE250_flipped.json,190183,586214,25,Man
20,713504,final-intermixed-textured,v2,jsons/MX_seq48_0_VE250_flipped.json,http://54.235.29.9/FacialAge/BNav_EC2/DepthDuration/MX_fS_VE_MTurk/MX_fS_HTML.html#188,188,3440,1271,3440,1440,1-1-2024,16-45-38,21,VR_target_stimuli/s48_1.3x_2.55_255.png,250,1.3x,2.55,70,2097,255,meters,jsons/MX_seq48_0_VE250_flipped.json,190183,586214,25,Man
21,713504,final-intermixed-textured,v2,jsons/MX_seq48_0_VE250_flipped.json,http://54.235.29.9/FacialAge/BNav_EC2/DepthDuration/MX_fS_VE_MTurk/MX_fS_HTML.html#188,188,3440,1271,3440,1440,1-1-2024,16-45-38,22,VR_target_stimuli/s19_0.75x_1.21_257.png,250,0.75x,1.21,110,2432,246,meters,jsons/MX_seq48_0_VE250_flipped.json,190183,586214,25,Man
22,713504,final-intermixed-textured,v2,jsons/MX_seq48_0_VE250_flipped.json,http://54.235.29.9/FacialAge/BNav_EC2/DepthDuration/MX_fS_VE_MTurk/MX_fS_HTML.html#188,188,3440,1271,3440,1440,1-1-2024,16-45-38,23,VR_target_stimuli/s21_1x_4.22_379_BC.png,250,1x,4.22,130,3108,262,meters,jsons/MX_seq48_0_VE250_flipped.json,190183,586214,25,Man
23,713504,final-intermixed-textured,v2,jsons/MX_seq48_0_VE250_flipped.json,http://54.235.29.9/FacialAge/BNav_EC2/DepthDuration/MX_fS_VE_MTurk/MX_fS_HTML.html#188,188,3440,1271,3440,1440,1-1-2024,16-45-38,24,VR_target_stimuli/s8_0.75x_3.1_325_BC.png,250,0.75x,3.1,160,1910,251,meters,jsons/MX_seq48_0_VE250_flipped.json,190183,586214,25,Man
24,713504,final-intermixed-textured,v2,jsons/MX_seq48_0_VE250_flipped.json,http://54.235.29.9/FacialAge/BNav_EC2/DepthDuration/MX_fS_VE_MTurk/MX_fS_HTML.html#188,188,3440,1271,3440,1440,1-1-2024,16-45-38,25,VR_target_stimuli/s27_1.3x_1.76_250_BC.png,250,1.3x,1.76,100,2168,251,meters,jsons/MX_seq48_0_VE250_flipped.json,190183,586214,25,Man
25,713504,final-intermixed-textured,v2,jsons/MX_seq48_0_VE250_flipped.json,http://54.235.29.9/FacialAge/BNav_EC2/DepthDuration/MX_fS_VE_MTurk/MX_fS_HTML.html#188,188,3440,1271,3440,1440,1-1-2024,16-45-38,26,catch_stimuli/c2_BC.png,250,,,0,1434,250,meters,jsons/MX_seq48_0_VE250_flipped.json,190183,586214,25,Man
26,713504,final-intermixed-textured,v2,jsons/MX_seq48_0_VE250_flipped.json,http://54.235.29.9/FacialAge/BNav_EC2/DepthDuration/MX_fS_VE_MTurk/MX_fS_HTML.html#188,188,3440,1271,3440,1440,1-1-2024,16-45-38,27,VR_target_stimuli/s15_1x_4.2_390.png,250,1x,4.2,250,2530,257,meters,jsons/MX_seq48_0_VE250_flipped.json,190183,586214,25,Man
27,713504,final-intermixed-textured,v2,jsons/MX_seq48_0_VE250_flipped.json,http://54.235.29.9/FacialAge/BNav_EC2/DepthDuration/MX_fS_VE_MTurk/MX_fS_HTML.html#188,188,3440,1271,3440,1440,1-1-2024,16-45-38,28,VR_target_stimuli/s4_1x_1.4_313_BC.png,250,1x,1.4,100,2384,251,meters,jsons/MX_seq48_0_VE250_flipped.json,190183,586214,25,Man
28,713504,final-intermixed-textured,v2,jsons/MX_seq48_0_VE250_flipped.json,http://54.235.29.9/FacialAge/BNav_EC2/DepthDuration/MX_fS_VE_MTurk/MX_fS_HTML.html#188,188,3440,1271,3440,1440,1-1-2024,16-45-38,29,VR_target_stimuli/s35_0.75x_2_323_BC.png,250,0.75x,2.0,90,3350,258,meters,jsons/MX_seq48_0_VE250_flipped.json,190183,586214,25,Man
29,713504,final-intermixed-textured,v2,jsons/MX_seq48_0_VE250_flipped.json,http://54.235.29.9/FacialAge/BNav_EC2/DepthDuration/MX_fS_VE_MTurk/MX_fS_HTML.html#188,188,3440,1271,3440,1440,1-1-2024,16-45-38,30,VR_target_stimuli/s49_1.3x_4.67_354_BC.png,250,1.3x,4.67,260,3278,250,meters,jsons/MX_seq48_0_VE250_flipped.json,190183,586214,25,Man
30,713504,final-intermixed-textured,v2,jsons/MX_seq48_0_VE250_flipped.json,http://54.235.29.9/FacialAge/BNav_EC2/DepthDuration/MX_fS_VE_MTurk/MX_fS_HTML.html#188,188,3440,1271,3440,1440,1-1-2024,16-45-38,31,VR_target_stimuli/s7_1x_1.5_255.png,250,1x,1.5,105,2784,244,meters,jsons/MX_seq48_0_VE250_flipped.json,190183,586214,25,Man
31,713504,final-intermixed-textured,v2,jsons/MX_seq48_0_VE250_flipped.json,http://54.235.29.9/FacialAge/BNav_EC2/DepthDuration/MX_fS_VE_MTurk/MX_fS_HTML.html#188,188,3440,1271,3440,1440,1-1-2024,16-45-38,32,VR_target_stimuli/s20_1.3x_4.99_412.png,250,1.3x,4.99,200,2571,250,meters,jsons/MX_seq48_0_VE250_flipped.json,190183,586214,25,Man
32,713504,final-intermixed-textured,v2,jsons/MX_seq48_0_VE250_flipped.json,http://54.235.29.9/FacialAge/BNav_EC2/DepthDuration/MX_fS_VE_MTurk/MX_fS_HTML.html#188,188,3440,1271,3440,1440,1-1-2024,16-45-38,33,VR_target_stimuli/s31_0.75x_4.96_329.png,250,0.75x,4.96,210,4004,251,meters,jsons/MX_seq48_0_VE250_flipped.json,190183,586214,25,Man
33,713504,final-intermixed-textured,v2,jsons/MX_seq48_0_VE250_flipped.json,http://54.235.29.9/FacialAge/BNav_EC2/DepthDuration/MX_fS_VE_MTurk/MX_fS_HTML.html#188,188,3440,1271,3440,1440,1-1-2024,16-45-38,34,catch_stimuli/c3_BC.png,250,,,0,1970,246,meters,jsons/MX_seq48_0_VE250_flipped.json,190183,586214,25,Man
34,713504,final-intermixed-textured,v2,jsons/MX_seq48_0_VE250_flipped.json,http://54.235.29.9/FacialAge/BNav_EC2/DepthDuration/MX_fS_VE_MTurk/MX_fS_HTML.html#188,188,3440,1271,3440,1440,1-1-2024,16-45-38,35,VR_target_stimuli/s33_1.3x_3.1_378_BC.png,250,1.3x,3.1,140,3070,250,meters,jsons/MX_seq48_0_VE250_flipped.json,190183,586214,25,Man
35,713504,final-intermixed-textured,v2,jsons/MX_seq48_0_VE250_flipped.json,http://54.235.29.9/FacialAge/BNav_EC2/DepthDuration/MX_fS_VE_MTurk/MX_fS_HTML.html#188,188,3440,1271,3440,1440,1-1-2024,16-45-38,36,VR_target_stimuli/s52_1x_3.2_275.png,250,1x,3.2,170,2266,256,meters,jsons/MX_seq48_0_VE250_flipped.json,190183,586214,25,Man
36,713504,final-intermixed-textured,v2,jsons/MX_seq48_0_VE250_flipped.json,http://54.235.29.9/FacialAge/BNav_EC2/DepthDuration/MX_fS_VE_MTurk/MX_fS_HTML.html#188,188,3440,1271,3440,1440,1-1-2024,16-45-38,37,VR_target_stimuli/s32_0.75x_1.5_213.png,250,0.75x,1.5,150,3092,249,meters,jsons/MX_seq48_0_VE250_flipped.json,190183,586214,25,Man
37,713504,final-intermixed-textured,v2,jsons/MX_seq48_0_VE250_flipped.json,http://54.235.29.9/FacialAge/BNav_EC2/DepthDuration/MX_fS_VE_MTurk/MX_fS_HTML.html#188,188,3440,1271,3440,1440,1-1-2024,16-45-38,38,VR_target_stimuli/s18_0.75x_2.25_341_BC.png,250,0.75x,2.25,90,2011,248,meters,jsons/MX_seq48_0_VE250_flipped.json,190183,586214,25,Man
38,713504,final-intermixed-textured,v2,jsons/MX_seq48_0_VE250_flipped.json,http://54.235.29.9/FacialAge/BNav_EC2/DepthDuration/MX_fS_VE_MTurk/MX_fS_HTML.html#188,188,3440,1271,3440,1440,1-1-2024,16-45-38,39,VR_target_stimuli/s39_1.3x_1_208.png,250,1.3x,1.0,80,2461,247,meters,jsons/MX_seq48_0_VE250_flipped.json,190183,586214,25,Man
39,713504,final-intermixed-textured,v2,jsons/MX_seq48_0_VE250_flipped.json,http://54.235.29.9/FacialAge/BNav_EC2/DepthDuration/MX_fS_VE_MTurk/MX_fS_HTML.html#188,188,3440,1271,3440,1440,1-1-2024,16-45-38,40,VR_target_stimuli/s51_1x_3.64_461_BC.png,250,1x,3.64,70,2795,251,meters,jsons/MX_seq48_0_VE250_flipped.json,190183,586214,25,Man
40,713504,final-intermixed-textured,v2,jsons/MX_seq48_0_VE250_flipped.json,http://54.235.29.9/FacialAge/BNav_EC2/DepthDuration/MX_fS_VE_MTurk/MX_fS_HTML.html#188,188,3440,1271,3440,1440,1-1-2024,16-45-38,41,VR_target_stimuli/s43_1.3x_2.2_363.png,250,1.3x,2.2,110,2353,258,meters,jsons/MX_seq48_0_VE250_flipped.json,190183,586214,25,Man
41,713504,final-intermixed-textured,v2,jsons/MX_seq48_0_VE250_flipped.json,http://54.235.29.9/FacialAge/BNav_EC2/DepthDuration/MX_fS_VE_MTurk/MX_fS_HTML.html#188,188,3440,1271,3440,1440,1-1-2024,16-45-38,42,VR_target_stimuli/s24_0.75x_3.3_344.png,250,0.75x,3.3,300,3752,256,meters,jsons/MX_seq48_0_VE250_flipped.json,190183,586214,25,Man
42,713504,final-intermixed-textured,v2,jsons/MX_seq48_0_VE250_flipped.json,http://54.235.29.9/FacialAge/BNav_EC2/DepthDuration/MX_fS_VE_MTurk/MX_fS_HTML.html#188,188,3440,1271,3440,1440,1-1-2024,16-45-38,43,VR_target_stimuli/s10_1x_2.7_324.png,250,1x,2.7,120,3530,253,meters,jsons/MX_seq48_0_VE250_flipped.json,190183,586214,25,Man
43,713504,final-intermixed-textured,v2,jsons/MX_seq48_0_VE250_flipped.json,http://54.235.29.9/FacialAge/BNav_EC2/DepthDuration/MX_fS_VE_MTurk/MX_fS_HTML.html#188,188,3440,1271,3440,1440,1-1-2024,16-45-38,44,VR_target_stimuli/s36_0.75x_4.1_407_BC.png,250,0.75x,4.1,110,2781,253,meters,jsons/MX_seq48_0_VE250_flipped.json,190183,586214,25,Man
44,713504,final-intermixed-textured,v2,jsons/MX_seq48_0_VE250_flipped.json,http://54.235.29.9/FacialAge/BNav_EC2/DepthDuration/MX_fS_VE_MTurk/MX_fS_HTML.html#188,188,3440,1271,3440,1440,1-1-2024,16-45-38,45,catch_stimuli/c4_BC.png,250,,,0,1797,245,meters,jsons/MX_seq48_0_VE250_flipped.json,190183,586214,25,Man
45,713504,final-intermixed-textured,v2,jsons/MX_seq48_0_VE250_flipped.json,http://54.235.29.9/FacialAge/BNav_EC2/DepthDuration/MX_fS_VE_MTurk/MX_fS_HTML.html#188,188,3440,1271,3440,1440,1-1-2024,16-45-38,46,VR_target_stimuli/s40_1.3x_1.2_332_BC.png,250,1.3x,1.2,120,1967,262,meters,jsons/MX_seq48_0_VE250_flipped.json,190183,586214,25,Man
46,713504,final-intermixed-textured,v2,jsons/MX_seq48_0_VE250_flipped.json,http://54.235.29.9/FacialAge/BNav_EC2/DepthDuration/MX_fS_VE_MTurk/MX_fS_HTML.html#188,188,3440,1271,3440,1440,1-1-2024,16-45-38,47,VR_target_stimuli/s41_1x_2.1_286_BC.png,250,1x,2.1,160,2070,251,meters,jsons/MX_seq48_0_VE250_flipped.json,190183,586214,25,Man
47,713504,final-intermixed-textured,v2,jsons/MX_seq48_0_VE250_flipped.json,http://54.235.29.9/FacialAge/BNav_EC2/DepthDuration/MX_fS_VE_MTurk/MX_fS_HTML.html#188,188,3440,1271,3440,1440,1-1-2024,16-45-38,48,VR_target_stimuli/s45_1x_3.5_368.png,250,1x,3.5,105,5170,257,meters,jsons/MX_seq48_0_VE250_flipped.json,190183,586214,25,Man
48,713504,final-intermixed-textured,v2,jsons/MX_seq48_0_VE250_flipped.json,http://54.235.29.9/FacialAge/BNav_EC2/DepthDuration/MX_fS_VE_MTurk/MX_fS_HTML.html#188,188,3440,1271,3440,1440,1-1-2024,16-45-38,49,VR_target_stimuli/s23_0.75x_3.65_351_BC.png,250,0.75x,3.65,120,2564,256,meters,jsons/MX_seq48_0_VE250_flipped.json,190183,586214,25,Man
49,713504,final-intermixed-textured,v2,jsons/MX_seq48_0_VE250_flipped.json,http://54.235.29.9/FacialAge/BNav_EC2/DepthDuration/MX_fS_VE_MTurk/MX_fS_HTML.html#188,188,3440,1271,3440,1440,1-1-2024,16-45-38,50,VR_target_stimuli/s26_1.3x_4_441_BC.png,250,1.3x,4.0,160,2524,246,meters,jsons/MX_seq48_0_VE250_flipped.json,190183,586214,25,Man
50,713504,final-intermixed-textured,v2,jsons/MX_seq48_0_VE250_flipped.json,http://54.235.29.9/FacialAge/BNav_EC2/DepthDuration/MX_fS_VE_MTurk/MX_fS_HTML.html#188,188,3440,1271,3440,1440,1-1-2024,16-45-38,51,VR_target_stimuli/s12_0.75x_3.1_364.png,250,0.75x,3.1,240,2362,248,meters,jsons/MX_seq48_0_VE250_flipped.json,190183,586214,25,Man
51,713504,final-intermixed-textured,v2,jsons/MX_seq48_0_VE250_flipped.json,http://54.235.29.9/FacialAge/BNav_EC2/DepthDuration/MX_fS_VE_MTurk/MX_fS_HTML.html#188,188,3440,1271,3440,1440,1-1-2024,16-45-38,52,VR_target_stimuli/s30_1x_2.3_334_BC.png,250,1x,2.3,220,2370,250,meters,jsons/MX_seq48_0_VE250_flipped.json,190183,586214,25,Man
52,713504,final-intermixed-textured,v2,jsons/MX_seq48_0_VE250_flipped.json,http://54.235.29.9/FacialAge/BNav_EC2/DepthDuration/MX_fS_VE_MTurk/MX_fS_HTML.html#188,188,3440,1271,3440,1440,1-1-2024,16-45-38,53,catch_stimuli/c5_BC.png,250,,,0,1499,251,meters,jsons/MX_seq48_0_VE250_flipped.json,190183,586214,25,Man
53,713504,final-intermixed-textured,v2,jsons/MX_seq48_0_VE250_flipped.json,http://54.235.29.9/FacialAge/BNav_EC2/DepthDuration/MX_fS_VE_MTurk/MX_fS_HTML.html#188,188,3440,1271,3440,1440,1-1-2024,16-45-38,54,VR_target_stimuli/s16_1.3x_1_223.png,250,1.3x,1.0,160,2708,251,meters,jsons/MX_seq48_0_VE250_flipped.json,190183,586214,25,Man
54,713504,final-intermixed-textured,v2,jsons/MX_seq48_0_VE250_flipped.json,http://54.235.29.9/FacialAge/BNav_EC2/DepthDuration/MX_fS_VE_MTurk/MX_fS_HTML.html#188,188,3440,1271,3440,1440,1-1-2024,16-45-38,55,VR_target_stimuli/s17_1x_1.8_291.png,250,1x,1.8,140,2506,237,meters,jsons/MX_seq48_0_VE250_flipped.json,190183,586214,25,Man
55,713504,final-intermixed-textured,v2,jsons/MX_seq48_0_VE250_flipped.json,http://54.235.29.9/FacialAge/BNav_EC2/DepthDuration/MX_fS_VE_MTurk/MX_fS_HTML.html#188,188,3440,1271,3440,1440,1-1-2024,16-45-38,56,VR_target_stimuli/s5_0.75x_4_375_BC.png,250,0.75x,4.0,120,2202,254,meters,jsons/MX_seq48_0_VE250_flipped.json,190183,586214,25,Man
56,713504,final-intermixed-textured,v2,jsons/MX_seq48_0_VE250_flipped.json,http://54.235.29.9/FacialAge/BNav_EC2/DepthDuration/MX_fS_VE_MTurk/MX_fS_HTML.html#188,188,3440,1271,3440,1440,1-1-2024,16-45-38,57,VR_target_stimuli/s37_1.3x_3.3_555_BC.png,250,1.3x,3.3,100,2004,252,meters,jsons/MX_seq48_0_VE250_flipped.json,190183,586214,25,Man
57,713504,final-intermixed-textured,v2,jsons/MX_seq48_0_VE250_flipped.json,http://54.235.29.9/FacialAge/BNav_EC2/DepthDuration/MX_fS_VE_MTurk/MX_fS_HTML.html#188,188,3440,1271,3440,1440,1-1-2024,16-45-38,58,VR_target_stimuli/s46_1.3x_2.42_354.png,250,1.3x,2.42,170,2078,252,meters,jsons/MX_seq48_0_VE250_flipped.json,190183,586214,25,Man
58,713504,final-intermixed-textured,v2,jsons/MX_seq48_0_VE250_flipped.json,http://54.235.29.9/FacialAge/BNav_EC2/DepthDuration/MX_fS_VE_MTurk/MX_fS_HTML.html#188,188,3440,1271,3440,1440,1-1-2024,16-45-38,59,VR_target_stimuli/s22_1x_4.29_354_BC.png,250,1x,4.29,190,3164,254,meters,jsons/MX_seq48_0_VE250_flipped.json,190183,586214,25,Man
59,713504,final-intermixed-textured,v2,jsons/MX_seq48_0_VE250_flipped.json,http://54.235.29.9/FacialAge/BNav_EC2/DepthDuration/MX_fS_VE_MTurk/MX_fS_HTML.html#188,188,3440,1271,3440,1440,1-1-2024,16-45-38,60,VR_target_stimuli/s42_0.75x_3.2_301.png,250,0.75x,3.2,215,3359,257,meters,jsons/MX_seq48_0_VE250_flipped.json,190183,586214,25,Man
