,subjID,experimentName,versionName,sequenceName,url,selected_row,windowWidth,windowHeight,screenWidth,screenHeight,startDate,startTime,trial,stimulus,duration,scale,actual_depth,depth_estimate,trial_RT,log_sceneDuration,unitSelection,seq_filepath,experimentTime,totalTime,age,gender
0,714180,final-intermixed-textured,v2,jsons/MX_seq25_1_VE250.json,http://54.235.29.9/FacialAge/BNav_EC2/DepthDuration/MX_fS_VE_MTurk/MX_fS_HTML.html#310,310,1920,919,1920,1080,1-1-2024,12-12-44,1,VR_target_stimuli/s52_1.3x_3.2_280.png,250,1.3x,3.2,9,4116,251,meters,jsons/MX_seq25_1_VE250.json,185220,305272,33,Woman
1,714180,final-intermixed-textured,v2,jsons/MX_seq25_1_VE250.json,http://54.235.29.9/FacialAge/BNav_EC2/DepthDuration/MX_fS_VE_MTurk/MX_fS_HTML.html#310,310,1920,919,1920,1080,1-1-2024,12-12-44,2,VR_target_stimuli/s32_0.75x_1.5_213.png,250,0.75x,1.5,8,3591,262,meters,jsons/MX_seq25_1_VE250.json,185220,305272,33,Woman
2,714180,final-intermixed-textured,v2,jsons/MX_seq25_1_VE250.json,http://54.235.29.9/FacialAge/BNav_EC2/DepthDuration/MX_fS_VE_MTurk/MX_fS_HTML.html#310,310,1920,919,1920,1080,1-1-2024,12-12-44,3,VR_target_stimuli/s18_1x_2.25_353_BC.png,250,1x,2.25,6,2657,252,meters,jsons/MX_seq25_1_VE250.json,185220,305272,33,Woman
3,714180,final-intermixed-textured,v2,jsons/MX_seq25_1_VE250.json,http://54.235.29.9/FacialAge/BNav_EC2/DepthDuration/MX_fS_VE_MTurk/MX_fS_HTML.html#310,310,1920,919,1920,1080,1-1-2024,12-12-44,4,VR_target_stimuli/s39_0.75x_1_205_BC.png,250,0.75x,1.0,4,2881,250,meters,jsons/MX_seq25_1_VE250.json,185220,305272,33,Woman
4,714180,final-intermixed-textured,v2,jsons/MX_seq25_1_VE250.json,http://54.235.29.9/FacialAge/BNav_EC2/DepthDuration/MX_fS_VE_MTurk/MX_fS_HTML.html#310,310,1920,919,1920,1080,1-1-2024,12-12-44,5,VR_target_stimuli/s51_1.3x_3.64_479_BC.png,250,1.3x,3.64,5,2687,249,meters,jsons/MX_seq25_1_VE250.json,185220,305272,33,Woman
5,714180,final-intermixed-textured,v2,jsons/MX_seq25_1_VE250.json,http://54.235.29.9/FacialAge/BNav_EC2/DepthDuration/MX_fS_VE_MTurk/MX_fS_HTML.html#310,310,1920,919,1920,1080,1-1-2024,12-12-44,6,VR_target_stimuli/s43_1x_2.2_354.png,250,1x,2.2,9,2584,249,meters,jsons/MX_seq25_1_VE250.json,185220,305272,33,Woman
6,714180,final-intermixed-textured,v2,jsons/MX_seq25_1_VE250.json,http://54.235.29.9/FacialAge/BNav_EC2/DepthDuration/MX_fS_VE_MTurk/MX_fS_HTML.html#310,310,1920,919,1920,1080,1-1-2024,12-12-44,7,catch_stimuli/c0.png,250,,,0,2614,252,meters,jsons/MX_seq25_1_VE250.json,185220,305272,33,Woman
7,714180,final-intermixed-textured,v2,jsons/MX_seq25_1_VE250.json,http://54.235.29.9/FacialAge/BNav_EC2/DepthDuration/MX_fS_VE_MTurk/MX_fS_HTML.html#310,310,1920,919,1920,1080,1-1-2024,12-12-44,8,VR_target_stimuli/s24_1x_3.3_349_BC.png,250,1x,3.3,10,3520,251,meters,jsons/MX_seq25_1_VE250.json,185220,305272,33,Woman
8,714180,final-intermixed-textured,v2,jsons/MX_seq25_1_VE250.json,http://54.235.29.9/FacialAge/BNav_EC2/DepthDuration/MX_fS_VE_MTurk/MX_fS_HTML.html#310,310,1920,919,1920,1080,1-1-2024,12-12-44,9,VR_target_stimuli/s10_0.75x_2.7_321.png,250,0.75x,2.7,11,2417,248,meters,jsons/MX_seq25_1_VE250.json,185220,305272,33,Woman
9,714180,final-intermixed-textured,v2,jsons/MX_seq25_1_VE250.json,http://54.235.29.9/FacialAge/BNav_EC2/DepthDuration/MX_fS_VE_MTurk/MX_fS_HTML.html#310,310,1920,919,1920,1080,1-1-2024,12-12-44,10,VR_target_stimuli/s36_1.3x_4.1_442.png,250,1.3x,4.1,12,2840,250,meters,jsons/MX_seq25_1_VE250.json,185220,305272,33,Woman
10,714180,final-intermixed-textured,v2,jsons/MX_seq25_1_VE250.json,http://54.235.29.9/FacialAge/BNav_EC2/DepthDuration/MX_fS_VE_MTurk/MX_fS_HTML.html#310,310,1920,919,1920,1080,1-1-2024,12-12-44,11,VR_target_stimuli/s40_0.75x_1.2_308_BC.png,250,0.75x,1.2,8,3165,248,meters,jsons/MX_seq25_1_VE250.json,185220,305272,33,Woman
11,714180,final-intermixed-textured,v2,jsons/MX_seq25_1_VE250.json,http://54.235.29.9/FacialAge/BNav_EC2/DepthDuration/MX_fS_VE_MTurk/MX_fS_HTML.html#310,310,1920,919,1920,1080,1-1-2024,12-12-44,12,VR_target_stimuli/s41_1x_2.1_286.png,250,1x,2.1,11,2639,250,meters,jsons/MX_seq25_1_VE250.json,185220,305272,33,Woman
12,714180,final-intermixed-textured,v2,jsons/MX_seq25_1_VE250.json,http://54.235.29.9/FacialAge/BNav_EC2/DepthDuration/MX_fS_VE_MTurk/MX_fS_HTML.html#310,310,1920,919,1920,1080,1-1-2024,12-12-44,13,VR_target_stimuli/s45_1.3x_3.5_377_BC.png,250,1.3x,3.5,11,3063,250,meters,jsons/MX_seq25_1_VE250.json,185220,305272,33,Woman
13,714180,final-intermixed-textured,v2,jsons/MX_seq25_1_VE250.json,http://54.235.29.9/FacialAge/BNav_EC2/DepthDuration/MX_fS_VE_MTurk/MX_fS_HTML.html#310,310,1920,919,1920,1080,1-1-2024,12-12-44,14,VR_target_stimuli/s23_1x_3.65_353_BC.png,250,1x,3.65,7,4221,254,meters,jsons/MX_seq25_1_VE250.json,185220,305272,33,Woman
14,714180,final-intermixed-textured,v2,jsons/MX_seq25_1_VE250.json,http://54.235.29.9/FacialAge/BNav_EC2/DepthDuration/MX_fS_VE_MTurk/MX_fS_HTML.html#310,310,1920,919,1920,1080,1-1-2024,12-12-44,15,VR_target_stimuli/s26_0.75x_4_430.png,250,0.75x,4.0,11,2540,237,meters,jsons/MX_seq25_1_VE250.json,185220,305272,33,Woman
15,714180,final-intermixed-textured,v2,jsons/MX_seq25_1_VE250.json,http://54.235.29.9/FacialAge/BNav_EC2/DepthDuration/MX_fS_VE_MTurk/MX_fS_HTML.html#310,310,1920,919,1920,1080,1-1-2024,12-12-44,16,VR_target_stimuli/s12_1.3x_3.1_375.png,250,1.3x,3.1,8,2461,251,meters,jsons/MX_seq25_1_VE250.json,185220,305272,33,Woman
16,714180,final-intermixed-textured,v2,jsons/MX_seq25_1_VE250.json,http://54.235.29.9/FacialAge/BNav_EC2/DepthDuration/MX_fS_VE_MTurk/MX_fS_HTML.html#310,310,1920,919,1920,1080,1-1-2024,12-12-44,17,catch_stimuli/c1.png,250,,,0,2345,249,meters,jsons/MX_seq25_1_VE250.json,185220,305272,33,Woman
17,714180,final-intermixed-textured,v2,jsons/MX_seq25_1_VE250.json,http://54.235.29.9/FacialAge/BNav_EC2/DepthDuration/MX_fS_VE_MTurk/MX_fS_HTML.html#310,310,1920,919,1920,1080,1-1-2024,12-12-44,18,VR_target_stimuli/s30_1.3x_2.3_337_BC.png,250,1.3x,2.3,6,2261,248,meters,jsons/MX_seq25_1_VE250.json,185220,305272,33,Woman
18,714180,final-intermixed-textured,v2,jsons/MX_seq25_1_VE250.json,http://54.235.29.9/FacialAge/BNav_EC2/DepthDuration/MX_fS_VE_MTurk/MX_fS_HTML.html#310,310,1920,919,1920,1080,1-1-2024,12-12-44,19,VR_target_stimuli/s16_1x_1_219.png,250,1x,1.0,5,2308,249,meters,jsons/MX_seq25_1_VE250.json,185220,305272,33,Woman
19,714180,final-intermixed-textured,v2,jsons/MX_seq25_1_VE250.json,http://54.235.29.9/FacialAge/BNav_EC2/DepthDuration/MX_fS_VE_MTurk/MX_fS_HTML.html#310,310,1920,919,1920,1080,1-1-2024,12-12-44,20,VR_target_stimuli/s17_0.75x_1.8_285_BC.png,250,0.75x,1.8,5,2554,250,meters,jsons/MX_seq25_1_VE250.json,185220,305272,33,Woman
20,714180,final-intermixed-textured,v2,jsons/MX_seq25_1_VE250.json,http://54.235.29.9/FacialAge/BNav_EC2/DepthDuration/MX_fS_VE_MTurk/MX_fS_HTML.html#310,310,1920,919,1920,1080,1-1-2024,12-12-44,21,VR_target_stimuli/s5_1x_4_378_BC.png,250,1x,4.0,7,2514,253,meters,jsons/MX_seq25_1_VE250.json,185220,305272,33,Woman
21,714180,final-intermixed-textured,v2,jsons/MX_seq25_1_VE250.json,http://54.235.29.9/FacialAge/BNav_EC2/DepthDuration/MX_fS_VE_MTurk/MX_fS_HTML.html#310,310,1920,919,1920,1080,1-1-2024,12-12-44,22,VR_target_stimuli/s37_1.3x_3.3_555.png,250,1.3x,3.3,6,2589,250,meters,jsons/MX_seq25_1_VE250.json,185220,305272,33,Woman
22,714180,final-intermixed-textured,v2,jsons/MX_seq25_1_VE250.json,http://54.235.29.9/FacialAge/BNav_EC2/DepthDuration/MX_fS_VE_MTurk/MX_fS_HTML.html#310,310,1920,919,1920,1080,1-1-2024,12-12-44,23,VR_target_stimuli/s46_0.75x_2.42_343.png,250,0.75x,2.42,7,2630,261,meters,jsons/MX_seq25_1_VE250.json,185220,305272,33,Woman
23,714180,final-intermixed-textured,v2,jsons/MX_seq25_1_VE250.json,http://54.235.29.9/FacialAge/BNav_EC2/DepthDuration/MX_fS_VE_MTurk/MX_fS_HTML.html#310,310,1920,919,1920,1080,1-1-2024,12-12-44,24,VR_target_stimuli/s22_1.3x_4.29_364_BC.png,250,1.3x,4.29,8,2168,250,meters,jsons/MX_seq25_1_VE250.json,185220,305272,33,Woman
24,714180,final-intermixed-textured,v2,jsons/MX_seq25_1_VE250.json,http://54.235.29.9/FacialAge/BNav_EC2/DepthDuration/MX_fS_VE_MTurk/MX_fS_HTML.html#310,310,1920,919,1920,1080,1-1-2024,12-12-44,25,VR_target_stimuli/s42_1x_3.2_303.png,250,1x,3.2,8,2252,249,meters,jsons/MX_seq25_1_VE250.json,185220,305272,33,Woman
25,714180,final-intermixed-textured,v2,jsons/MX_seq25_1_VE250.json,http://54.235.29.9/FacialAge/BNav_EC2/DepthDuration/MX_fS_VE_MTurk/MX_fS_HTML.html#310,310,1920,919,1920,1080,1-1-2024,12-12-44,26,catch_stimuli/c2.png,250,,,0,2384,249,meters,jsons/MX_seq25_1_VE250.json,185220,305272,33,Woman
26,714180,final-intermixed-textured,v2,jsons/MX_seq25_1_VE250.json,http://54.235.29.9/FacialAge/BNav_EC2/DepthDuration/MX_fS_VE_MTurk/MX_fS_HTML.html#310,310,1920,919,1920,1080,1-1-2024,12-12-44,27,VR_target_stimuli/s25_0.75x_1.4_281_BC.png,250,0.75x,1.4,5,2371,250,meters,jsons/MX_seq25_1_VE250.json,185220,305272,33,Woman
27,714180,final-intermixed-textured,v2,jsons/MX_seq25_1_VE250.json,http://54.235.29.9/FacialAge/BNav_EC2/DepthDuration/MX_fS_VE_MTurk/MX_fS_HTML.html#310,310,1920,919,1920,1080,1-1-2024,12-12-44,28,VR_target_stimuli/s50_0.75x_4.53_517_BC.png,250,0.75x,4.53,7,2310,252,meters,jsons/MX_seq25_1_VE250.json,185220,305272,33,Woman
28,714180,final-intermixed-textured,v2,jsons/MX_seq25_1_VE250.json,http://54.235.29.9/FacialAge/BNav_EC2/DepthDuration/MX_fS_VE_MTurk/MX_fS_HTML.html#310,310,1920,919,1920,1080,1-1-2024,12-12-44,29,VR_target_stimuli/s53_1.3x_1.6_355.png,250,1.3x,1.6,2,2253,253,meters,jsons/MX_seq25_1_VE250.json,185220,305272,33,Woman
29,714180,final-intermixed-textured,v2,jsons/MX_seq25_1_VE250.json,http://54.235.29.9/FacialAge/BNav_EC2/DepthDuration/MX_fS_VE_MTurk/MX_fS_HTML.html#310,310,1920,919,1920,1080,1-1-2024,12-12-44,30,VR_target_stimuli/s38_1x_3.55_353_BC.png,250,1x,3.55,4,2478,250,meters,jsons/MX_seq25_1_VE250.json,185220,305272,33,Woman
30,714180,final-intermixed-textured,v2,jsons/MX_seq25_1_VE250.json,http://54.235.29.9/FacialAge/BNav_EC2/DepthDuration/MX_fS_VE_MTurk/MX_fS_HTML.html#310,310,1920,919,1920,1080,1-1-2024,12-12-44,31,VR_target_stimuli/s9_0.75x_1.2_260.png,250,0.75x,1.2,2,2298,245,meters,jsons/MX_seq25_1_VE250.json,185220,305272,33,Woman
31,714180,final-intermixed-textured,v2,jsons/MX_seq25_1_VE250.json,http://54.235.29.9/FacialAge/BNav_EC2/DepthDuration/MX_fS_VE_MTurk/MX_fS_HTML.html#310,310,1920,919,1920,1080,1-1-2024,12-12-44,32,VR_target_stimuli/s44_1x_4.4_317.png,250,1x,4.4,4,2355,253,meters,jsons/MX_seq25_1_VE250.json,185220,305272,33,Woman
32,714180,final-intermixed-textured,v2,jsons/MX_seq25_1_VE250.json,http://54.235.29.9/FacialAge/BNav_EC2/DepthDuration/MX_fS_VE_MTurk/MX_fS_HTML.html#310,310,1920,919,1920,1080,1-1-2024,12-12-44,33,VR_target_stimuli/s3_1.3x_5_390_BC.png,250,1.3x,5.0,5,2244,260,meters,jsons/MX_seq25_1_VE250.json,185220,305272,33,Woman
33,714180,final-intermixed-textured,v2,jsons/MX_seq25_1_VE250.json,http://54.235.29.9/FacialAge/BNav_EC2/DepthDuration/MX_fS_VE_MTurk/MX_fS_HTML.html#310,310,1920,919,1920,1080,1-1-2024,12-12-44,34,catch_stimuli/c3.png,250,,,0,2797,260,meters,jsons/MX_seq25_1_VE250.json,185220,305272,33,Woman
34,714180,final-intermixed-textured,v2,jsons/MX_seq25_1_VE250.json,http://54.235.29.9/FacialAge/BNav_EC2/DepthDuration/MX_fS_VE_MTurk/MX_fS_HTML.html#310,310,1920,919,1920,1080,1-1-2024,12-12-44,35,VR_target_stimuli/s1_1x_1.7_262_BC.png,250,1x,1.7,2,2499,253,meters,jsons/MX_seq25_1_VE250.json,185220,305272,33,Woman
35,714180,final-intermixed-textured,v2,jsons/MX_seq25_1_VE250.json,http://54.235.29.9/FacialAge/BNav_EC2/DepthDuration/MX_fS_VE_MTurk/MX_fS_HTML.html#310,310,1920,919,1920,1080,1-1-2024,12-12-44,36,VR_target_stimuli/s11_0.75x_5_359.png,250,0.75x,5.0,4,2479,256,meters,jsons/MX_seq25_1_VE250.json,185220,305272,33,Woman
36,714180,final-intermixed-textured,v2,jsons/MX_seq25_1_VE250.json,http://54.235.29.9/FacialAge/BNav_EC2/DepthDuration/MX_fS_VE_MTurk/MX_fS_HTML.html#310,310,1920,919,1920,1080,1-1-2024,12-12-44,37,VR_target_stimuli/s2_1.3x_2.7_397_BC.png,250,1.3x,2.7,3,2276,248,meters,jsons/MX_seq25_1_VE250.json,185220,305272,33,Woman
37,714180,final-intermixed-textured,v2,jsons/MX_seq25_1_VE250.json,http://54.235.29.9/FacialAge/BNav_EC2/DepthDuration/MX_fS_VE_MTurk/MX_fS_HTML.html#310,310,1920,919,1920,1080,1-1-2024,12-12-44,38,VR_target_stimuli/s6_1.3x_2.1_298.png,250,1.3x,2.1,4,2308,249,meters,jsons/MX_seq25_1_VE250.json,185220,305272,33,Woman
38,714180,final-intermixed-textured,v2,jsons/MX_seq25_1_VE250.json,http://54.235.29.9/FacialAge/BNav_EC2/DepthDuration/MX_fS_VE_MTurk/MX_fS_HTML.html#310,310,1920,919,1920,1080,1-1-2024,12-12-44,39,VR_target_stimuli/s0_1x_2.6_351.png,250,1x,2.6,4,2368,249,meters,jsons/MX_seq25_1_VE250.json,185220,305272,33,Woman
39,714180,final-intermixed-textured,v2,jsons/MX_seq25_1_VE250.json,http://54.235.29.9/FacialAge/BNav_EC2/DepthDuration/MX_fS_VE_MTurk/MX_fS_HTML.html#310,310,1920,919,1920,1080,1-1-2024,12-12-44,40,VR_target_stimuli/s34_0.75x_2.8_269_BC.png,250,0.75x,2.8,5,2877,248,meters,jsons/MX_seq25_1_VE250.json,185220,305272,33,Woman
40,714180,final-intermixed-textured,v2,jsons/MX_seq25_1_VE250.json,http://54.235.29.9/FacialAge/BNav_EC2/DepthDuration/MX_fS_VE_MTurk/MX_fS_HTML.html#310,310,1920,919,1920,1080,1-1-2024,12-12-44,41,VR_target_stimuli/s13_1x_2.4_310.png,250,1x,2.4,3,2438,249,meters,jsons/MX_seq25_1_VE250.json,185220,305272,33,Woman
41,714180,final-intermixed-textured,v2,jsons/MX_seq25_1_VE250.json,http://54.235.29.9/FacialAge/BNav_EC2/DepthDuration/MX_fS_VE_MTurk/MX_fS_HTML.html#310,310,1920,919,1920,1080,1-1-2024,12-12-44,42,VR_target_stimuli/s14_1.3x_3.83_359_BC.png,250,1.3x,3.83,4,2283,240,meters,jsons/MX_seq25_1_VE250.json,185220,305272,33,Woman
42,714180,final-intermixed-textured,v2,jsons/MX_seq25_1_VE250.json,http://54.235.29.9/FacialAge/BNav_EC2/DepthDuration/MX_fS_VE_MTurk/MX_fS_HTML.html#310,310,1920,919,1920,1080,1-1-2024,12-12-44,43,VR_target_stimuli/s47_0.75x_3.45_366_BC.png,250,0.75x,3.45,5,2184,250,meters,jsons/MX_seq25_1_VE250.json,185220,305272,33,Woman
43,714180,final-intermixed-textured,v2,jsons/MX_seq25_1_VE250.json,http://54.235.29.9/FacialAge/BNav_EC2/DepthDuration/MX_fS_VE_MTurk/MX_fS_HTML.html#310,310,1920,919,1920,1080,1-1-2024,12-12-44,44,VR_target_stimuli/s29_1.3x_1.3_253.png,250,1.3x,1.3,5,2348,252,meters,jsons/MX_seq25_1_VE250.json,185220,305272,33,Woman
44,714180,final-intermixed-textured,v2,jsons/MX_seq25_1_VE250.json,http://54.235.29.9/FacialAge/BNav_EC2/DepthDuration/MX_fS_VE_MTurk/MX_fS_HTML.html#310,310,1920,919,1920,1080,1-1-2024,12-12-44,45,catch_stimuli/c4.png,250,,,0,2340,260,meters,jsons/MX_seq25_1_VE250.json,185220,305272,33,Woman
45,714180,final-intermixed-textured,v2,jsons/MX_seq25_1_VE250.json,http://54.235.29.9/FacialAge/BNav_EC2/DepthDuration/MX_fS_VE_MTurk/MX_fS_HTML.html#310,310,1920,919,1920,1080,1-1-2024,12-12-44,46,VR_target_stimuli/s28_1x_3.2_362_BC.png,250,1x,3.2,4,2585,244,meters,jsons/MX_seq25_1_VE250.json,185220,305272,33,Woman
46,714180,final-intermixed-textured,v2,jsons/MX_seq25_1_VE250.json,http://54.235.29.9/FacialAge/BNav_EC2/DepthDuration/MX_fS_VE_MTurk/MX_fS_HTML.html#310,310,1920,919,1920,1080,1-1-2024,12-12-44,47,VR_target_stimuli/s48_0.75x_2.55_243.png,250,0.75x,2.55,5,2241,244,meters,jsons/MX_seq25_1_VE250.json,185220,305272,33,Woman
47,714180,final-intermixed-textured,v2,jsons/MX_seq25_1_VE250.json,http://54.235.29.9/FacialAge/BNav_EC2/DepthDuration/MX_fS_VE_MTurk/MX_fS_HTML.html#310,310,1920,919,1920,1080,1-1-2024,12-12-44,48,VR_target_stimuli/s19_0.75x_1.21_257_BC.png,250,0.75x,1.21,4,2047,239,meters,jsons/MX_seq25_1_VE250.json,185220,305272,33,Woman
48,714180,final-intermixed-textured,v2,jsons/MX_seq25_1_VE250.json,http://54.235.29.9/FacialAge/BNav_EC2/DepthDuration/MX_fS_VE_MTurk/MX_fS_HTML.html#310,310,1920,919,1920,1080,1-1-2024,12-12-44,49,VR_target_stimuli/s21_1.3x_4.22_384_BC.png,250,1.3x,4.22,7,2277,248,meters,jsons/MX_seq25_1_VE250.json,185220,305272,33,Woman
49,714180,final-intermixed-textured,v2,jsons/MX_seq25_1_VE250.json,http://54.235.29.9/FacialAge/BNav_EC2/DepthDuration/MX_fS_VE_MTurk/MX_fS_HTML.html#310,310,1920,919,1920,1080,1-1-2024,12-12-44,50,VR_target_stimuli/s8_1x_3.1_332_BC.png,250,1x,3.1,5,4378,250,meters,jsons/MX_seq25_1_VE250.json,185220,305272,33,Woman
50,714180,final-intermixed-textured,v2,jsons/MX_seq25_1_VE250.json,http://54.235.29.9/FacialAge/BNav_EC2/DepthDuration/MX_fS_VE_MTurk/MX_fS_HTML.html#310,310,1920,919,1920,1080,1-1-2024,12-12-44,51,VR_target_stimuli/s27_1.3x_1.76_250.png,250,1.3x,1.76,4,2207,249,meters,jsons/MX_seq25_1_VE250.json,185220,305272,33,Woman
51,714180,final-intermixed-textured,v2,jsons/MX_seq25_1_VE250.json,http://54.235.29.9/FacialAge/BNav_EC2/DepthDuration/MX_fS_VE_MTurk/MX_fS_HTML.html#310,310,1920,919,1920,1080,1-1-2024,12-12-44,52,VR_target_stimuli/s15_0.75x_4.2_388.png,250,0.75x,4.2,9,2435,250,meters,jsons/MX_seq25_1_VE250.json,185220,305272,33,Woman
52,714180,final-intermixed-textured,v2,jsons/MX_seq25_1_VE250.json,http://54.235.29.9/FacialAge/BNav_EC2/DepthDuration/MX_fS_VE_MTurk/MX_fS_HTML.html#310,310,1920,919,1920,1080,1-1-2024,12-12-44,53,catch_stimuli/c5.png,250,,,0,2459,260,meters,jsons/MX_seq25_1_VE250.json,185220,305272,33,Woman
53,714180,final-intermixed-textured,v2,jsons/MX_seq25_1_VE250.json,http://54.235.29.9/FacialAge/BNav_EC2/DepthDuration/MX_fS_VE_MTurk/MX_fS_HTML.html#310,310,1920,919,1920,1080,1-1-2024,12-12-44,54,VR_target_stimuli/s4_1x_1.4_313.png,250,1x,1.4,4,2356,258,meters,jsons/MX_seq25_1_VE250.json,185220,305272,33,Woman
54,714180,final-intermixed-textured,v2,jsons/MX_seq25_1_VE250.json,http://54.235.29.9/FacialAge/BNav_EC2/DepthDuration/MX_fS_VE_MTurk/MX_fS_HTML.html#310,310,1920,919,1920,1080,1-1-2024,12-12-44,55,VR_target_stimuli/s35_0.75x_2_323.png,250,0.75x,2.0,5,2402,249,meters,jsons/MX_seq25_1_VE250.json,185220,305272,33,Woman
55,714180,final-intermixed-textured,v2,jsons/MX_seq25_1_VE250.json,http://54.235.29.9/FacialAge/BNav_EC2/DepthDuration/MX_fS_VE_MTurk/MX_fS_HTML.html#310,310,1920,919,1920,1080,1-1-2024,12-12-44,56,VR_target_stimuli/s49_1.3x_4.67_354.png,250,1.3x,4.67,6,2511,264,meters,jsons/MX_seq25_1_VE250.json,185220,305272,33,Woman
56,714180,final-intermixed-textured,v2,jsons/MX_seq25_1_VE250.json,http://54.235.29.9/FacialAge/BNav_EC2/DepthDuration/MX_fS_VE_MTurk/MX_fS_HTML.html#310,310,1920,919,1920,1080,1-1-2024,12-12-44,57,VR_target_stimuli/s7_1x_1.5_255.png,250,1x,1.5,4,2637,249,meters,jsons/MX_seq25_1_VE250.json,185220,305272,33,Woman
57,714180,final-intermixed-textured,v2,jsons/MX_seq25_1_VE250.json,http://54.235.29.9/FacialAge/BNav_EC2/DepthDuration/MX_fS_VE_MTurk/MX_fS_HTML.html#310,310,1920,919,1920,1080,1-1-2024,12-12-44,58,VR_target_stimuli/s20_1x_4.99_398_BC.png,250,1x,4.99,7,2212,252,meters,jsons/MX_seq25_1_VE250.json,185220,305272,33,Woman
58,714180,final-intermixed-textured,v2,jsons/MX_seq25_1_VE250.json,http://54.235.29.9/FacialAge/BNav_EC2/DepthDuration/MX_fS_VE_MTurk/MX_fS_HTML.html#310,310,1920,919,1920,1080,1-1-2024,12-12-44,59,VR_target_stimuli/s31_0.75x_4.96_329_BC.png,250,0.75x,4.96,7,2147,250,meters,jsons/MX_seq25_1_VE250.json,185220,305272,33,Woman
59,714180,final-intermixed-textured,v2,jsons/MX_seq25_1_VE250.json,http://54.235.29.9/FacialAge/BNav_EC2/DepthDuration/MX_fS_VE_MTurk/MX_fS_HTML.html#310,310,1920,919,1920,1080,1-1-2024,12-12-44,60,VR_target_stimuli/s33_1.3x_3.1_378_BC.png,250,1.3x,3.1,7,2418,255,meters,jsons/MX_seq25_1_VE250.json,185220,305272,33,Woman
