,subjID,experimentName,versionName,sequenceName,url,selected_row,windowWidth,windowHeight,screenWidth,screenHeight,startDate,startTime,trial,stimulus,duration,scale,actual_depth,depth_estimate,trial_RT,log_sceneDuration,unitSelection,seq_filepath,experimentTime,totalTime,age,gender
0,715929,final-intermixed-textured,v2,jsons/MX_seq36_0_VE250.json,http://54.235.29.9/FacialAge/BNav_EC2/DepthDuration/MX_fS_VE_MTurk/MX_fS_HTML.html#147,147,1920,1080,1920,1080,0-31-2024,15-7-48,1,VR_target_stimuli/s45_0.75x_3.5_362.png,250,0.75x,3.5,5.0,3220,249,meters,jsons/MX_seq36_0_VE250.json,277923,492480,24,Woman
1,715929,final-intermixed-textured,v2,jsons/MX_seq36_0_VE250.json,http://54.235.29.9/FacialAge/BNav_EC2/DepthDuration/MX_fS_VE_MTurk/MX_fS_HTML.html#147,147,1920,1080,1920,1080,0-31-2024,15-7-48,2,VR_target_stimuli/s23_1x_3.65_353.png,250,1x,3.65,4.0,4250,247,meters,jsons/MX_seq36_0_VE250.json,277923,492480,24,Woman
2,715929,final-intermixed-textured,v2,jsons/MX_seq36_0_VE250.json,http://54.235.29.9/FacialAge/BNav_EC2/DepthDuration/MX_fS_VE_MTurk/MX_fS_HTML.html#147,147,1920,1080,1920,1080,0-31-2024,15-7-48,3,VR_target_stimuli/s26_1.3x_4_441.png,250,1.3x,4.0,5.0,5169,249,meters,jsons/MX_seq36_0_VE250.json,277923,492480,24,Woman
3,715929,final-intermixed-textured,v2,jsons/MX_seq36_0_VE250.json,http://54.235.29.9/FacialAge/BNav_EC2/DepthDuration/MX_fS_VE_MTurk/MX_fS_HTML.html#147,147,1920,1080,1920,1080,0-31-2024,15-7-48,4,VR_target_stimuli/s12_1x_3.1_372_BC.png,250,1x,3.1,3.0,4939,250,meters,jsons/MX_seq36_0_VE250.json,277923,492480,24,Woman
4,715929,final-intermixed-textured,v2,jsons/MX_seq36_0_VE250.json,http://54.235.29.9/FacialAge/BNav_EC2/DepthDuration/MX_fS_VE_MTurk/MX_fS_HTML.html#147,147,1920,1080,1920,1080,0-31-2024,15-7-48,5,VR_target_stimuli/s30_0.75x_2.3_332_BC.png,250,0.75x,2.3,2.0,2389,252,meters,jsons/MX_seq36_0_VE250.json,277923,492480,24,Woman
5,715929,final-intermixed-textured,v2,jsons/MX_seq36_0_VE250.json,http://54.235.29.9/FacialAge/BNav_EC2/DepthDuration/MX_fS_VE_MTurk/MX_fS_HTML.html#147,147,1920,1080,1920,1080,0-31-2024,15-7-48,6,VR_target_stimuli/s16_1.3x_1_223_BC.png,250,1.3x,1.0,1.5,14023,246,meters,jsons/MX_seq36_0_VE250.json,277923,492480,24,Woman
6,715929,final-intermixed-textured,v2,jsons/MX_seq36_0_VE250.json,http://54.235.29.9/FacialAge/BNav_EC2/DepthDuration/MX_fS_VE_MTurk/MX_fS_HTML.html#147,147,1920,1080,1920,1080,0-31-2024,15-7-48,7,catch_stimuli/c0.png,250,,,0.0,4620,262,meters,jsons/MX_seq36_0_VE250.json,277923,492480,24,Woman
7,715929,final-intermixed-textured,v2,jsons/MX_seq36_0_VE250.json,http://54.235.29.9/FacialAge/BNav_EC2/DepthDuration/MX_fS_VE_MTurk/MX_fS_HTML.html#147,147,1920,1080,1920,1080,0-31-2024,15-7-48,8,VR_target_stimuli/s17_1.3x_1.8_300_BC.png,250,1.3x,1.8,2.0,2264,248,meters,jsons/MX_seq36_0_VE250.json,277923,492480,24,Woman
8,715929,final-intermixed-textured,v2,jsons/MX_seq36_0_VE250.json,http://54.235.29.9/FacialAge/BNav_EC2/DepthDuration/MX_fS_VE_MTurk/MX_fS_HTML.html#147,147,1920,1080,1920,1080,0-31-2024,15-7-48,9,VR_target_stimuli/s5_1x_4_378.png,250,1x,4.0,4.0,2157,251,meters,jsons/MX_seq36_0_VE250.json,277923,492480,24,Woman
9,715929,final-intermixed-textured,v2,jsons/MX_seq36_0_VE250.json,http://54.235.29.9/FacialAge/BNav_EC2/DepthDuration/MX_fS_VE_MTurk/MX_fS_HTML.html#147,147,1920,1080,1920,1080,0-31-2024,15-7-48,10,VR_target_stimuli/s37_0.75x_3.3_567.png,250,0.75x,3.3,3.0,3017,249,meters,jsons/MX_seq36_0_VE250.json,277923,492480,24,Woman
10,715929,final-intermixed-textured,v2,jsons/MX_seq36_0_VE250.json,http://54.235.29.9/FacialAge/BNav_EC2/DepthDuration/MX_fS_VE_MTurk/MX_fS_HTML.html#147,147,1920,1080,1920,1080,0-31-2024,15-7-48,11,VR_target_stimuli/s46_1x_2.42_348_BC.png,250,1x,2.42,5.0,2712,250,meters,jsons/MX_seq36_0_VE250.json,277923,492480,24,Woman
11,715929,final-intermixed-textured,v2,jsons/MX_seq36_0_VE250.json,http://54.235.29.9/FacialAge/BNav_EC2/DepthDuration/MX_fS_VE_MTurk/MX_fS_HTML.html#147,147,1920,1080,1920,1080,0-31-2024,15-7-48,12,VR_target_stimuli/s22_1.3x_4.29_364.png,250,1.3x,4.29,6.0,2164,250,meters,jsons/MX_seq36_0_VE250.json,277923,492480,24,Woman
12,715929,final-intermixed-textured,v2,jsons/MX_seq36_0_VE250.json,http://54.235.29.9/FacialAge/BNav_EC2/DepthDuration/MX_fS_VE_MTurk/MX_fS_HTML.html#147,147,1920,1080,1920,1080,0-31-2024,15-7-48,13,VR_target_stimuli/s42_0.75x_3.2_301_BC.png,250,0.75x,3.2,3.0,4082,253,meters,jsons/MX_seq36_0_VE250.json,277923,492480,24,Woman
13,715929,final-intermixed-textured,v2,jsons/MX_seq36_0_VE250.json,http://54.235.29.9/FacialAge/BNav_EC2/DepthDuration/MX_fS_VE_MTurk/MX_fS_HTML.html#147,147,1920,1080,1920,1080,0-31-2024,15-7-48,14,VR_target_stimuli/s25_1.3x_1.4_299.png,250,1.3x,1.4,1.0,4608,249,meters,jsons/MX_seq36_0_VE250.json,277923,492480,24,Woman
14,715929,final-intermixed-textured,v2,jsons/MX_seq36_0_VE250.json,http://54.235.29.9/FacialAge/BNav_EC2/DepthDuration/MX_fS_VE_MTurk/MX_fS_HTML.html#147,147,1920,1080,1920,1080,0-31-2024,15-7-48,15,VR_target_stimuli/s50_1x_4.53_518.png,250,1x,4.53,2.0,2920,263,meters,jsons/MX_seq36_0_VE250.json,277923,492480,24,Woman
15,715929,final-intermixed-textured,v2,jsons/MX_seq36_0_VE250.json,http://54.235.29.9/FacialAge/BNav_EC2/DepthDuration/MX_fS_VE_MTurk/MX_fS_HTML.html#147,147,1920,1080,1920,1080,0-31-2024,15-7-48,16,VR_target_stimuli/s53_0.75x_1.6_403.png,250,0.75x,1.6,0.5,5793,250,meters,jsons/MX_seq36_0_VE250.json,277923,492480,24,Woman
16,715929,final-intermixed-textured,v2,jsons/MX_seq36_0_VE250.json,http://54.235.29.9/FacialAge/BNav_EC2/DepthDuration/MX_fS_VE_MTurk/MX_fS_HTML.html#147,147,1920,1080,1920,1080,0-31-2024,15-7-48,17,catch_stimuli/c1.png,250,,,0.0,1937,247,meters,jsons/MX_seq36_0_VE250.json,277923,492480,24,Woman
17,715929,final-intermixed-textured,v2,jsons/MX_seq36_0_VE250.json,http://54.235.29.9/FacialAge/BNav_EC2/DepthDuration/MX_fS_VE_MTurk/MX_fS_HTML.html#147,147,1920,1080,1920,1080,0-31-2024,15-7-48,18,VR_target_stimuli/s38_0.75x_3.55_346_BC.png,250,0.75x,3.55,2.0,2221,250,meters,jsons/MX_seq36_0_VE250.json,277923,492480,24,Woman
18,715929,final-intermixed-textured,v2,jsons/MX_seq36_0_VE250.json,http://54.235.29.9/FacialAge/BNav_EC2/DepthDuration/MX_fS_VE_MTurk/MX_fS_HTML.html#147,147,1920,1080,1920,1080,0-31-2024,15-7-48,19,VR_target_stimuli/s9_1.3x_1.2_276_BC.png,250,1.3x,1.2,0.5,5128,250,meters,jsons/MX_seq36_0_VE250.json,277923,492480,24,Woman
19,715929,final-intermixed-textured,v2,jsons/MX_seq36_0_VE250.json,http://54.235.29.9/FacialAge/BNav_EC2/DepthDuration/MX_fS_VE_MTurk/MX_fS_HTML.html#147,147,1920,1080,1920,1080,0-31-2024,15-7-48,20,VR_target_stimuli/s44_1x_4.4_317_BC.png,250,1x,4.4,3.0,1968,250,meters,jsons/MX_seq36_0_VE250.json,277923,492480,24,Woman
20,715929,final-intermixed-textured,v2,jsons/MX_seq36_0_VE250.json,http://54.235.29.9/FacialAge/BNav_EC2/DepthDuration/MX_fS_VE_MTurk/MX_fS_HTML.html#147,147,1920,1080,1920,1080,0-31-2024,15-7-48,21,VR_target_stimuli/s3_1.3x_5_390.png,250,1.3x,5.0,4.0,2269,251,meters,jsons/MX_seq36_0_VE250.json,277923,492480,24,Woman
21,715929,final-intermixed-textured,v2,jsons/MX_seq36_0_VE250.json,http://54.235.29.9/FacialAge/BNav_EC2/DepthDuration/MX_fS_VE_MTurk/MX_fS_HTML.html#147,147,1920,1080,1920,1080,0-31-2024,15-7-48,22,VR_target_stimuli/s1_0.75x_1.7_265_BC.png,250,0.75x,1.7,2.0,1842,253,meters,jsons/MX_seq36_0_VE250.json,277923,492480,24,Woman
22,715929,final-intermixed-textured,v2,jsons/MX_seq36_0_VE250.json,http://54.235.29.9/FacialAge/BNav_EC2/DepthDuration/MX_fS_VE_MTurk/MX_fS_HTML.html#147,147,1920,1080,1920,1080,0-31-2024,15-7-48,23,VR_target_stimuli/s11_1x_5_361.png,250,1x,5.0,3.0,2155,248,meters,jsons/MX_seq36_0_VE250.json,277923,492480,24,Woman
23,715929,final-intermixed-textured,v2,jsons/MX_seq36_0_VE250.json,http://54.235.29.9/FacialAge/BNav_EC2/DepthDuration/MX_fS_VE_MTurk/MX_fS_HTML.html#147,147,1920,1080,1920,1080,0-31-2024,15-7-48,24,VR_target_stimuli/s2_0.75x_2.7_384.png,250,0.75x,2.7,2.0,2013,250,meters,jsons/MX_seq36_0_VE250.json,277923,492480,24,Woman
24,715929,final-intermixed-textured,v2,jsons/MX_seq36_0_VE250.json,http://54.235.29.9/FacialAge/BNav_EC2/DepthDuration/MX_fS_VE_MTurk/MX_fS_HTML.html#147,147,1920,1080,1920,1080,0-31-2024,15-7-48,25,VR_target_stimuli/s6_1.3x_2.1_298_BC.png,250,1.3x,2.1,2.0,2194,250,meters,jsons/MX_seq36_0_VE250.json,277923,492480,24,Woman
25,715929,final-intermixed-textured,v2,jsons/MX_seq36_0_VE250.json,http://54.235.29.9/FacialAge/BNav_EC2/DepthDuration/MX_fS_VE_MTurk/MX_fS_HTML.html#147,147,1920,1080,1920,1080,0-31-2024,15-7-48,26,catch_stimuli/c2.png,250,,,0.0,1897,249,meters,jsons/MX_seq36_0_VE250.json,277923,492480,24,Woman
26,715929,final-intermixed-textured,v2,jsons/MX_seq36_0_VE250.json,http://54.235.29.9/FacialAge/BNav_EC2/DepthDuration/MX_fS_VE_MTurk/MX_fS_HTML.html#147,147,1920,1080,1920,1080,0-31-2024,15-7-48,27,VR_target_stimuli/s0_1x_2.6_351_BC.png,250,1x,2.6,2.0,2115,248,meters,jsons/MX_seq36_0_VE250.json,277923,492480,24,Woman
27,715929,final-intermixed-textured,v2,jsons/MX_seq36_0_VE250.json,http://54.235.29.9/FacialAge/BNav_EC2/DepthDuration/MX_fS_VE_MTurk/MX_fS_HTML.html#147,147,1920,1080,1920,1080,0-31-2024,15-7-48,28,VR_target_stimuli/s34_1x_2.8_283_BC.png,250,1x,2.8,3.0,9655,250,meters,jsons/MX_seq36_0_VE250.json,277923,492480,24,Woman
28,715929,final-intermixed-textured,v2,jsons/MX_seq36_0_VE250.json,http://54.235.29.9/FacialAge/BNav_EC2/DepthDuration/MX_fS_VE_MTurk/MX_fS_HTML.html#147,147,1920,1080,1920,1080,0-31-2024,15-7-48,29,VR_target_stimuli/s13_0.75x_2.4_308_BC.png,250,0.75x,2.4,2.0,4387,248,meters,jsons/MX_seq36_0_VE250.json,277923,492480,24,Woman
29,715929,final-intermixed-textured,v2,jsons/MX_seq36_0_VE250.json,http://54.235.29.9/FacialAge/BNav_EC2/DepthDuration/MX_fS_VE_MTurk/MX_fS_HTML.html#147,147,1920,1080,1920,1080,0-31-2024,15-7-48,30,VR_target_stimuli/s14_1.3x_3.83_359.png,250,1.3x,3.83,2.0,22479,237,meters,jsons/MX_seq36_0_VE250.json,277923,492480,24,Woman
30,715929,final-intermixed-textured,v2,jsons/MX_seq36_0_VE250.json,http://54.235.29.9/FacialAge/BNav_EC2/DepthDuration/MX_fS_VE_MTurk/MX_fS_HTML.html#147,147,1920,1080,1920,1080,0-31-2024,15-7-48,31,VR_target_stimuli/s47_1x_3.45_370.png,250,1x,3.45,4.0,3731,249,meters,jsons/MX_seq36_0_VE250.json,277923,492480,24,Woman
31,715929,final-intermixed-textured,v2,jsons/MX_seq36_0_VE250.json,http://54.235.29.9/FacialAge/BNav_EC2/DepthDuration/MX_fS_VE_MTurk/MX_fS_HTML.html#147,147,1920,1080,1920,1080,0-31-2024,15-7-48,32,VR_target_stimuli/s29_1.3x_1.3_253_BC.png,250,1.3x,1.3,2.0,3168,250,meters,jsons/MX_seq36_0_VE250.json,277923,492480,24,Woman
32,715929,final-intermixed-textured,v2,jsons/MX_seq36_0_VE250.json,http://54.235.29.9/FacialAge/BNav_EC2/DepthDuration/MX_fS_VE_MTurk/MX_fS_HTML.html#147,147,1920,1080,1920,1080,0-31-2024,15-7-48,33,VR_target_stimuli/s28_0.75x_3.2_357.png,250,0.75x,3.2,3.0,1999,248,meters,jsons/MX_seq36_0_VE250.json,277923,492480,24,Woman
33,715929,final-intermixed-textured,v2,jsons/MX_seq36_0_VE250.json,http://54.235.29.9/FacialAge/BNav_EC2/DepthDuration/MX_fS_VE_MTurk/MX_fS_HTML.html#147,147,1920,1080,1920,1080,0-31-2024,15-7-48,34,catch_stimuli/c3.png,250,,,0.0,2368,250,meters,jsons/MX_seq36_0_VE250.json,277923,492480,24,Woman
34,715929,final-intermixed-textured,v2,jsons/MX_seq36_0_VE250.json,http://54.235.29.9/FacialAge/BNav_EC2/DepthDuration/MX_fS_VE_MTurk/MX_fS_HTML.html#147,147,1920,1080,1920,1080,0-31-2024,15-7-48,35,VR_target_stimuli/s48_1.3x_2.55_255_BC.png,250,1.3x,2.55,2.0,2028,247,meters,jsons/MX_seq36_0_VE250.json,277923,492480,24,Woman
35,715929,final-intermixed-textured,v2,jsons/MX_seq36_0_VE250.json,http://54.235.29.9/FacialAge/BNav_EC2/DepthDuration/MX_fS_VE_MTurk/MX_fS_HTML.html#147,147,1920,1080,1920,1080,0-31-2024,15-7-48,36,VR_target_stimuli/s19_1x_1.21_263_BC.png,250,1x,1.21,2.0,1918,249,meters,jsons/MX_seq36_0_VE250.json,277923,492480,24,Woman
36,715929,final-intermixed-textured,v2,jsons/MX_seq36_0_VE250.json,http://54.235.29.9/FacialAge/BNav_EC2/DepthDuration/MX_fS_VE_MTurk/MX_fS_HTML.html#147,147,1920,1080,1920,1080,0-31-2024,15-7-48,37,VR_target_stimuli/s21_0.75x_4.22_374.png,250,0.75x,4.22,6.0,4031,251,meters,jsons/MX_seq36_0_VE250.json,277923,492480,24,Woman
37,715929,final-intermixed-textured,v2,jsons/MX_seq36_0_VE250.json,http://54.235.29.9/FacialAge/BNav_EC2/DepthDuration/MX_fS_VE_MTurk/MX_fS_HTML.html#147,147,1920,1080,1920,1080,0-31-2024,15-7-48,38,VR_target_stimuli/s8_0.75x_3.1_325_BC.png,250,0.75x,3.1,3.0,2360,252,meters,jsons/MX_seq36_0_VE250.json,277923,492480,24,Woman
38,715929,final-intermixed-textured,v2,jsons/MX_seq36_0_VE250.json,http://54.235.29.9/FacialAge/BNav_EC2/DepthDuration/MX_fS_VE_MTurk/MX_fS_HTML.html#147,147,1920,1080,1920,1080,0-31-2024,15-7-48,39,VR_target_stimuli/s27_1.3x_1.76_250.png,250,1.3x,1.76,1.0,1993,263,meters,jsons/MX_seq36_0_VE250.json,277923,492480,24,Woman
39,715929,final-intermixed-textured,v2,jsons/MX_seq36_0_VE250.json,http://54.235.29.9/FacialAge/BNav_EC2/DepthDuration/MX_fS_VE_MTurk/MX_fS_HTML.html#147,147,1920,1080,1920,1080,0-31-2024,15-7-48,40,VR_target_stimuli/s15_1x_4.2_390.png,250,1x,4.2,3.0,2129,248,meters,jsons/MX_seq36_0_VE250.json,277923,492480,24,Woman
40,715929,final-intermixed-textured,v2,jsons/MX_seq36_0_VE250.json,http://54.235.29.9/FacialAge/BNav_EC2/DepthDuration/MX_fS_VE_MTurk/MX_fS_HTML.html#147,147,1920,1080,1920,1080,0-31-2024,15-7-48,41,VR_target_stimuli/s4_1.3x_1.4_328.png,250,1.3x,1.4,0.5,3743,249,meters,jsons/MX_seq36_0_VE250.json,277923,492480,24,Woman
41,715929,final-intermixed-textured,v2,jsons/MX_seq36_0_VE250.json,http://54.235.29.9/FacialAge/BNav_EC2/DepthDuration/MX_fS_VE_MTurk/MX_fS_HTML.html#147,147,1920,1080,1920,1080,0-31-2024,15-7-48,42,VR_target_stimuli/s35_0.75x_2_323_BC.png,250,0.75x,2.0,2.0,1948,249,meters,jsons/MX_seq36_0_VE250.json,277923,492480,24,Woman
42,715929,final-intermixed-textured,v2,jsons/MX_seq36_0_VE250.json,http://54.235.29.9/FacialAge/BNav_EC2/DepthDuration/MX_fS_VE_MTurk/MX_fS_HTML.html#147,147,1920,1080,1920,1080,0-31-2024,15-7-48,43,VR_target_stimuli/s49_1x_4.67_341.png,250,1x,4.67,3.0,2057,250,meters,jsons/MX_seq36_0_VE250.json,277923,492480,24,Woman
43,715929,final-intermixed-textured,v2,jsons/MX_seq36_0_VE250.json,http://54.235.29.9/FacialAge/BNav_EC2/DepthDuration/MX_fS_VE_MTurk/MX_fS_HTML.html#147,147,1920,1080,1920,1080,0-31-2024,15-7-48,44,VR_target_stimuli/s7_0.75x_1.5_253.png,250,0.75x,1.5,1.5,8889,250,meters,jsons/MX_seq36_0_VE250.json,277923,492480,24,Woman
44,715929,final-intermixed-textured,v2,jsons/MX_seq36_0_VE250.json,http://54.235.29.9/FacialAge/BNav_EC2/DepthDuration/MX_fS_VE_MTurk/MX_fS_HTML.html#147,147,1920,1080,1920,1080,0-31-2024,15-7-48,45,catch_stimuli/c4.png,250,,,0.0,2347,248,meters,jsons/MX_seq36_0_VE250.json,277923,492480,24,Woman
45,715929,final-intermixed-textured,v2,jsons/MX_seq36_0_VE250.json,http://54.235.29.9/FacialAge/BNav_EC2/DepthDuration/MX_fS_VE_MTurk/MX_fS_HTML.html#147,147,1920,1080,1920,1080,0-31-2024,15-7-48,46,VR_target_stimuli/s20_1.3x_4.99_412_BC.png,250,1.3x,4.99,3.0,1788,250,meters,jsons/MX_seq36_0_VE250.json,277923,492480,24,Woman
46,715929,final-intermixed-textured,v2,jsons/MX_seq36_0_VE250.json,http://54.235.29.9/FacialAge/BNav_EC2/DepthDuration/MX_fS_VE_MTurk/MX_fS_HTML.html#147,147,1920,1080,1920,1080,0-31-2024,15-7-48,47,VR_target_stimuli/s31_1x_4.96_333_BC.png,250,1x,4.96,5.0,2236,250,meters,jsons/MX_seq36_0_VE250.json,277923,492480,24,Woman
47,715929,final-intermixed-textured,v2,jsons/MX_seq36_0_VE250.json,http://54.235.29.9/FacialAge/BNav_EC2/DepthDuration/MX_fS_VE_MTurk/MX_fS_HTML.html#147,147,1920,1080,1920,1080,0-31-2024,15-7-48,48,VR_target_stimuli/s33_1x_3.1_366_BC.png,250,1x,3.1,2.0,41846,264,meters,jsons/MX_seq36_0_VE250.json,277923,492480,24,Woman
48,715929,final-intermixed-textured,v2,jsons/MX_seq36_0_VE250.json,http://54.235.29.9/FacialAge/BNav_EC2/DepthDuration/MX_fS_VE_MTurk/MX_fS_HTML.html#147,147,1920,1080,1920,1080,0-31-2024,15-7-48,49,VR_target_stimuli/s52_0.75x_3.2_270.png,250,0.75x,3.2,5.0,1901,236,meters,jsons/MX_seq36_0_VE250.json,277923,492480,24,Woman
49,715929,final-intermixed-textured,v2,jsons/MX_seq36_0_VE250.json,http://54.235.29.9/FacialAge/BNav_EC2/DepthDuration/MX_fS_VE_MTurk/MX_fS_HTML.html#147,147,1920,1080,1920,1080,0-31-2024,15-7-48,50,VR_target_stimuli/s32_1.3x_1.5_224_BC.png,250,1.3x,1.5,3.0,1795,250,meters,jsons/MX_seq36_0_VE250.json,277923,492480,24,Woman
50,715929,final-intermixed-textured,v2,jsons/MX_seq36_0_VE250.json,http://54.235.29.9/FacialAge/BNav_EC2/DepthDuration/MX_fS_VE_MTurk/MX_fS_HTML.html#147,147,1920,1080,1920,1080,0-31-2024,15-7-48,51,VR_target_stimuli/s18_0.75x_2.25_341_BC.png,250,0.75x,2.25,3.0,1923,251,meters,jsons/MX_seq36_0_VE250.json,277923,492480,24,Woman
51,715929,final-intermixed-textured,v2,jsons/MX_seq36_0_VE250.json,http://54.235.29.9/FacialAge/BNav_EC2/DepthDuration/MX_fS_VE_MTurk/MX_fS_HTML.html#147,147,1920,1080,1920,1080,0-31-2024,15-7-48,52,VR_target_stimuli/s39_1x_1_207.png,250,1x,1.0,1.0,1848,248,meters,jsons/MX_seq36_0_VE250.json,277923,492480,24,Woman
52,715929,final-intermixed-textured,v2,jsons/MX_seq36_0_VE250.json,http://54.235.29.9/FacialAge/BNav_EC2/DepthDuration/MX_fS_VE_MTurk/MX_fS_HTML.html#147,147,1920,1080,1920,1080,0-31-2024,15-7-48,53,catch_stimuli/c5.png,250,,,0.0,1781,251,meters,jsons/MX_seq36_0_VE250.json,277923,492480,24,Woman
53,715929,final-intermixed-textured,v2,jsons/MX_seq36_0_VE250.json,http://54.235.29.9/FacialAge/BNav_EC2/DepthDuration/MX_fS_VE_MTurk/MX_fS_HTML.html#147,147,1920,1080,1920,1080,0-31-2024,15-7-48,54,VR_target_stimuli/s51_1.3x_3.64_479.png,250,1.3x,3.64,2.0,1756,252,meters,jsons/MX_seq36_0_VE250.json,277923,492480,24,Woman
54,715929,final-intermixed-textured,v2,jsons/MX_seq36_0_VE250.json,http://54.235.29.9/FacialAge/BNav_EC2/DepthDuration/MX_fS_VE_MTurk/MX_fS_HTML.html#147,147,1920,1080,1920,1080,0-31-2024,15-7-48,55,VR_target_stimuli/s43_1x_2.2_354_BC.png,250,1x,2.2,3.0,1861,248,meters,jsons/MX_seq36_0_VE250.json,277923,492480,24,Woman
55,715929,final-intermixed-textured,v2,jsons/MX_seq36_0_VE250.json,http://54.235.29.9/FacialAge/BNav_EC2/DepthDuration/MX_fS_VE_MTurk/MX_fS_HTML.html#147,147,1920,1080,1920,1080,0-31-2024,15-7-48,56,VR_target_stimuli/s24_0.75x_3.3_344_BC.png,250,0.75x,3.3,6.0,1981,250,meters,jsons/MX_seq36_0_VE250.json,277923,492480,24,Woman
56,715929,final-intermixed-textured,v2,jsons/MX_seq36_0_VE250.json,http://54.235.29.9/FacialAge/BNav_EC2/DepthDuration/MX_fS_VE_MTurk/MX_fS_HTML.html#147,147,1920,1080,1920,1080,0-31-2024,15-7-48,57,VR_target_stimuli/s10_1.3x_2.7_325.png,250,1.3x,2.7,2.0,1821,249,meters,jsons/MX_seq36_0_VE250.json,277923,492480,24,Woman
57,715929,final-intermixed-textured,v2,jsons/MX_seq36_0_VE250.json,http://54.235.29.9/FacialAge/BNav_EC2/DepthDuration/MX_fS_VE_MTurk/MX_fS_HTML.html#147,147,1920,1080,1920,1080,0-31-2024,15-7-48,58,VR_target_stimuli/s36_1.3x_4.1_442_BC.png,250,1.3x,4.1,2.0,4640,250,meters,jsons/MX_seq36_0_VE250.json,277923,492480,24,Woman
58,715929,final-intermixed-textured,v2,jsons/MX_seq36_0_VE250.json,http://54.235.29.9/FacialAge/BNav_EC2/DepthDuration/MX_fS_VE_MTurk/MX_fS_HTML.html#147,147,1920,1080,1920,1080,0-31-2024,15-7-48,59,VR_target_stimuli/s40_1x_1.2_319.png,250,1x,1.2,0.5,3124,250,meters,jsons/MX_seq36_0_VE250.json,277923,492480,24,Woman
59,715929,final-intermixed-textured,v2,jsons/MX_seq36_0_VE250.json,http://54.235.29.9/FacialAge/BNav_EC2/DepthDuration/MX_fS_VE_MTurk/MX_fS_HTML.html#147,147,1920,1080,1920,1080,0-31-2024,15-7-48,60,VR_target_stimuli/s41_0.75x_2.1_281.png,250,0.75x,2.1,2.0,1841,249,meters,jsons/MX_seq36_0_VE250.json,277923,492480,24,Woman
