,subjID,experimentName,versionName,sequenceName,url,selected_row,windowWidth,windowHeight,screenWidth,screenHeight,startDate,startTime,trial,stimulus,duration,scale,actual_depth,depth_estimate,trial_RT,log_sceneDuration,unitSelection,seq_filepath,experimentTime,totalTime,age,gender
0,721858,final-intermixed-textured,v2,jsons/MX_seq23_2_VE250.json,http://54.235.29.9/FacialAge/BNav_EC2/DepthDuration/MX_fS_VE_MTurk/MX_fS_HTML.html#79,79,1920,1080,1920,1080,0-31-2024,12-36-21,1,VR_target_stimuli/s31_1x_4.96_333_BC.png,250,1x,4.96,4.0,4473,251,meters,jsons/MX_seq23_2_VE250.json,180374,503137,25,Man
1,721858,final-intermixed-textured,v2,jsons/MX_seq23_2_VE250.json,http://54.235.29.9/FacialAge/BNav_EC2/DepthDuration/MX_fS_VE_MTurk/MX_fS_HTML.html#79,79,1920,1080,1920,1080,0-31-2024,12-36-21,2,VR_target_stimuli/s33_1.3x_3.1_378.png,250,1.3x,3.1,4.0,3993,249,meters,jsons/MX_seq23_2_VE250.json,180374,503137,25,Man
2,721858,final-intermixed-textured,v2,jsons/MX_seq23_2_VE250.json,http://54.235.29.9/FacialAge/BNav_EC2/DepthDuration/MX_fS_VE_MTurk/MX_fS_HTML.html#79,79,1920,1080,1920,1080,0-31-2024,12-36-21,3,VR_target_stimuli/s52_0.75x_3.2_270.png,250,0.75x,3.2,4.0,2908,262,meters,jsons/MX_seq23_2_VE250.json,180374,503137,25,Man
3,721858,final-intermixed-textured,v2,jsons/MX_seq23_2_VE250.json,http://54.235.29.9/FacialAge/BNav_EC2/DepthDuration/MX_fS_VE_MTurk/MX_fS_HTML.html#79,79,1920,1080,1920,1080,0-31-2024,12-36-21,4,VR_target_stimuli/s32_1.3x_1.5_224_BC.png,250,1.3x,1.5,3.0,2667,246,meters,jsons/MX_seq23_2_VE250.json,180374,503137,25,Man
4,721858,final-intermixed-textured,v2,jsons/MX_seq23_2_VE250.json,http://54.235.29.9/FacialAge/BNav_EC2/DepthDuration/MX_fS_VE_MTurk/MX_fS_HTML.html#79,79,1920,1080,1920,1080,0-31-2024,12-36-21,5,VR_target_stimuli/s18_1x_2.25_353.png,250,1x,2.25,2.5,4085,247,meters,jsons/MX_seq23_2_VE250.json,180374,503137,25,Man
5,721858,final-intermixed-textured,v2,jsons/MX_seq23_2_VE250.json,http://54.235.29.9/FacialAge/BNav_EC2/DepthDuration/MX_fS_VE_MTurk/MX_fS_HTML.html#79,79,1920,1080,1920,1080,0-31-2024,12-36-21,6,VR_target_stimuli/s39_0.75x_1_205_BC.png,250,0.75x,1.0,1.5,5174,247,meters,jsons/MX_seq23_2_VE250.json,180374,503137,25,Man
6,721858,final-intermixed-textured,v2,jsons/MX_seq23_2_VE250.json,http://54.235.29.9/FacialAge/BNav_EC2/DepthDuration/MX_fS_VE_MTurk/MX_fS_HTML.html#79,79,1920,1080,1920,1080,0-31-2024,12-36-21,7,catch_stimuli/c0.png,250,,,0.0,2451,262,meters,jsons/MX_seq23_2_VE250.json,180374,503137,25,Man
7,721858,final-intermixed-textured,v2,jsons/MX_seq23_2_VE250.json,http://54.235.29.9/FacialAge/BNav_EC2/DepthDuration/MX_fS_VE_MTurk/MX_fS_HTML.html#79,79,1920,1080,1920,1080,0-31-2024,12-36-21,8,VR_target_stimuli/s51_0.75x_3.64_460.png,250,0.75x,3.64,2.0,1955,249,meters,jsons/MX_seq23_2_VE250.json,180374,503137,25,Man
8,721858,final-intermixed-textured,v2,jsons/MX_seq23_2_VE250.json,http://54.235.29.9/FacialAge/BNav_EC2/DepthDuration/MX_fS_VE_MTurk/MX_fS_HTML.html#79,79,1920,1080,1920,1080,0-31-2024,12-36-21,9,VR_target_stimuli/s43_1.3x_2.2_363_BC.png,250,1.3x,2.2,2.0,2095,247,meters,jsons/MX_seq23_2_VE250.json,180374,503137,25,Man
9,721858,final-intermixed-textured,v2,jsons/MX_seq23_2_VE250.json,http://54.235.29.9/FacialAge/BNav_EC2/DepthDuration/MX_fS_VE_MTurk/MX_fS_HTML.html#79,79,1920,1080,1920,1080,0-31-2024,12-36-21,10,VR_target_stimuli/s24_1x_3.3_349_BC.png,250,1x,3.3,3.0,1906,246,meters,jsons/MX_seq23_2_VE250.json,180374,503137,25,Man
10,721858,final-intermixed-textured,v2,jsons/MX_seq23_2_VE250.json,http://54.235.29.9/FacialAge/BNav_EC2/DepthDuration/MX_fS_VE_MTurk/MX_fS_HTML.html#79,79,1920,1080,1920,1080,0-31-2024,12-36-21,11,VR_target_stimuli/s10_1.3x_2.7_325.png,250,1.3x,2.7,3.0,2113,247,meters,jsons/MX_seq23_2_VE250.json,180374,503137,25,Man
11,721858,final-intermixed-textured,v2,jsons/MX_seq23_2_VE250.json,http://54.235.29.9/FacialAge/BNav_EC2/DepthDuration/MX_fS_VE_MTurk/MX_fS_HTML.html#79,79,1920,1080,1920,1080,0-31-2024,12-36-21,12,VR_target_stimuli/s36_0.75x_4.1_407_BC.png,250,0.75x,4.1,3.0,2025,245,meters,jsons/MX_seq23_2_VE250.json,180374,503137,25,Man
12,721858,final-intermixed-textured,v2,jsons/MX_seq23_2_VE250.json,http://54.235.29.9/FacialAge/BNav_EC2/DepthDuration/MX_fS_VE_MTurk/MX_fS_HTML.html#79,79,1920,1080,1920,1080,0-31-2024,12-36-21,13,VR_target_stimuli/s40_1x_1.2_319.png,250,1x,1.2,1.0,1727,246,meters,jsons/MX_seq23_2_VE250.json,180374,503137,25,Man
13,721858,final-intermixed-textured,v2,jsons/MX_seq23_2_VE250.json,http://54.235.29.9/FacialAge/BNav_EC2/DepthDuration/MX_fS_VE_MTurk/MX_fS_HTML.html#79,79,1920,1080,1920,1080,0-31-2024,12-36-21,14,VR_target_stimuli/s41_0.75x_2.1_281.png,250,0.75x,2.1,2.5,3329,246,meters,jsons/MX_seq23_2_VE250.json,180374,503137,25,Man
14,721858,final-intermixed-textured,v2,jsons/MX_seq23_2_VE250.json,http://54.235.29.9/FacialAge/BNav_EC2/DepthDuration/MX_fS_VE_MTurk/MX_fS_HTML.html#79,79,1920,1080,1920,1080,0-31-2024,12-36-21,15,VR_target_stimuli/s45_1.3x_3.5_377.png,250,1.3x,3.5,2.0,1792,247,meters,jsons/MX_seq23_2_VE250.json,180374,503137,25,Man
15,721858,final-intermixed-textured,v2,jsons/MX_seq23_2_VE250.json,http://54.235.29.9/FacialAge/BNav_EC2/DepthDuration/MX_fS_VE_MTurk/MX_fS_HTML.html#79,79,1920,1080,1920,1080,0-31-2024,12-36-21,16,VR_target_stimuli/s23_1x_3.65_353_BC.png,250,1x,3.65,2.0,2455,245,meters,jsons/MX_seq23_2_VE250.json,180374,503137,25,Man
16,721858,final-intermixed-textured,v2,jsons/MX_seq23_2_VE250.json,http://54.235.29.9/FacialAge/BNav_EC2/DepthDuration/MX_fS_VE_MTurk/MX_fS_HTML.html#79,79,1920,1080,1920,1080,0-31-2024,12-36-21,17,catch_stimuli/c1.png,250,,,0.0,2455,247,meters,jsons/MX_seq23_2_VE250.json,180374,503137,25,Man
17,721858,final-intermixed-textured,v2,jsons/MX_seq23_2_VE250.json,http://54.235.29.9/FacialAge/BNav_EC2/DepthDuration/MX_fS_VE_MTurk/MX_fS_HTML.html#79,79,1920,1080,1920,1080,0-31-2024,12-36-21,18,VR_target_stimuli/s26_1x_4_433.png,250,1x,4.0,2.0,3191,246,meters,jsons/MX_seq23_2_VE250.json,180374,503137,25,Man
18,721858,final-intermixed-textured,v2,jsons/MX_seq23_2_VE250.json,http://54.235.29.9/FacialAge/BNav_EC2/DepthDuration/MX_fS_VE_MTurk/MX_fS_HTML.html#79,79,1920,1080,1920,1080,0-31-2024,12-36-21,19,VR_target_stimuli/s12_0.75x_3.1_364_BC.png,250,0.75x,3.1,1.5,2371,262,meters,jsons/MX_seq23_2_VE250.json,180374,503137,25,Man
19,721858,final-intermixed-textured,v2,jsons/MX_seq23_2_VE250.json,http://54.235.29.9/FacialAge/BNav_EC2/DepthDuration/MX_fS_VE_MTurk/MX_fS_HTML.html#79,79,1920,1080,1920,1080,0-31-2024,12-36-21,20,VR_target_stimuli/s30_1.3x_2.3_337_BC.png,250,1.3x,2.3,1.0,2430,263,meters,jsons/MX_seq23_2_VE250.json,180374,503137,25,Man
20,721858,final-intermixed-textured,v2,jsons/MX_seq23_2_VE250.json,http://54.235.29.9/FacialAge/BNav_EC2/DepthDuration/MX_fS_VE_MTurk/MX_fS_HTML.html#79,79,1920,1080,1920,1080,0-31-2024,12-36-21,21,VR_target_stimuli/s16_0.75x_1_217_BC.png,250,0.75x,1.0,1.0,2034,245,meters,jsons/MX_seq23_2_VE250.json,180374,503137,25,Man
21,721858,final-intermixed-textured,v2,jsons/MX_seq23_2_VE250.json,http://54.235.29.9/FacialAge/BNav_EC2/DepthDuration/MX_fS_VE_MTurk/MX_fS_HTML.html#79,79,1920,1080,1920,1080,0-31-2024,12-36-21,22,VR_target_stimuli/s17_1x_1.8_291_BC.png,250,1x,1.8,1.5,2613,247,meters,jsons/MX_seq23_2_VE250.json,180374,503137,25,Man
22,721858,final-intermixed-textured,v2,jsons/MX_seq23_2_VE250.json,http://54.235.29.9/FacialAge/BNav_EC2/DepthDuration/MX_fS_VE_MTurk/MX_fS_HTML.html#79,79,1920,1080,1920,1080,0-31-2024,12-36-21,23,VR_target_stimuli/s5_1.3x_4_393_BC.png,250,1.3x,4.0,2.0,1861,247,meters,jsons/MX_seq23_2_VE250.json,180374,503137,25,Man
23,721858,final-intermixed-textured,v2,jsons/MX_seq23_2_VE250.json,http://54.235.29.9/FacialAge/BNav_EC2/DepthDuration/MX_fS_VE_MTurk/MX_fS_HTML.html#79,79,1920,1080,1920,1080,0-31-2024,12-36-21,24,VR_target_stimuli/s37_1x_3.3_563.png,250,1x,3.3,1.0,2066,245,meters,jsons/MX_seq23_2_VE250.json,180374,503137,25,Man
24,721858,final-intermixed-textured,v2,jsons/MX_seq23_2_VE250.json,http://54.235.29.9/FacialAge/BNav_EC2/DepthDuration/MX_fS_VE_MTurk/MX_fS_HTML.html#79,79,1920,1080,1920,1080,0-31-2024,12-36-21,25,VR_target_stimuli/s46_0.75x_2.42_343.png,250,0.75x,2.42,2.0,2221,260,meters,jsons/MX_seq23_2_VE250.json,180374,503137,25,Man
25,721858,final-intermixed-textured,v2,jsons/MX_seq23_2_VE250.json,http://54.235.29.9/FacialAge/BNav_EC2/DepthDuration/MX_fS_VE_MTurk/MX_fS_HTML.html#79,79,1920,1080,1920,1080,0-31-2024,12-36-21,26,catch_stimuli/c2.png,250,,,0.0,2055,262,meters,jsons/MX_seq23_2_VE250.json,180374,503137,25,Man
26,721858,final-intermixed-textured,v2,jsons/MX_seq23_2_VE250.json,http://54.235.29.9/FacialAge/BNav_EC2/DepthDuration/MX_fS_VE_MTurk/MX_fS_HTML.html#79,79,1920,1080,1920,1080,0-31-2024,12-36-21,27,VR_target_stimuli/s22_1.3x_4.29_364.png,250,1.3x,4.29,0.0,3176,248,meters,jsons/MX_seq23_2_VE250.json,180374,503137,25,Man
27,721858,final-intermixed-textured,v2,jsons/MX_seq23_2_VE250.json,http://54.235.29.9/FacialAge/BNav_EC2/DepthDuration/MX_fS_VE_MTurk/MX_fS_HTML.html#79,79,1920,1080,1920,1080,0-31-2024,12-36-21,28,VR_target_stimuli/s42_1.3x_3.2_305.png,250,1.3x,3.2,2.0,3243,247,meters,jsons/MX_seq23_2_VE250.json,180374,503137,25,Man
28,721858,final-intermixed-textured,v2,jsons/MX_seq23_2_VE250.json,http://54.235.29.9/FacialAge/BNav_EC2/DepthDuration/MX_fS_VE_MTurk/MX_fS_HTML.html#79,79,1920,1080,1920,1080,0-31-2024,12-36-21,29,VR_target_stimuli/s25_1x_1.4_290.png,250,1x,1.4,1.5,3727,245,meters,jsons/MX_seq23_2_VE250.json,180374,503137,25,Man
29,721858,final-intermixed-textured,v2,jsons/MX_seq23_2_VE250.json,http://54.235.29.9/FacialAge/BNav_EC2/DepthDuration/MX_fS_VE_MTurk/MX_fS_HTML.html#79,79,1920,1080,1920,1080,0-31-2024,12-36-21,30,VR_target_stimuli/s50_0.75x_4.53_517_BC.png,250,0.75x,4.53,1.5,5639,245,meters,jsons/MX_seq23_2_VE250.json,180374,503137,25,Man
30,721858,final-intermixed-textured,v2,jsons/MX_seq23_2_VE250.json,http://54.235.29.9/FacialAge/BNav_EC2/DepthDuration/MX_fS_VE_MTurk/MX_fS_HTML.html#79,79,1920,1080,1920,1080,0-31-2024,12-36-21,31,VR_target_stimuli/s53_1.3x_1.6_355_BC.png,250,1.3x,1.6,1.0,1930,261,meters,jsons/MX_seq23_2_VE250.json,180374,503137,25,Man
31,721858,final-intermixed-textured,v2,jsons/MX_seq23_2_VE250.json,http://54.235.29.9/FacialAge/BNav_EC2/DepthDuration/MX_fS_VE_MTurk/MX_fS_HTML.html#79,79,1920,1080,1920,1080,0-31-2024,12-36-21,32,VR_target_stimuli/s38_0.75x_3.55_346.png,250,0.75x,3.55,2.0,1733,247,meters,jsons/MX_seq23_2_VE250.json,180374,503137,25,Man
32,721858,final-intermixed-textured,v2,jsons/MX_seq23_2_VE250.json,http://54.235.29.9/FacialAge/BNav_EC2/DepthDuration/MX_fS_VE_MTurk/MX_fS_HTML.html#79,79,1920,1080,1920,1080,0-31-2024,12-36-21,33,VR_target_stimuli/s9_1x_1.2_263_BC.png,250,1x,1.2,1.0,3116,253,meters,jsons/MX_seq23_2_VE250.json,180374,503137,25,Man
33,721858,final-intermixed-textured,v2,jsons/MX_seq23_2_VE250.json,http://54.235.29.9/FacialAge/BNav_EC2/DepthDuration/MX_fS_VE_MTurk/MX_fS_HTML.html#79,79,1920,1080,1920,1080,0-31-2024,12-36-21,34,catch_stimuli/c3.png,250,,,0.0,2227,246,meters,jsons/MX_seq23_2_VE250.json,180374,503137,25,Man
34,721858,final-intermixed-textured,v2,jsons/MX_seq23_2_VE250.json,http://54.235.29.9/FacialAge/BNav_EC2/DepthDuration/MX_fS_VE_MTurk/MX_fS_HTML.html#79,79,1920,1080,1920,1080,0-31-2024,12-36-21,35,VR_target_stimuli/s44_0.75x_4.4_314_BC.png,250,0.75x,4.4,0.0,2293,250,meters,jsons/MX_seq23_2_VE250.json,180374,503137,25,Man
35,721858,final-intermixed-textured,v2,jsons/MX_seq23_2_VE250.json,http://54.235.29.9/FacialAge/BNav_EC2/DepthDuration/MX_fS_VE_MTurk/MX_fS_HTML.html#79,79,1920,1080,1920,1080,0-31-2024,12-36-21,36,VR_target_stimuli/s3_1.3x_5_390_BC.png,250,1.3x,5.0,2.0,2861,245,meters,jsons/MX_seq23_2_VE250.json,180374,503137,25,Man
36,721858,final-intermixed-textured,v2,jsons/MX_seq23_2_VE250.json,http://54.235.29.9/FacialAge/BNav_EC2/DepthDuration/MX_fS_VE_MTurk/MX_fS_HTML.html#79,79,1920,1080,1920,1080,0-31-2024,12-36-21,37,VR_target_stimuli/s1_1x_1.7_262.png,250,1x,1.7,1.5,3121,262,meters,jsons/MX_seq23_2_VE250.json,180374,503137,25,Man
37,721858,final-intermixed-textured,v2,jsons/MX_seq23_2_VE250.json,http://54.235.29.9/FacialAge/BNav_EC2/DepthDuration/MX_fS_VE_MTurk/MX_fS_HTML.html#79,79,1920,1080,1920,1080,0-31-2024,12-36-21,38,VR_target_stimuli/s11_1x_5_361_BC.png,250,1x,5.0,3.0,1715,250,meters,jsons/MX_seq23_2_VE250.json,180374,503137,25,Man
38,721858,final-intermixed-textured,v2,jsons/MX_seq23_2_VE250.json,http://54.235.29.9/FacialAge/BNav_EC2/DepthDuration/MX_fS_VE_MTurk/MX_fS_HTML.html#79,79,1920,1080,1920,1080,0-31-2024,12-36-21,39,VR_target_stimuli/s2_0.75x_2.7_384.png,250,0.75x,2.7,2.0,1578,246,meters,jsons/MX_seq23_2_VE250.json,180374,503137,25,Man
39,721858,final-intermixed-textured,v2,jsons/MX_seq23_2_VE250.json,http://54.235.29.9/FacialAge/BNav_EC2/DepthDuration/MX_fS_VE_MTurk/MX_fS_HTML.html#79,79,1920,1080,1920,1080,0-31-2024,12-36-21,40,VR_target_stimuli/s6_1.3x_2.1_298.png,250,1.3x,2.1,2.0,1760,248,meters,jsons/MX_seq23_2_VE250.json,180374,503137,25,Man
40,721858,final-intermixed-textured,v2,jsons/MX_seq23_2_VE250.json,http://54.235.29.9/FacialAge/BNav_EC2/DepthDuration/MX_fS_VE_MTurk/MX_fS_HTML.html#79,79,1920,1080,1920,1080,0-31-2024,12-36-21,41,VR_target_stimuli/s0_0.75x_2.6_345.png,250,0.75x,2.6,1.5,2165,261,meters,jsons/MX_seq23_2_VE250.json,180374,503137,25,Man
41,721858,final-intermixed-textured,v2,jsons/MX_seq23_2_VE250.json,http://54.235.29.9/FacialAge/BNav_EC2/DepthDuration/MX_fS_VE_MTurk/MX_fS_HTML.html#79,79,1920,1080,1920,1080,0-31-2024,12-36-21,42,VR_target_stimuli/s34_1x_2.8_283_BC.png,250,1x,2.8,1.5,2356,249,meters,jsons/MX_seq23_2_VE250.json,180374,503137,25,Man
42,721858,final-intermixed-textured,v2,jsons/MX_seq23_2_VE250.json,http://54.235.29.9/FacialAge/BNav_EC2/DepthDuration/MX_fS_VE_MTurk/MX_fS_HTML.html#79,79,1920,1080,1920,1080,0-31-2024,12-36-21,43,VR_target_stimuli/s13_1.3x_2.4_313.png,250,1.3x,2.4,2.0,2150,244,meters,jsons/MX_seq23_2_VE250.json,180374,503137,25,Man
43,721858,final-intermixed-textured,v2,jsons/MX_seq23_2_VE250.json,http://54.235.29.9/FacialAge/BNav_EC2/DepthDuration/MX_fS_VE_MTurk/MX_fS_HTML.html#79,79,1920,1080,1920,1080,0-31-2024,12-36-21,44,VR_target_stimuli/s14_1x_ 3.83_357.png,250,1x,3.83,0.0,2631,247,meters,jsons/MX_seq23_2_VE250.json,180374,503137,25,Man
44,721858,final-intermixed-textured,v2,jsons/MX_seq23_2_VE250.json,http://54.235.29.9/FacialAge/BNav_EC2/DepthDuration/MX_fS_VE_MTurk/MX_fS_HTML.html#79,79,1920,1080,1920,1080,0-31-2024,12-36-21,45,catch_stimuli/c4.png,250,,,0.0,2702,247,meters,jsons/MX_seq23_2_VE250.json,180374,503137,25,Man
45,721858,final-intermixed-textured,v2,jsons/MX_seq23_2_VE250.json,http://54.235.29.9/FacialAge/BNav_EC2/DepthDuration/MX_fS_VE_MTurk/MX_fS_HTML.html#79,79,1920,1080,1920,1080,0-31-2024,12-36-21,46,VR_target_stimuli/s47_0.75x_3.45_366_BC.png,250,0.75x,3.45,1.5,2324,260,meters,jsons/MX_seq23_2_VE250.json,180374,503137,25,Man
46,721858,final-intermixed-textured,v2,jsons/MX_seq23_2_VE250.json,http://54.235.29.9/FacialAge/BNav_EC2/DepthDuration/MX_fS_VE_MTurk/MX_fS_HTML.html#79,79,1920,1080,1920,1080,0-31-2024,12-36-21,47,VR_target_stimuli/s29_1.3x_1.3_253_BC.png,250,1.3x,1.3,1.0,2357,247,meters,jsons/MX_seq23_2_VE250.json,180374,503137,25,Man
47,721858,final-intermixed-textured,v2,jsons/MX_seq23_2_VE250.json,http://54.235.29.9/FacialAge/BNav_EC2/DepthDuration/MX_fS_VE_MTurk/MX_fS_HTML.html#79,79,1920,1080,1920,1080,0-31-2024,12-36-21,48,VR_target_stimuli/s28_1.3x_3.2_365.png,250,1.3x,3.2,2.0,1721,260,meters,jsons/MX_seq23_2_VE250.json,180374,503137,25,Man
48,721858,final-intermixed-textured,v2,jsons/MX_seq23_2_VE250.json,http://54.235.29.9/FacialAge/BNav_EC2/DepthDuration/MX_fS_VE_MTurk/MX_fS_HTML.html#79,79,1920,1080,1920,1080,0-31-2024,12-36-21,49,VR_target_stimuli/s48_1x_2.55_256.png,250,1x,2.55,1.5,3118,250,meters,jsons/MX_seq23_2_VE250.json,180374,503137,25,Man
49,721858,final-intermixed-textured,v2,jsons/MX_seq23_2_VE250.json,http://54.235.29.9/FacialAge/BNav_EC2/DepthDuration/MX_fS_VE_MTurk/MX_fS_HTML.html#79,79,1920,1080,1920,1080,0-31-2024,12-36-21,50,VR_target_stimuli/s19_0.75x_1.21_257_BC.png,250,0.75x,1.21,1.0,2443,246,meters,jsons/MX_seq23_2_VE250.json,180374,503137,25,Man
50,721858,final-intermixed-textured,v2,jsons/MX_seq23_2_VE250.json,http://54.235.29.9/FacialAge/BNav_EC2/DepthDuration/MX_fS_VE_MTurk/MX_fS_HTML.html#79,79,1920,1080,1920,1080,0-31-2024,12-36-21,51,VR_target_stimuli/s21_1x_4.22_379_BC.png,250,1x,4.22,4.0,3050,246,meters,jsons/MX_seq23_2_VE250.json,180374,503137,25,Man
51,721858,final-intermixed-textured,v2,jsons/MX_seq23_2_VE250.json,http://54.235.29.9/FacialAge/BNav_EC2/DepthDuration/MX_fS_VE_MTurk/MX_fS_HTML.html#79,79,1920,1080,1920,1080,0-31-2024,12-36-21,52,VR_target_stimuli/s8_1.3x_3.1_345_BC.png,250,1.3x,3.1,2.0,1880,246,meters,jsons/MX_seq23_2_VE250.json,180374,503137,25,Man
52,721858,final-intermixed-textured,v2,jsons/MX_seq23_2_VE250.json,http://54.235.29.9/FacialAge/BNav_EC2/DepthDuration/MX_fS_VE_MTurk/MX_fS_HTML.html#79,79,1920,1080,1920,1080,0-31-2024,12-36-21,53,catch_stimuli/c5.png,250,,,0.0,1847,247,meters,jsons/MX_seq23_2_VE250.json,180374,503137,25,Man
53,721858,final-intermixed-textured,v2,jsons/MX_seq23_2_VE250.json,http://54.235.29.9/FacialAge/BNav_EC2/DepthDuration/MX_fS_VE_MTurk/MX_fS_HTML.html#79,79,1920,1080,1920,1080,0-31-2024,12-36-21,54,VR_target_stimuli/s27_0.75x_1.76_243.png,250,0.75x,1.76,2.0,1832,246,meters,jsons/MX_seq23_2_VE250.json,180374,503137,25,Man
54,721858,final-intermixed-textured,v2,jsons/MX_seq23_2_VE250.json,http://54.235.29.9/FacialAge/BNav_EC2/DepthDuration/MX_fS_VE_MTurk/MX_fS_HTML.html#79,79,1920,1080,1920,1080,0-31-2024,12-36-21,55,VR_target_stimuli/s15_1.3x_4.2_389_BC.png,250,1.3x,4.2,2.5,2013,248,meters,jsons/MX_seq23_2_VE250.json,180374,503137,25,Man
55,721858,final-intermixed-textured,v2,jsons/MX_seq23_2_VE250.json,http://54.235.29.9/FacialAge/BNav_EC2/DepthDuration/MX_fS_VE_MTurk/MX_fS_HTML.html#79,79,1920,1080,1920,1080,0-31-2024,12-36-21,56,VR_target_stimuli/s4_1x_1.4_313_BC.png,250,1x,1.4,1.0,1630,246,meters,jsons/MX_seq23_2_VE250.json,180374,503137,25,Man
56,721858,final-intermixed-textured,v2,jsons/MX_seq23_2_VE250.json,http://54.235.29.9/FacialAge/BNav_EC2/DepthDuration/MX_fS_VE_MTurk/MX_fS_HTML.html#79,79,1920,1080,1920,1080,0-31-2024,12-36-21,57,VR_target_stimuli/s35_0.75x_2_323_BC.png,250,0.75x,2.0,1.5,1858,261,meters,jsons/MX_seq23_2_VE250.json,180374,503137,25,Man
57,721858,final-intermixed-textured,v2,jsons/MX_seq23_2_VE250.json,http://54.235.29.9/FacialAge/BNav_EC2/DepthDuration/MX_fS_VE_MTurk/MX_fS_HTML.html#79,79,1920,1080,1920,1080,0-31-2024,12-36-21,58,VR_target_stimuli/s49_0.75x_4.67_328.png,250,0.75x,4.67,3.0,1660,246,meters,jsons/MX_seq23_2_VE250.json,180374,503137,25,Man
58,721858,final-intermixed-textured,v2,jsons/MX_seq23_2_VE250.json,http://54.235.29.9/FacialAge/BNav_EC2/DepthDuration/MX_fS_VE_MTurk/MX_fS_HTML.html#79,79,1920,1080,1920,1080,0-31-2024,12-36-21,59,VR_target_stimuli/s7_1.3x_1.5_256.png,250,1.3x,1.5,2.0,1905,247,meters,jsons/MX_seq23_2_VE250.json,180374,503137,25,Man
59,721858,final-intermixed-textured,v2,jsons/MX_seq23_2_VE250.json,http://54.235.29.9/FacialAge/BNav_EC2/DepthDuration/MX_fS_VE_MTurk/MX_fS_HTML.html#79,79,1920,1080,1920,1080,0-31-2024,12-36-21,60,VR_target_stimuli/s20_1x_4.99_398.png,250,1x,4.99,4.0,1686,250,meters,jsons/MX_seq23_2_VE250.json,180374,503137,25,Man
