,subjID,experimentName,versionName,sequenceName,url,selected_row,windowWidth,windowHeight,screenWidth,screenHeight,startDate,startTime,trial,stimulus,duration,scale,actual_depth,depth_estimate,trial_RT,log_sceneDuration,unitSelection,seq_filepath,experimentTime,totalTime,age,gender
0,751770,final-intermixed-textured,v2,jsons/MX_seq34_0_VE250_flipped.json,http://54.235.29.9/FacialAge/BNav_EC2/DepthDuration/MX_fS_VE_MTurk/MX_fS_HTML.html#194,194,1536,864,1536,864,0-31-2024,17-34-35,1,VR_target_stimuli/s40_0.75x_1.2_308.png,250,0.75x,1.2,3,2077,249,meters,jsons/MX_seq34_0_VE250_flipped.json,125640,345017,27,Człowiek
1,751770,final-intermixed-textured,v2,jsons/MX_seq34_0_VE250_flipped.json,http://54.235.29.9/FacialAge/BNav_EC2/DepthDuration/MX_fS_VE_MTurk/MX_fS_HTML.html#194,194,1536,864,1536,864,0-31-2024,17-34-35,2,VR_target_stimuli/s41_1x_2.1_286.png,250,1x,2.1,6,1842,249,meters,jsons/MX_seq34_0_VE250_flipped.json,125640,345017,27,Człowiek
2,751770,final-intermixed-textured,v2,jsons/MX_seq34_0_VE250_flipped.json,http://54.235.29.9/FacialAge/BNav_EC2/DepthDuration/MX_fS_VE_MTurk/MX_fS_HTML.html#194,194,1536,864,1536,864,0-31-2024,17-34-35,3,VR_target_stimuli/s45_1.3x_3.5_377_BC.png,250,1.3x,3.5,4,1747,252,meters,jsons/MX_seq34_0_VE250_flipped.json,125640,345017,27,Człowiek
3,751770,final-intermixed-textured,v2,jsons/MX_seq34_0_VE250_flipped.json,http://54.235.29.9/FacialAge/BNav_EC2/DepthDuration/MX_fS_VE_MTurk/MX_fS_HTML.html#194,194,1536,864,1536,864,0-31-2024,17-34-35,4,VR_target_stimuli/s23_1x_3.65_353_BC.png,250,1x,3.65,5,2416,252,meters,jsons/MX_seq34_0_VE250_flipped.json,125640,345017,27,Człowiek
4,751770,final-intermixed-textured,v2,jsons/MX_seq34_0_VE250_flipped.json,http://54.235.29.9/FacialAge/BNav_EC2/DepthDuration/MX_fS_VE_MTurk/MX_fS_HTML.html#194,194,1536,864,1536,864,0-31-2024,17-34-35,5,VR_target_stimuli/s26_0.75x_4_430_BC.png,250,0.75x,4.0,4,1922,250,meters,jsons/MX_seq34_0_VE250_flipped.json,125640,345017,27,Człowiek
5,751770,final-intermixed-textured,v2,jsons/MX_seq34_0_VE250_flipped.json,http://54.235.29.9/FacialAge/BNav_EC2/DepthDuration/MX_fS_VE_MTurk/MX_fS_HTML.html#194,194,1536,864,1536,864,0-31-2024,17-34-35,6,VR_target_stimuli/s12_1.3x_3.1_375.png,250,1.3x,3.1,4,2297,250,meters,jsons/MX_seq34_0_VE250_flipped.json,125640,345017,27,Człowiek
6,751770,final-intermixed-textured,v2,jsons/MX_seq34_0_VE250_flipped.json,http://54.235.29.9/FacialAge/BNav_EC2/DepthDuration/MX_fS_VE_MTurk/MX_fS_HTML.html#194,194,1536,864,1536,864,0-31-2024,17-34-35,7,catch_stimuli/c0_BC.png,250,,,0,2189,251,meters,jsons/MX_seq34_0_VE250_flipped.json,125640,345017,27,Człowiek
7,751770,final-intermixed-textured,v2,jsons/MX_seq34_0_VE250_flipped.json,http://54.235.29.9/FacialAge/BNav_EC2/DepthDuration/MX_fS_VE_MTurk/MX_fS_HTML.html#194,194,1536,864,1536,864,0-31-2024,17-34-35,8,VR_target_stimuli/s30_1.3x_2.3_337.png,250,1.3x,2.3,3,1558,250,meters,jsons/MX_seq34_0_VE250_flipped.json,125640,345017,27,Człowiek
8,751770,final-intermixed-textured,v2,jsons/MX_seq34_0_VE250_flipped.json,http://54.235.29.9/FacialAge/BNav_EC2/DepthDuration/MX_fS_VE_MTurk/MX_fS_HTML.html#194,194,1536,864,1536,864,0-31-2024,17-34-35,9,VR_target_stimuli/s16_1x_1_219_BC.png,250,1x,1.0,2,1506,237,meters,jsons/MX_seq34_0_VE250_flipped.json,125640,345017,27,Człowiek
9,751770,final-intermixed-textured,v2,jsons/MX_seq34_0_VE250_flipped.json,http://54.235.29.9/FacialAge/BNav_EC2/DepthDuration/MX_fS_VE_MTurk/MX_fS_HTML.html#194,194,1536,864,1536,864,0-31-2024,17-34-35,10,VR_target_stimuli/s17_0.75x_1.8_285.png,250,0.75x,1.8,4,1512,250,meters,jsons/MX_seq34_0_VE250_flipped.json,125640,345017,27,Człowiek
10,751770,final-intermixed-textured,v2,jsons/MX_seq34_0_VE250_flipped.json,http://54.235.29.9/FacialAge/BNav_EC2/DepthDuration/MX_fS_VE_MTurk/MX_fS_HTML.html#194,194,1536,864,1536,864,0-31-2024,17-34-35,11,VR_target_stimuli/s5_1x_4_378.png,250,1x,4.0,5,1480,250,meters,jsons/MX_seq34_0_VE250_flipped.json,125640,345017,27,Człowiek
11,751770,final-intermixed-textured,v2,jsons/MX_seq34_0_VE250_flipped.json,http://54.235.29.9/FacialAge/BNav_EC2/DepthDuration/MX_fS_VE_MTurk/MX_fS_HTML.html#194,194,1536,864,1536,864,0-31-2024,17-34-35,12,VR_target_stimuli/s37_1.3x_3.3_555_BC.png,250,1.3x,3.3,2,1574,249,meters,jsons/MX_seq34_0_VE250_flipped.json,125640,345017,27,Człowiek
12,751770,final-intermixed-textured,v2,jsons/MX_seq34_0_VE250_flipped.json,http://54.235.29.9/FacialAge/BNav_EC2/DepthDuration/MX_fS_VE_MTurk/MX_fS_HTML.html#194,194,1536,864,1536,864,0-31-2024,17-34-35,13,VR_target_stimuli/s46_0.75x_2.42_343_BC.png,250,0.75x,2.42,5,1601,251,meters,jsons/MX_seq34_0_VE250_flipped.json,125640,345017,27,Człowiek
13,751770,final-intermixed-textured,v2,jsons/MX_seq34_0_VE250_flipped.json,http://54.235.29.9/FacialAge/BNav_EC2/DepthDuration/MX_fS_VE_MTurk/MX_fS_HTML.html#194,194,1536,864,1536,864,0-31-2024,17-34-35,14,VR_target_stimuli/s22_1.3x_4.29_364_BC.png,250,1.3x,4.29,5,1562,251,meters,jsons/MX_seq34_0_VE250_flipped.json,125640,345017,27,Człowiek
14,751770,final-intermixed-textured,v2,jsons/MX_seq34_0_VE250_flipped.json,http://54.235.29.9/FacialAge/BNav_EC2/DepthDuration/MX_fS_VE_MTurk/MX_fS_HTML.html#194,194,1536,864,1536,864,0-31-2024,17-34-35,15,VR_target_stimuli/s42_1x_3.2_303_BC.png,250,1x,3.2,6,1476,252,meters,jsons/MX_seq34_0_VE250_flipped.json,125640,345017,27,Człowiek
15,751770,final-intermixed-textured,v2,jsons/MX_seq34_0_VE250_flipped.json,http://54.235.29.9/FacialAge/BNav_EC2/DepthDuration/MX_fS_VE_MTurk/MX_fS_HTML.html#194,194,1536,864,1536,864,0-31-2024,17-34-35,16,VR_target_stimuli/s25_0.75x_1.4_281.png,250,0.75x,1.4,2,1799,250,meters,jsons/MX_seq34_0_VE250_flipped.json,125640,345017,27,Człowiek
16,751770,final-intermixed-textured,v2,jsons/MX_seq34_0_VE250_flipped.json,http://54.235.29.9/FacialAge/BNav_EC2/DepthDuration/MX_fS_VE_MTurk/MX_fS_HTML.html#194,194,1536,864,1536,864,0-31-2024,17-34-35,17,catch_stimuli/c1_BC.png,250,,,0,1914,252,meters,jsons/MX_seq34_0_VE250_flipped.json,125640,345017,27,Człowiek
17,751770,final-intermixed-textured,v2,jsons/MX_seq34_0_VE250_flipped.json,http://54.235.29.9/FacialAge/BNav_EC2/DepthDuration/MX_fS_VE_MTurk/MX_fS_HTML.html#194,194,1536,864,1536,864,0-31-2024,17-34-35,18,VR_target_stimuli/s50_0.75x_4.53_517_BC.png,250,0.75x,4.53,3,1550,248,meters,jsons/MX_seq34_0_VE250_flipped.json,125640,345017,27,Człowiek
18,751770,final-intermixed-textured,v2,jsons/MX_seq34_0_VE250_flipped.json,http://54.235.29.9/FacialAge/BNav_EC2/DepthDuration/MX_fS_VE_MTurk/MX_fS_HTML.html#194,194,1536,864,1536,864,0-31-2024,17-34-35,19,VR_target_stimuli/s53_1.3x_1.6_355.png,250,1.3x,1.6,1,1505,250,meters,jsons/MX_seq34_0_VE250_flipped.json,125640,345017,27,Człowiek
19,751770,final-intermixed-textured,v2,jsons/MX_seq34_0_VE250_flipped.json,http://54.235.29.9/FacialAge/BNav_EC2/DepthDuration/MX_fS_VE_MTurk/MX_fS_HTML.html#194,194,1536,864,1536,864,0-31-2024,17-34-35,20,VR_target_stimuli/s38_1x_3.55_353.png,250,1x,3.55,3,1470,249,meters,jsons/MX_seq34_0_VE250_flipped.json,125640,345017,27,Człowiek
20,751770,final-intermixed-textured,v2,jsons/MX_seq34_0_VE250_flipped.json,http://54.235.29.9/FacialAge/BNav_EC2/DepthDuration/MX_fS_VE_MTurk/MX_fS_HTML.html#194,194,1536,864,1536,864,0-31-2024,17-34-35,21,VR_target_stimuli/s9_1.3x_1.2_276.png,250,1.3x,1.2,2,1464,260,meters,jsons/MX_seq34_0_VE250_flipped.json,125640,345017,27,Człowiek
21,751770,final-intermixed-textured,v2,jsons/MX_seq34_0_VE250_flipped.json,http://54.235.29.9/FacialAge/BNav_EC2/DepthDuration/MX_fS_VE_MTurk/MX_fS_HTML.html#194,194,1536,864,1536,864,0-31-2024,17-34-35,22,VR_target_stimuli/s44_0.75x_4.4_314_BC.png,250,0.75x,4.4,4,1405,235,meters,jsons/MX_seq34_0_VE250_flipped.json,125640,345017,27,Człowiek
22,751770,final-intermixed-textured,v2,jsons/MX_seq34_0_VE250_flipped.json,http://54.235.29.9/FacialAge/BNav_EC2/DepthDuration/MX_fS_VE_MTurk/MX_fS_HTML.html#194,194,1536,864,1536,864,0-31-2024,17-34-35,23,VR_target_stimuli/s3_1x_5_385.png,250,1x,5.0,6,1562,250,meters,jsons/MX_seq34_0_VE250_flipped.json,125640,345017,27,Człowiek
23,751770,final-intermixed-textured,v2,jsons/MX_seq34_0_VE250_flipped.json,http://54.235.29.9/FacialAge/BNav_EC2/DepthDuration/MX_fS_VE_MTurk/MX_fS_HTML.html#194,194,1536,864,1536,864,0-31-2024,17-34-35,24,VR_target_stimuli/s1_0.75x_1.7_265.png,250,0.75x,1.7,4,1670,250,meters,jsons/MX_seq34_0_VE250_flipped.json,125640,345017,27,Człowiek
24,751770,final-intermixed-textured,v2,jsons/MX_seq34_0_VE250_flipped.json,http://54.235.29.9/FacialAge/BNav_EC2/DepthDuration/MX_fS_VE_MTurk/MX_fS_HTML.html#194,194,1536,864,1536,864,0-31-2024,17-34-35,25,VR_target_stimuli/s11_1.3x_5_363_BC.png,250,1.3x,5.0,5,1397,250,meters,jsons/MX_seq34_0_VE250_flipped.json,125640,345017,27,Człowiek
25,751770,final-intermixed-textured,v2,jsons/MX_seq34_0_VE250_flipped.json,http://54.235.29.9/FacialAge/BNav_EC2/DepthDuration/MX_fS_VE_MTurk/MX_fS_HTML.html#194,194,1536,864,1536,864,0-31-2024,17-34-35,26,catch_stimuli/c2_BC.png,250,,,0,1862,252,meters,jsons/MX_seq34_0_VE250_flipped.json,125640,345017,27,Człowiek
26,751770,final-intermixed-textured,v2,jsons/MX_seq34_0_VE250_flipped.json,http://54.235.29.9/FacialAge/BNav_EC2/DepthDuration/MX_fS_VE_MTurk/MX_fS_HTML.html#194,194,1536,864,1536,864,0-31-2024,17-34-35,27,VR_target_stimuli/s2_1x_2.7_390_BC.png,250,1x,2.7,3,1379,250,meters,jsons/MX_seq34_0_VE250_flipped.json,125640,345017,27,Człowiek
27,751770,final-intermixed-textured,v2,jsons/MX_seq34_0_VE250_flipped.json,http://54.235.29.9/FacialAge/BNav_EC2/DepthDuration/MX_fS_VE_MTurk/MX_fS_HTML.html#194,194,1536,864,1536,864,0-31-2024,17-34-35,28,VR_target_stimuli/s6_1x_2.1_293.png,250,1x,2.1,4,1427,251,meters,jsons/MX_seq34_0_VE250_flipped.json,125640,345017,27,Człowiek
28,751770,final-intermixed-textured,v2,jsons/MX_seq34_0_VE250_flipped.json,http://54.235.29.9/FacialAge/BNav_EC2/DepthDuration/MX_fS_VE_MTurk/MX_fS_HTML.html#194,194,1536,864,1536,864,0-31-2024,17-34-35,29,VR_target_stimuli/s0_0.75x_2.6_345_BC.png,250,0.75x,2.6,4,1433,256,meters,jsons/MX_seq34_0_VE250_flipped.json,125640,345017,27,Człowiek
29,751770,final-intermixed-textured,v2,jsons/MX_seq34_0_VE250_flipped.json,http://54.235.29.9/FacialAge/BNav_EC2/DepthDuration/MX_fS_VE_MTurk/MX_fS_HTML.html#194,194,1536,864,1536,864,0-31-2024,17-34-35,30,VR_target_stimuli/s34_1.3x_2.8_294.png,250,1.3x,2.8,3,1532,235,meters,jsons/MX_seq34_0_VE250_flipped.json,125640,345017,27,Człowiek
30,751770,final-intermixed-textured,v2,jsons/MX_seq34_0_VE250_flipped.json,http://54.235.29.9/FacialAge/BNav_EC2/DepthDuration/MX_fS_VE_MTurk/MX_fS_HTML.html#194,194,1536,864,1536,864,0-31-2024,17-34-35,31,VR_target_stimuli/s13_1x_2.4_310_BC.png,250,1x,2.4,3,1472,249,meters,jsons/MX_seq34_0_VE250_flipped.json,125640,345017,27,Człowiek
31,751770,final-intermixed-textured,v2,jsons/MX_seq34_0_VE250_flipped.json,http://54.235.29.9/FacialAge/BNav_EC2/DepthDuration/MX_fS_VE_MTurk/MX_fS_HTML.html#194,194,1536,864,1536,864,0-31-2024,17-34-35,32,VR_target_stimuli/s14_1.3x_3.83_359_BC.png,250,1.3x,3.83,5,1388,252,meters,jsons/MX_seq34_0_VE250_flipped.json,125640,345017,27,Człowiek
32,751770,final-intermixed-textured,v2,jsons/MX_seq34_0_VE250_flipped.json,http://54.235.29.9/FacialAge/BNav_EC2/DepthDuration/MX_fS_VE_MTurk/MX_fS_HTML.html#194,194,1536,864,1536,864,0-31-2024,17-34-35,33,VR_target_stimuli/s47_0.75x_3.45_366.png,250,0.75x,3.45,0,2487,253,meters,jsons/MX_seq34_0_VE250_flipped.json,125640,345017,27,Człowiek
33,751770,final-intermixed-textured,v2,jsons/MX_seq34_0_VE250_flipped.json,http://54.235.29.9/FacialAge/BNav_EC2/DepthDuration/MX_fS_VE_MTurk/MX_fS_HTML.html#194,194,1536,864,1536,864,0-31-2024,17-34-35,34,catch_stimuli/c3_BC.png,250,,,0,2017,251,meters,jsons/MX_seq34_0_VE250_flipped.json,125640,345017,27,Człowiek
34,751770,final-intermixed-textured,v2,jsons/MX_seq34_0_VE250_flipped.json,http://54.235.29.9/FacialAge/BNav_EC2/DepthDuration/MX_fS_VE_MTurk/MX_fS_HTML.html#194,194,1536,864,1536,864,0-31-2024,17-34-35,35,VR_target_stimuli/s29_1.3x_1.3_253_BC.png,250,1.3x,1.3,2,1686,250,meters,jsons/MX_seq34_0_VE250_flipped.json,125640,345017,27,Człowiek
35,751770,final-intermixed-textured,v2,jsons/MX_seq34_0_VE250_flipped.json,http://54.235.29.9/FacialAge/BNav_EC2/DepthDuration/MX_fS_VE_MTurk/MX_fS_HTML.html#194,194,1536,864,1536,864,0-31-2024,17-34-35,36,VR_target_stimuli/s28_1x_3.2_362_BC.png,250,1x,3.2,3,1459,243,meters,jsons/MX_seq34_0_VE250_flipped.json,125640,345017,27,Człowiek
36,751770,final-intermixed-textured,v2,jsons/MX_seq34_0_VE250_flipped.json,http://54.235.29.9/FacialAge/BNav_EC2/DepthDuration/MX_fS_VE_MTurk/MX_fS_HTML.html#194,194,1536,864,1536,864,0-31-2024,17-34-35,37,VR_target_stimuli/s48_0.75x_2.55_243.png,250,0.75x,2.55,4,1370,264,meters,jsons/MX_seq34_0_VE250_flipped.json,125640,345017,27,Człowiek
37,751770,final-intermixed-textured,v2,jsons/MX_seq34_0_VE250_flipped.json,http://54.235.29.9/FacialAge/BNav_EC2/DepthDuration/MX_fS_VE_MTurk/MX_fS_HTML.html#194,194,1536,864,1536,864,0-31-2024,17-34-35,38,VR_target_stimuli/s19_0.75x_1.21_257_BC.png,250,0.75x,1.21,3,1403,257,meters,jsons/MX_seq34_0_VE250_flipped.json,125640,345017,27,Człowiek
38,751770,final-intermixed-textured,v2,jsons/MX_seq34_0_VE250_flipped.json,http://54.235.29.9/FacialAge/BNav_EC2/DepthDuration/MX_fS_VE_MTurk/MX_fS_HTML.html#194,194,1536,864,1536,864,0-31-2024,17-34-35,39,VR_target_stimuli/s21_1.3x_4.22_384.png,250,1.3x,4.22,5,1415,236,meters,jsons/MX_seq34_0_VE250_flipped.json,125640,345017,27,Człowiek
39,751770,final-intermixed-textured,v2,jsons/MX_seq34_0_VE250_flipped.json,http://54.235.29.9/FacialAge/BNav_EC2/DepthDuration/MX_fS_VE_MTurk/MX_fS_HTML.html#194,194,1536,864,1536,864,0-31-2024,17-34-35,40,VR_target_stimuli/s8_1x_3.1_332.png,250,1x,3.1,6,1449,248,meters,jsons/MX_seq34_0_VE250_flipped.json,125640,345017,27,Człowiek
40,751770,final-intermixed-textured,v2,jsons/MX_seq34_0_VE250_flipped.json,http://54.235.29.9/FacialAge/BNav_EC2/DepthDuration/MX_fS_VE_MTurk/MX_fS_HTML.html#194,194,1536,864,1536,864,0-31-2024,17-34-35,41,VR_target_stimuli/s27_1.3x_1.76_250_BC.png,250,1.3x,1.76,3,1436,250,meters,jsons/MX_seq34_0_VE250_flipped.json,125640,345017,27,Człowiek
41,751770,final-intermixed-textured,v2,jsons/MX_seq34_0_VE250_flipped.json,http://54.235.29.9/FacialAge/BNav_EC2/DepthDuration/MX_fS_VE_MTurk/MX_fS_HTML.html#194,194,1536,864,1536,864,0-31-2024,17-34-35,42,VR_target_stimuli/s15_0.75x_4.2_388_BC.png,250,0.75x,4.2,6,1476,245,meters,jsons/MX_seq34_0_VE250_flipped.json,125640,345017,27,Człowiek
42,751770,final-intermixed-textured,v2,jsons/MX_seq34_0_VE250_flipped.json,http://54.235.29.9/FacialAge/BNav_EC2/DepthDuration/MX_fS_VE_MTurk/MX_fS_HTML.html#194,194,1536,864,1536,864,0-31-2024,17-34-35,43,VR_target_stimuli/s4_1x_1.4_313.png,250,1x,1.4,2,1419,251,meters,jsons/MX_seq34_0_VE250_flipped.json,125640,345017,27,Człowiek
43,751770,final-intermixed-textured,v2,jsons/MX_seq34_0_VE250_flipped.json,http://54.235.29.9/FacialAge/BNav_EC2/DepthDuration/MX_fS_VE_MTurk/MX_fS_HTML.html#194,194,1536,864,1536,864,0-31-2024,17-34-35,44,VR_target_stimuli/s35_0.75x_2_323.png,250,0.75x,2.0,3,1426,252,meters,jsons/MX_seq34_0_VE250_flipped.json,125640,345017,27,Człowiek
44,751770,final-intermixed-textured,v2,jsons/MX_seq34_0_VE250_flipped.json,http://54.235.29.9/FacialAge/BNav_EC2/DepthDuration/MX_fS_VE_MTurk/MX_fS_HTML.html#194,194,1536,864,1536,864,0-31-2024,17-34-35,45,catch_stimuli/c4_BC.png,250,,,0,1650,249,meters,jsons/MX_seq34_0_VE250_flipped.json,125640,345017,27,Człowiek
45,751770,final-intermixed-textured,v2,jsons/MX_seq34_0_VE250_flipped.json,http://54.235.29.9/FacialAge/BNav_EC2/DepthDuration/MX_fS_VE_MTurk/MX_fS_HTML.html#194,194,1536,864,1536,864,0-31-2024,17-34-35,46,VR_target_stimuli/s49_1.3x_4.67_354.png,250,1.3x,4.67,4,1405,248,meters,jsons/MX_seq34_0_VE250_flipped.json,125640,345017,27,Człowiek
46,751770,final-intermixed-textured,v2,jsons/MX_seq34_0_VE250_flipped.json,http://54.235.29.9/FacialAge/BNav_EC2/DepthDuration/MX_fS_VE_MTurk/MX_fS_HTML.html#194,194,1536,864,1536,864,0-31-2024,17-34-35,47,VR_target_stimuli/s7_1x_1.5_255_BC.png,250,1x,1.5,3,1395,250,meters,jsons/MX_seq34_0_VE250_flipped.json,125640,345017,27,Człowiek
47,751770,final-intermixed-textured,v2,jsons/MX_seq34_0_VE250_flipped.json,http://54.235.29.9/FacialAge/BNav_EC2/DepthDuration/MX_fS_VE_MTurk/MX_fS_HTML.html#194,194,1536,864,1536,864,0-31-2024,17-34-35,48,VR_target_stimuli/s20_1x_4.99_398.png,250,1x,4.99,4,1412,252,meters,jsons/MX_seq34_0_VE250_flipped.json,125640,345017,27,Człowiek
48,751770,final-intermixed-textured,v2,jsons/MX_seq34_0_VE250_flipped.json,http://54.235.29.9/FacialAge/BNav_EC2/DepthDuration/MX_fS_VE_MTurk/MX_fS_HTML.html#194,194,1536,864,1536,864,0-31-2024,17-34-35,49,VR_target_stimuli/s31_0.75x_4.96_329.png,250,0.75x,4.96,5,1362,250,meters,jsons/MX_seq34_0_VE250_flipped.json,125640,345017,27,Człowiek
49,751770,final-intermixed-textured,v2,jsons/MX_seq34_0_VE250_flipped.json,http://54.235.29.9/FacialAge/BNav_EC2/DepthDuration/MX_fS_VE_MTurk/MX_fS_HTML.html#194,194,1536,864,1536,864,0-31-2024,17-34-35,50,VR_target_stimuli/s33_1.3x_3.1_378.png,250,1.3x,3.1,4,1413,252,meters,jsons/MX_seq34_0_VE250_flipped.json,125640,345017,27,Człowiek
50,751770,final-intermixed-textured,v2,jsons/MX_seq34_0_VE250_flipped.json,http://54.235.29.9/FacialAge/BNav_EC2/DepthDuration/MX_fS_VE_MTurk/MX_fS_HTML.html#194,194,1536,864,1536,864,0-31-2024,17-34-35,51,VR_target_stimuli/s52_0.75x_3.2_270_BC.png,250,0.75x,3.2,5,1442,250,meters,jsons/MX_seq34_0_VE250_flipped.json,125640,345017,27,Człowiek
51,751770,final-intermixed-textured,v2,jsons/MX_seq34_0_VE250_flipped.json,http://54.235.29.9/FacialAge/BNav_EC2/DepthDuration/MX_fS_VE_MTurk/MX_fS_HTML.html#194,194,1536,864,1536,864,0-31-2024,17-34-35,52,VR_target_stimuli/s32_1x_1.5_218_BC.png,250,1x,1.5,3,1802,253,meters,jsons/MX_seq34_0_VE250_flipped.json,125640,345017,27,Człowiek
52,751770,final-intermixed-textured,v2,jsons/MX_seq34_0_VE250_flipped.json,http://54.235.29.9/FacialAge/BNav_EC2/DepthDuration/MX_fS_VE_MTurk/MX_fS_HTML.html#194,194,1536,864,1536,864,0-31-2024,17-34-35,53,catch_stimuli/c5_BC.png,250,,,0,1677,250,meters,jsons/MX_seq34_0_VE250_flipped.json,125640,345017,27,Człowiek
53,751770,final-intermixed-textured,v2,jsons/MX_seq34_0_VE250_flipped.json,http://54.235.29.9/FacialAge/BNav_EC2/DepthDuration/MX_fS_VE_MTurk/MX_fS_HTML.html#194,194,1536,864,1536,864,0-31-2024,17-34-35,54,VR_target_stimuli/s18_1.3x_2.25_368_BC.png,250,1.3x,2.25,3,1363,253,meters,jsons/MX_seq34_0_VE250_flipped.json,125640,345017,27,Człowiek
54,751770,final-intermixed-textured,v2,jsons/MX_seq34_0_VE250_flipped.json,http://54.235.29.9/FacialAge/BNav_EC2/DepthDuration/MX_fS_VE_MTurk/MX_fS_HTML.html#194,194,1536,864,1536,864,0-31-2024,17-34-35,55,VR_target_stimuli/s39_1x_1_207_BC.png,250,1x,1.0,2,1385,239,meters,jsons/MX_seq34_0_VE250_flipped.json,125640,345017,27,Człowiek
55,751770,final-intermixed-textured,v2,jsons/MX_seq34_0_VE250_flipped.json,http://54.235.29.9/FacialAge/BNav_EC2/DepthDuration/MX_fS_VE_MTurk/MX_fS_HTML.html#194,194,1536,864,1536,864,0-31-2024,17-34-35,56,VR_target_stimuli/s51_0.75x_3.64_460.png,250,0.75x,3.64,4,1413,247,meters,jsons/MX_seq34_0_VE250_flipped.json,125640,345017,27,Człowiek
56,751770,final-intermixed-textured,v2,jsons/MX_seq34_0_VE250_flipped.json,http://54.235.29.9/FacialAge/BNav_EC2/DepthDuration/MX_fS_VE_MTurk/MX_fS_HTML.html#194,194,1536,864,1536,864,0-31-2024,17-34-35,57,VR_target_stimuli/s43_1.3x_2.2_363_BC.png,250,1.3x,2.2,3,1360,254,meters,jsons/MX_seq34_0_VE250_flipped.json,125640,345017,27,Człowiek
57,751770,final-intermixed-textured,v2,jsons/MX_seq34_0_VE250_flipped.json,http://54.235.29.9/FacialAge/BNav_EC2/DepthDuration/MX_fS_VE_MTurk/MX_fS_HTML.html#194,194,1536,864,1536,864,0-31-2024,17-34-35,58,VR_target_stimuli/s24_1.3x_3.3_352.png,250,1.3x,3.3,4,1323,252,meters,jsons/MX_seq34_0_VE250_flipped.json,125640,345017,27,Człowiek
58,751770,final-intermixed-textured,v2,jsons/MX_seq34_0_VE250_flipped.json,http://54.235.29.9/FacialAge/BNav_EC2/DepthDuration/MX_fS_VE_MTurk/MX_fS_HTML.html#194,194,1536,864,1536,864,0-31-2024,17-34-35,59,VR_target_stimuli/s10_1x_2.7_324.png,250,1x,2.7,5,1420,258,meters,jsons/MX_seq34_0_VE250_flipped.json,125640,345017,27,Człowiek
59,751770,final-intermixed-textured,v2,jsons/MX_seq34_0_VE250_flipped.json,http://54.235.29.9/FacialAge/BNav_EC2/DepthDuration/MX_fS_VE_MTurk/MX_fS_HTML.html#194,194,1536,864,1536,864,0-31-2024,17-34-35,60,VR_target_stimuli/s36_0.75x_4.1_407_BC.png,250,0.75x,4.1,4,1397,237,meters,jsons/MX_seq34_0_VE250_flipped.json,125640,345017,27,Człowiek
