,subjID,experimentName,versionName,sequenceName,url,selected_row,windowWidth,windowHeight,screenWidth,screenHeight,startDate,startTime,trial,stimulus,duration,scale,actual_depth,depth_estimate,trial_RT,log_sceneDuration,unitSelection,seq_filepath,experimentTime,totalTime,age,gender
0,803507,final-intermixed-textured,v2,jsons/MX_seq37_0_VE250.json,http://54.235.29.9/FacialAge/BNav_EC2/DepthDuration/MX_fS_VE_MTurk/MX_fS_HTML.html#125,125,1550,797,1600,900,0-31-2024,15-8-19,1,VR_target_stimuli/s23_0.75x_3.65_351_BC.png,250,0.75x,3.65,0.0,3655,250,meters,jsons/MX_seq37_0_VE250.json,259142,612637,34,Woman
1,803507,final-intermixed-textured,v2,jsons/MX_seq37_0_VE250.json,http://54.235.29.9/FacialAge/BNav_EC2/DepthDuration/MX_fS_VE_MTurk/MX_fS_HTML.html#125,125,1550,797,1600,900,0-31-2024,15-8-19,2,VR_target_stimuli/s26_1x_4_433_BC.png,250,1x,4.0,3.0,3650,250,meters,jsons/MX_seq37_0_VE250.json,259142,612637,34,Woman
2,803507,final-intermixed-textured,v2,jsons/MX_seq37_0_VE250.json,http://54.235.29.9/FacialAge/BNav_EC2/DepthDuration/MX_fS_VE_MTurk/MX_fS_HTML.html#125,125,1550,797,1600,900,0-31-2024,15-8-19,3,VR_target_stimuli/s12_1.3x_3.1_375.png,250,1.3x,3.1,3.0,3492,249,meters,jsons/MX_seq37_0_VE250.json,259142,612637,34,Woman
3,803507,final-intermixed-textured,v2,jsons/MX_seq37_0_VE250.json,http://54.235.29.9/FacialAge/BNav_EC2/DepthDuration/MX_fS_VE_MTurk/MX_fS_HTML.html#125,125,1550,797,1600,900,0-31-2024,15-8-19,4,VR_target_stimuli/s30_1x_2.3_334.png,250,1x,2.3,3.0,3437,250,meters,jsons/MX_seq37_0_VE250.json,259142,612637,34,Woman
4,803507,final-intermixed-textured,v2,jsons/MX_seq37_0_VE250.json,http://54.235.29.9/FacialAge/BNav_EC2/DepthDuration/MX_fS_VE_MTurk/MX_fS_HTML.html#125,125,1550,797,1600,900,0-31-2024,15-8-19,5,VR_target_stimuli/s16_0.75x_1_217.png,250,0.75x,1.0,2.0,4681,250,meters,jsons/MX_seq37_0_VE250.json,259142,612637,34,Woman
5,803507,final-intermixed-textured,v2,jsons/MX_seq37_0_VE250.json,http://54.235.29.9/FacialAge/BNav_EC2/DepthDuration/MX_fS_VE_MTurk/MX_fS_HTML.html#125,125,1550,797,1600,900,0-31-2024,15-8-19,6,VR_target_stimuli/s17_1.3x_1.8_300_BC.png,250,1.3x,1.8,2.0,4906,248,meters,jsons/MX_seq37_0_VE250.json,259142,612637,34,Woman
6,803507,final-intermixed-textured,v2,jsons/MX_seq37_0_VE250.json,http://54.235.29.9/FacialAge/BNav_EC2/DepthDuration/MX_fS_VE_MTurk/MX_fS_HTML.html#125,125,1550,797,1600,900,0-31-2024,15-8-19,7,catch_stimuli/c0.png,250,,,0.0,3407,249,meters,jsons/MX_seq37_0_VE250.json,259142,612637,34,Woman
7,803507,final-intermixed-textured,v2,jsons/MX_seq37_0_VE250.json,http://54.235.29.9/FacialAge/BNav_EC2/DepthDuration/MX_fS_VE_MTurk/MX_fS_HTML.html#125,125,1550,797,1600,900,0-31-2024,15-8-19,8,VR_target_stimuli/s5_1.3x_4_393_BC.png,250,1.3x,4.0,0.0,4112,250,meters,jsons/MX_seq37_0_VE250.json,259142,612637,34,Woman
8,803507,final-intermixed-textured,v2,jsons/MX_seq37_0_VE250.json,http://54.235.29.9/FacialAge/BNav_EC2/DepthDuration/MX_fS_VE_MTurk/MX_fS_HTML.html#125,125,1550,797,1600,900,0-31-2024,15-8-19,9,VR_target_stimuli/s37_1x_3.3_563_BC.png,250,1x,3.3,3.0,3391,249,meters,jsons/MX_seq37_0_VE250.json,259142,612637,34,Woman
9,803507,final-intermixed-textured,v2,jsons/MX_seq37_0_VE250.json,http://54.235.29.9/FacialAge/BNav_EC2/DepthDuration/MX_fS_VE_MTurk/MX_fS_HTML.html#125,125,1550,797,1600,900,0-31-2024,15-8-19,10,VR_target_stimuli/s46_0.75x_2.42_343.png,250,0.75x,2.42,3.0,4518,250,meters,jsons/MX_seq37_0_VE250.json,259142,612637,34,Woman
10,803507,final-intermixed-textured,v2,jsons/MX_seq37_0_VE250.json,http://54.235.29.9/FacialAge/BNav_EC2/DepthDuration/MX_fS_VE_MTurk/MX_fS_HTML.html#125,125,1550,797,1600,900,0-31-2024,15-8-19,11,VR_target_stimuli/s22_1x_4.29_354.png,250,1x,4.29,4.0,3987,250,meters,jsons/MX_seq37_0_VE250.json,259142,612637,34,Woman
11,803507,final-intermixed-textured,v2,jsons/MX_seq37_0_VE250.json,http://54.235.29.9/FacialAge/BNav_EC2/DepthDuration/MX_fS_VE_MTurk/MX_fS_HTML.html#125,125,1550,797,1600,900,0-31-2024,15-8-19,12,VR_target_stimuli/s42_1.3x_3.2_305.png,250,1.3x,3.2,3.0,5099,250,meters,jsons/MX_seq37_0_VE250.json,259142,612637,34,Woman
12,803507,final-intermixed-textured,v2,jsons/MX_seq37_0_VE250.json,http://54.235.29.9/FacialAge/BNav_EC2/DepthDuration/MX_fS_VE_MTurk/MX_fS_HTML.html#125,125,1550,797,1600,900,0-31-2024,15-8-19,13,VR_target_stimuli/s25_0.75x_1.4_281_BC.png,250,0.75x,1.4,3.0,4140,249,meters,jsons/MX_seq37_0_VE250.json,259142,612637,34,Woman
13,803507,final-intermixed-textured,v2,jsons/MX_seq37_0_VE250.json,http://54.235.29.9/FacialAge/BNav_EC2/DepthDuration/MX_fS_VE_MTurk/MX_fS_HTML.html#125,125,1550,797,1600,900,0-31-2024,15-8-19,14,VR_target_stimuli/s50_1.3x_4.53_518.png,250,1.3x,4.53,0.0,2611,248,meters,jsons/MX_seq37_0_VE250.json,259142,612637,34,Woman
14,803507,final-intermixed-textured,v2,jsons/MX_seq37_0_VE250.json,http://54.235.29.9/FacialAge/BNav_EC2/DepthDuration/MX_fS_VE_MTurk/MX_fS_HTML.html#125,125,1550,797,1600,900,0-31-2024,15-8-19,15,VR_target_stimuli/s53_1x_1.6_387.png,250,1x,1.6,0.0,2945,248,meters,jsons/MX_seq37_0_VE250.json,259142,612637,34,Woman
15,803507,final-intermixed-textured,v2,jsons/MX_seq37_0_VE250.json,http://54.235.29.9/FacialAge/BNav_EC2/DepthDuration/MX_fS_VE_MTurk/MX_fS_HTML.html#125,125,1550,797,1600,900,0-31-2024,15-8-19,16,VR_target_stimuli/s38_0.75x_3.55_346.png,250,0.75x,3.55,1.5,12021,249,meters,jsons/MX_seq37_0_VE250.json,259142,612637,34,Woman
16,803507,final-intermixed-textured,v2,jsons/MX_seq37_0_VE250.json,http://54.235.29.9/FacialAge/BNav_EC2/DepthDuration/MX_fS_VE_MTurk/MX_fS_HTML.html#125,125,1550,797,1600,900,0-31-2024,15-8-19,17,catch_stimuli/c1.png,250,,,4.0,5372,249,meters,jsons/MX_seq37_0_VE250.json,259142,612637,34,Woman
17,803507,final-intermixed-textured,v2,jsons/MX_seq37_0_VE250.json,http://54.235.29.9/FacialAge/BNav_EC2/DepthDuration/MX_fS_VE_MTurk/MX_fS_HTML.html#125,125,1550,797,1600,900,0-31-2024,15-8-19,18,VR_target_stimuli/s9_0.75x_1.2_260_BC.png,250,0.75x,1.2,0.0,2514,249,meters,jsons/MX_seq37_0_VE250.json,259142,612637,34,Woman
18,803507,final-intermixed-textured,v2,jsons/MX_seq37_0_VE250.json,http://54.235.29.9/FacialAge/BNav_EC2/DepthDuration/MX_fS_VE_MTurk/MX_fS_HTML.html#125,125,1550,797,1600,900,0-31-2024,15-8-19,19,VR_target_stimuli/s44_1.3x_4.4_325_BC.png,250,1.3x,4.4,4.0,3069,249,meters,jsons/MX_seq37_0_VE250.json,259142,612637,34,Woman
19,803507,final-intermixed-textured,v2,jsons/MX_seq37_0_VE250.json,http://54.235.29.9/FacialAge/BNav_EC2/DepthDuration/MX_fS_VE_MTurk/MX_fS_HTML.html#125,125,1550,797,1600,900,0-31-2024,15-8-19,20,VR_target_stimuli/s3_1x_5_385_BC.png,250,1x,5.0,4.0,3079,249,meters,jsons/MX_seq37_0_VE250.json,259142,612637,34,Woman
20,803507,final-intermixed-textured,v2,jsons/MX_seq37_0_VE250.json,http://54.235.29.9/FacialAge/BNav_EC2/DepthDuration/MX_fS_VE_MTurk/MX_fS_HTML.html#125,125,1550,797,1600,900,0-31-2024,15-8-19,21,VR_target_stimuli/s1_1.3x_1.7_261_BC.png,250,1.3x,1.7,4.5,5089,250,meters,jsons/MX_seq37_0_VE250.json,259142,612637,34,Woman
21,803507,final-intermixed-textured,v2,jsons/MX_seq37_0_VE250.json,http://54.235.29.9/FacialAge/BNav_EC2/DepthDuration/MX_fS_VE_MTurk/MX_fS_HTML.html#125,125,1550,797,1600,900,0-31-2024,15-8-19,22,VR_target_stimuli/s11_0.75x_5_359.png,250,0.75x,5.0,2.5,4968,249,meters,jsons/MX_seq37_0_VE250.json,259142,612637,34,Woman
22,803507,final-intermixed-textured,v2,jsons/MX_seq37_0_VE250.json,http://54.235.29.9/FacialAge/BNav_EC2/DepthDuration/MX_fS_VE_MTurk/MX_fS_HTML.html#125,125,1550,797,1600,900,0-31-2024,15-8-19,23,VR_target_stimuli/s2_1x_2.7_390_BC.png,250,1x,2.7,2.0,3297,249,meters,jsons/MX_seq37_0_VE250.json,259142,612637,34,Woman
23,803507,final-intermixed-textured,v2,jsons/MX_seq37_0_VE250.json,http://54.235.29.9/FacialAge/BNav_EC2/DepthDuration/MX_fS_VE_MTurk/MX_fS_HTML.html#125,125,1550,797,1600,900,0-31-2024,15-8-19,24,VR_target_stimuli/s6_0.75x_2.1_290_BC.png,250,0.75x,2.1,3.0,3561,249,meters,jsons/MX_seq37_0_VE250.json,259142,612637,34,Woman
24,803507,final-intermixed-textured,v2,jsons/MX_seq37_0_VE250.json,http://54.235.29.9/FacialAge/BNav_EC2/DepthDuration/MX_fS_VE_MTurk/MX_fS_HTML.html#125,125,1550,797,1600,900,0-31-2024,15-8-19,25,VR_target_stimuli/s0_1.3x_2.6_356.png,250,1.3x,2.6,2.0,3377,249,meters,jsons/MX_seq37_0_VE250.json,259142,612637,34,Woman
25,803507,final-intermixed-textured,v2,jsons/MX_seq37_0_VE250.json,http://54.235.29.9/FacialAge/BNav_EC2/DepthDuration/MX_fS_VE_MTurk/MX_fS_HTML.html#125,125,1550,797,1600,900,0-31-2024,15-8-19,26,catch_stimuli/c2.png,250,,,2.0,3159,248,meters,jsons/MX_seq37_0_VE250.json,259142,612637,34,Woman
26,803507,final-intermixed-textured,v2,jsons/MX_seq37_0_VE250.json,http://54.235.29.9/FacialAge/BNav_EC2/DepthDuration/MX_fS_VE_MTurk/MX_fS_HTML.html#125,125,1550,797,1600,900,0-31-2024,15-8-19,27,VR_target_stimuli/s34_1x_2.8_283.png,250,1x,2.8,4.0,3375,250,meters,jsons/MX_seq37_0_VE250.json,259142,612637,34,Woman
27,803507,final-intermixed-textured,v2,jsons/MX_seq37_0_VE250.json,http://54.235.29.9/FacialAge/BNav_EC2/DepthDuration/MX_fS_VE_MTurk/MX_fS_HTML.html#125,125,1550,797,1600,900,0-31-2024,15-8-19,28,VR_target_stimuli/s13_1x_2.4_310.png,250,1x,2.4,4.0,2859,250,meters,jsons/MX_seq37_0_VE250.json,259142,612637,34,Woman
28,803507,final-intermixed-textured,v2,jsons/MX_seq37_0_VE250.json,http://54.235.29.9/FacialAge/BNav_EC2/DepthDuration/MX_fS_VE_MTurk/MX_fS_HTML.html#125,125,1550,797,1600,900,0-31-2024,15-8-19,29,VR_target_stimuli/s14_0.75x_3.83_355.png,250,0.75x,3.83,3.0,3338,250,meters,jsons/MX_seq37_0_VE250.json,259142,612637,34,Woman
29,803507,final-intermixed-textured,v2,jsons/MX_seq37_0_VE250.json,http://54.235.29.9/FacialAge/BNav_EC2/DepthDuration/MX_fS_VE_MTurk/MX_fS_HTML.html#125,125,1550,797,1600,900,0-31-2024,15-8-19,30,VR_target_stimuli/s47_1.3x_3.45_373.png,250,1.3x,3.45,3.0,2904,250,meters,jsons/MX_seq37_0_VE250.json,259142,612637,34,Woman
30,803507,final-intermixed-textured,v2,jsons/MX_seq37_0_VE250.json,http://54.235.29.9/FacialAge/BNav_EC2/DepthDuration/MX_fS_VE_MTurk/MX_fS_HTML.html#125,125,1550,797,1600,900,0-31-2024,15-8-19,31,VR_target_stimuli/s29_1x_1.3_250_BC.png,250,1x,1.3,0.0,2912,249,meters,jsons/MX_seq37_0_VE250.json,259142,612637,34,Woman
31,803507,final-intermixed-textured,v2,jsons/MX_seq37_0_VE250.json,http://54.235.29.9/FacialAge/BNav_EC2/DepthDuration/MX_fS_VE_MTurk/MX_fS_HTML.html#125,125,1550,797,1600,900,0-31-2024,15-8-19,32,VR_target_stimuli/s28_1.3x_3.2_365_BC.png,250,1.3x,3.2,0.0,3218,249,meters,jsons/MX_seq37_0_VE250.json,259142,612637,34,Woman
32,803507,final-intermixed-textured,v2,jsons/MX_seq37_0_VE250.json,http://54.235.29.9/FacialAge/BNav_EC2/DepthDuration/MX_fS_VE_MTurk/MX_fS_HTML.html#125,125,1550,797,1600,900,0-31-2024,15-8-19,33,VR_target_stimuli/s48_0.75x_2.55_243_BC.png,250,0.75x,2.55,3.0,3429,250,meters,jsons/MX_seq37_0_VE250.json,259142,612637,34,Woman
33,803507,final-intermixed-textured,v2,jsons/MX_seq37_0_VE250.json,http://54.235.29.9/FacialAge/BNav_EC2/DepthDuration/MX_fS_VE_MTurk/MX_fS_HTML.html#125,125,1550,797,1600,900,0-31-2024,15-8-19,34,catch_stimuli/c3.png,250,,,4.0,3796,248,meters,jsons/MX_seq37_0_VE250.json,259142,612637,34,Woman
34,803507,final-intermixed-textured,v2,jsons/MX_seq37_0_VE250.json,http://54.235.29.9/FacialAge/BNav_EC2/DepthDuration/MX_fS_VE_MTurk/MX_fS_HTML.html#125,125,1550,797,1600,900,0-31-2024,15-8-19,35,VR_target_stimuli/s19_1.3x_1.21_270_BC.png,250,1.3x,1.21,0.0,2695,248,meters,jsons/MX_seq37_0_VE250.json,259142,612637,34,Woman
35,803507,final-intermixed-textured,v2,jsons/MX_seq37_0_VE250.json,http://54.235.29.9/FacialAge/BNav_EC2/DepthDuration/MX_fS_VE_MTurk/MX_fS_HTML.html#125,125,1550,797,1600,900,0-31-2024,15-8-19,36,VR_target_stimuli/s21_1x_4.22_379_BC.png,250,1x,4.22,1.5,6158,248,meters,jsons/MX_seq37_0_VE250.json,259142,612637,34,Woman
36,803507,final-intermixed-textured,v2,jsons/MX_seq37_0_VE250.json,http://54.235.29.9/FacialAge/BNav_EC2/DepthDuration/MX_fS_VE_MTurk/MX_fS_HTML.html#125,125,1550,797,1600,900,0-31-2024,15-8-19,37,VR_target_stimuli/s8_0.75x_3.1_325.png,250,0.75x,3.1,6.0,3199,249,meters,jsons/MX_seq37_0_VE250.json,259142,612637,34,Woman
37,803507,final-intermixed-textured,v2,jsons/MX_seq37_0_VE250.json,http://54.235.29.9/FacialAge/BNav_EC2/DepthDuration/MX_fS_VE_MTurk/MX_fS_HTML.html#125,125,1550,797,1600,900,0-31-2024,15-8-19,38,VR_target_stimuli/s27_0.75x_1.76_243_BC.png,250,0.75x,1.76,4.0,3899,248,meters,jsons/MX_seq37_0_VE250.json,259142,612637,34,Woman
38,803507,final-intermixed-textured,v2,jsons/MX_seq37_0_VE250.json,http://54.235.29.9/FacialAge/BNav_EC2/DepthDuration/MX_fS_VE_MTurk/MX_fS_HTML.html#125,125,1550,797,1600,900,0-31-2024,15-8-19,39,VR_target_stimuli/s15_1.3x_4.2_389.png,250,1.3x,4.2,0.0,3568,249,meters,jsons/MX_seq37_0_VE250.json,259142,612637,34,Woman
39,803507,final-intermixed-textured,v2,jsons/MX_seq37_0_VE250.json,http://54.235.29.9/FacialAge/BNav_EC2/DepthDuration/MX_fS_VE_MTurk/MX_fS_HTML.html#125,125,1550,797,1600,900,0-31-2024,15-8-19,40,VR_target_stimuli/s4_1x_1.4_313.png,250,1x,1.4,4.0,3771,250,meters,jsons/MX_seq37_0_VE250.json,259142,612637,34,Woman
40,803507,final-intermixed-textured,v2,jsons/MX_seq37_0_VE250.json,http://54.235.29.9/FacialAge/BNav_EC2/DepthDuration/MX_fS_VE_MTurk/MX_fS_HTML.html#125,125,1550,797,1600,900,0-31-2024,15-8-19,41,VR_target_stimuli/s35_1.3x_2_338.png,250,1.3x,2.0,2.0,4044,249,meters,jsons/MX_seq37_0_VE250.json,259142,612637,34,Woman
41,803507,final-intermixed-textured,v2,jsons/MX_seq37_0_VE250.json,http://54.235.29.9/FacialAge/BNav_EC2/DepthDuration/MX_fS_VE_MTurk/MX_fS_HTML.html#125,125,1550,797,1600,900,0-31-2024,15-8-19,42,VR_target_stimuli/s49_0.75x_4.67_328_BC.png,250,0.75x,4.67,2.0,3391,250,meters,jsons/MX_seq37_0_VE250.json,259142,612637,34,Woman
42,803507,final-intermixed-textured,v2,jsons/MX_seq37_0_VE250.json,http://54.235.29.9/FacialAge/BNav_EC2/DepthDuration/MX_fS_VE_MTurk/MX_fS_HTML.html#125,125,1550,797,1600,900,0-31-2024,15-8-19,43,VR_target_stimuli/s7_1x_1.5_255.png,250,1x,1.5,4.0,2904,249,meters,jsons/MX_seq37_0_VE250.json,259142,612637,34,Woman
43,803507,final-intermixed-textured,v2,jsons/MX_seq37_0_VE250.json,http://54.235.29.9/FacialAge/BNav_EC2/DepthDuration/MX_fS_VE_MTurk/MX_fS_HTML.html#125,125,1550,797,1600,900,0-31-2024,15-8-19,44,VR_target_stimuli/s20_0.75x_4.99_390.png,250,0.75x,4.99,2.0,3084,249,meters,jsons/MX_seq37_0_VE250.json,259142,612637,34,Woman
44,803507,final-intermixed-textured,v2,jsons/MX_seq37_0_VE250.json,http://54.235.29.9/FacialAge/BNav_EC2/DepthDuration/MX_fS_VE_MTurk/MX_fS_HTML.html#125,125,1550,797,1600,900,0-31-2024,15-8-19,45,catch_stimuli/c4.png,250,,,4.5,5011,249,meters,jsons/MX_seq37_0_VE250.json,259142,612637,34,Woman
45,803507,final-intermixed-textured,v2,jsons/MX_seq37_0_VE250.json,http://54.235.29.9/FacialAge/BNav_EC2/DepthDuration/MX_fS_VE_MTurk/MX_fS_HTML.html#125,125,1550,797,1600,900,0-31-2024,15-8-19,46,VR_target_stimuli/s31_1.3x_4.96_342_BC.png,250,1.3x,4.96,0.0,2814,248,meters,jsons/MX_seq37_0_VE250.json,259142,612637,34,Woman
46,803507,final-intermixed-textured,v2,jsons/MX_seq37_0_VE250.json,http://54.235.29.9/FacialAge/BNav_EC2/DepthDuration/MX_fS_VE_MTurk/MX_fS_HTML.html#125,125,1550,797,1600,900,0-31-2024,15-8-19,47,VR_target_stimuli/s33_1x_3.1_366_BC.png,250,1x,3.1,6.0,3429,249,meters,jsons/MX_seq37_0_VE250.json,259142,612637,34,Woman
47,803507,final-intermixed-textured,v2,jsons/MX_seq37_0_VE250.json,http://54.235.29.9/FacialAge/BNav_EC2/DepthDuration/MX_fS_VE_MTurk/MX_fS_HTML.html#125,125,1550,797,1600,900,0-31-2024,15-8-19,48,VR_target_stimuli/s52_1x_3.2_275.png,250,1x,3.2,3.0,3601,249,meters,jsons/MX_seq37_0_VE250.json,259142,612637,34,Woman
48,803507,final-intermixed-textured,v2,jsons/MX_seq37_0_VE250.json,http://54.235.29.9/FacialAge/BNav_EC2/DepthDuration/MX_fS_VE_MTurk/MX_fS_HTML.html#125,125,1550,797,1600,900,0-31-2024,15-8-19,49,VR_target_stimuli/s32_0.75x_1.5_213_BC.png,250,0.75x,1.5,3.0,4816,249,meters,jsons/MX_seq37_0_VE250.json,259142,612637,34,Woman
49,803507,final-intermixed-textured,v2,jsons/MX_seq37_0_VE250.json,http://54.235.29.9/FacialAge/BNav_EC2/DepthDuration/MX_fS_VE_MTurk/MX_fS_HTML.html#125,125,1550,797,1600,900,0-31-2024,15-8-19,50,VR_target_stimuli/s18_1.3x_2.25_368_BC.png,250,1.3x,2.25,0.0,2553,249,meters,jsons/MX_seq37_0_VE250.json,259142,612637,34,Woman
50,803507,final-intermixed-textured,v2,jsons/MX_seq37_0_VE250.json,http://54.235.29.9/FacialAge/BNav_EC2/DepthDuration/MX_fS_VE_MTurk/MX_fS_HTML.html#125,125,1550,797,1600,900,0-31-2024,15-8-19,51,VR_target_stimuli/s39_0.75x_1_205.png,250,0.75x,1.0,2.0,3189,249,meters,jsons/MX_seq37_0_VE250.json,259142,612637,34,Woman
51,803507,final-intermixed-textured,v2,jsons/MX_seq37_0_VE250.json,http://54.235.29.9/FacialAge/BNav_EC2/DepthDuration/MX_fS_VE_MTurk/MX_fS_HTML.html#125,125,1550,797,1600,900,0-31-2024,15-8-19,52,VR_target_stimuli/s51_1x_3.64_461_BC.png,250,1x,3.64,0.0,2775,249,meters,jsons/MX_seq37_0_VE250.json,259142,612637,34,Woman
52,803507,final-intermixed-textured,v2,jsons/MX_seq37_0_VE250.json,http://54.235.29.9/FacialAge/BNav_EC2/DepthDuration/MX_fS_VE_MTurk/MX_fS_HTML.html#125,125,1550,797,1600,900,0-31-2024,15-8-19,53,catch_stimuli/c5.png,250,,,2.5,4401,249,meters,jsons/MX_seq37_0_VE250.json,259142,612637,34,Woman
53,803507,final-intermixed-textured,v2,jsons/MX_seq37_0_VE250.json,http://54.235.29.9/FacialAge/BNav_EC2/DepthDuration/MX_fS_VE_MTurk/MX_fS_HTML.html#125,125,1550,797,1600,900,0-31-2024,15-8-19,54,VR_target_stimuli/s43_1.3x_2.2_363.png,250,1.3x,2.2,0.0,2839,250,meters,jsons/MX_seq37_0_VE250.json,259142,612637,34,Woman
54,803507,final-intermixed-textured,v2,jsons/MX_seq37_0_VE250.json,http://54.235.29.9/FacialAge/BNav_EC2/DepthDuration/MX_fS_VE_MTurk/MX_fS_HTML.html#125,125,1550,797,1600,900,0-31-2024,15-8-19,55,VR_target_stimuli/s24_1x_3.3_349.png,250,1x,3.3,3.0,2532,250,meters,jsons/MX_seq37_0_VE250.json,259142,612637,34,Woman
55,803507,final-intermixed-textured,v2,jsons/MX_seq37_0_VE250.json,http://54.235.29.9/FacialAge/BNav_EC2/DepthDuration/MX_fS_VE_MTurk/MX_fS_HTML.html#125,125,1550,797,1600,900,0-31-2024,15-8-19,56,VR_target_stimuli/s10_0.75x_2.7_321.png,250,0.75x,2.7,4.0,3371,249,meters,jsons/MX_seq37_0_VE250.json,259142,612637,34,Woman
56,803507,final-intermixed-textured,v2,jsons/MX_seq37_0_VE250.json,http://54.235.29.9/FacialAge/BNav_EC2/DepthDuration/MX_fS_VE_MTurk/MX_fS_HTML.html#125,125,1550,797,1600,900,0-31-2024,15-8-19,57,VR_target_stimuli/s36_1.3x_4.1_442.png,250,1.3x,4.1,3.0,3233,249,meters,jsons/MX_seq37_0_VE250.json,259142,612637,34,Woman
57,803507,final-intermixed-textured,v2,jsons/MX_seq37_0_VE250.json,http://54.235.29.9/FacialAge/BNav_EC2/DepthDuration/MX_fS_VE_MTurk/MX_fS_HTML.html#125,125,1550,797,1600,900,0-31-2024,15-8-19,58,VR_target_stimuli/s40_1.3x_1.2_332_BC.png,250,1.3x,1.2,4.0,4722,249,meters,jsons/MX_seq37_0_VE250.json,259142,612637,34,Woman
58,803507,final-intermixed-textured,v2,jsons/MX_seq37_0_VE250.json,http://54.235.29.9/FacialAge/BNav_EC2/DepthDuration/MX_fS_VE_MTurk/MX_fS_HTML.html#125,125,1550,797,1600,900,0-31-2024,15-8-19,59,VR_target_stimuli/s41_1x_2.1_286_BC.png,250,1x,2.1,1.0,6156,248,meters,jsons/MX_seq37_0_VE250.json,259142,612637,34,Woman
59,803507,final-intermixed-textured,v2,jsons/MX_seq37_0_VE250.json,http://54.235.29.9/FacialAge/BNav_EC2/DepthDuration/MX_fS_VE_MTurk/MX_fS_HTML.html#125,125,1550,797,1600,900,0-31-2024,15-8-19,60,VR_target_stimuli/s45_0.75x_3.5_362_BC.png,250,0.75x,3.5,2.0,3555,249,meters,jsons/MX_seq37_0_VE250.json,259142,612637,34,Woman
