,subjID,experimentName,versionName,sequenceName,url,selected_row,windowWidth,windowHeight,screenWidth,screenHeight,startDate,startTime,trial,stimulus,duration,scale,actual_depth,depth_estimate,trial_RT,log_sceneDuration,unitSelection,seq_filepath,experimentTime,totalTime,age,gender
0,855482,final-intermixed-textured,v2,jsons/MX_seq45_2_VE250_flipped.json,http://54.235.29.9/FacialAge/BNav_EC2/DepthDuration/MX_fS_VE_MTurk/MX_fS_HTML.html#313,313,1920,1080,1920,1080,0-31-2024,20-48-38,1,VR_target_stimuli/s46_1x_2.42_348.png,250,1x,2.42,8.0,4270,250,meters,jsons/MX_seq45_2_VE250_flipped.json,197439,348038,22,Woman
1,855482,final-intermixed-textured,v2,jsons/MX_seq45_2_VE250_flipped.json,http://54.235.29.9/FacialAge/BNav_EC2/DepthDuration/MX_fS_VE_MTurk/MX_fS_HTML.html#313,313,1920,1080,1920,1080,0-31-2024,20-48-38,2,VR_target_stimuli/s22_1.3x_4.29_364_BC.png,250,1.3x,4.29,7.0,2527,236,meters,jsons/MX_seq45_2_VE250_flipped.json,197439,348038,22,Woman
2,855482,final-intermixed-textured,v2,jsons/MX_seq45_2_VE250_flipped.json,http://54.235.29.9/FacialAge/BNav_EC2/DepthDuration/MX_fS_VE_MTurk/MX_fS_HTML.html#313,313,1920,1080,1920,1080,0-31-2024,20-48-38,3,VR_target_stimuli/s42_0.75x_3.2_301.png,250,0.75x,3.2,13.0,4090,247,meters,jsons/MX_seq45_2_VE250_flipped.json,197439,348038,22,Woman
3,855482,final-intermixed-textured,v2,jsons/MX_seq45_2_VE250_flipped.json,http://54.235.29.9/FacialAge/BNav_EC2/DepthDuration/MX_fS_VE_MTurk/MX_fS_HTML.html#313,313,1920,1080,1920,1080,0-31-2024,20-48-38,4,VR_target_stimuli/s25_1.3x_1.4_299.png,250,1.3x,1.4,4.5,7552,238,meters,jsons/MX_seq45_2_VE250_flipped.json,197439,348038,22,Woman
4,855482,final-intermixed-textured,v2,jsons/MX_seq45_2_VE250_flipped.json,http://54.235.29.9/FacialAge/BNav_EC2/DepthDuration/MX_fS_VE_MTurk/MX_fS_HTML.html#313,313,1920,1080,1920,1080,0-31-2024,20-48-38,5,VR_target_stimuli/s50_1x_4.53_518_BC.png,250,1x,4.53,12.0,3416,247,meters,jsons/MX_seq45_2_VE250_flipped.json,197439,348038,22,Woman
5,855482,final-intermixed-textured,v2,jsons/MX_seq45_2_VE250_flipped.json,http://54.235.29.9/FacialAge/BNav_EC2/DepthDuration/MX_fS_VE_MTurk/MX_fS_HTML.html#313,313,1920,1080,1920,1080,0-31-2024,20-48-38,6,VR_target_stimuli/s53_0.75x_1.6_403_BC.png,250,0.75x,1.6,3.0,3123,247,meters,jsons/MX_seq45_2_VE250_flipped.json,197439,348038,22,Woman
6,855482,final-intermixed-textured,v2,jsons/MX_seq45_2_VE250_flipped.json,http://54.235.29.9/FacialAge/BNav_EC2/DepthDuration/MX_fS_VE_MTurk/MX_fS_HTML.html#313,313,1920,1080,1920,1080,0-31-2024,20-48-38,7,catch_stimuli/c0_BC.png,250,,,0.0,2481,248,meters,jsons/MX_seq45_2_VE250_flipped.json,197439,348038,22,Woman
7,855482,final-intermixed-textured,v2,jsons/MX_seq45_2_VE250_flipped.json,http://54.235.29.9/FacialAge/BNav_EC2/DepthDuration/MX_fS_VE_MTurk/MX_fS_HTML.html#313,313,1920,1080,1920,1080,0-31-2024,20-48-38,8,VR_target_stimuli/s38_0.75x_3.55_346.png,250,0.75x,3.55,7.0,2872,243,meters,jsons/MX_seq45_2_VE250_flipped.json,197439,348038,22,Woman
8,855482,final-intermixed-textured,v2,jsons/MX_seq45_2_VE250_flipped.json,http://54.235.29.9/FacialAge/BNav_EC2/DepthDuration/MX_fS_VE_MTurk/MX_fS_HTML.html#313,313,1920,1080,1920,1080,0-31-2024,20-48-38,9,VR_target_stimuli/s9_1.3x_1.2_276.png,250,1.3x,1.2,3.5,5351,260,meters,jsons/MX_seq45_2_VE250_flipped.json,197439,348038,22,Woman
9,855482,final-intermixed-textured,v2,jsons/MX_seq45_2_VE250_flipped.json,http://54.235.29.9/FacialAge/BNav_EC2/DepthDuration/MX_fS_VE_MTurk/MX_fS_HTML.html#313,313,1920,1080,1920,1080,0-31-2024,20-48-38,10,VR_target_stimuli/s44_1x_4.4_317.png,250,1x,4.4,11.0,3550,249,meters,jsons/MX_seq45_2_VE250_flipped.json,197439,348038,22,Woman
10,855482,final-intermixed-textured,v2,jsons/MX_seq45_2_VE250_flipped.json,http://54.235.29.9/FacialAge/BNav_EC2/DepthDuration/MX_fS_VE_MTurk/MX_fS_HTML.html#313,313,1920,1080,1920,1080,0-31-2024,20-48-38,11,VR_target_stimuli/s3_1.3x_5_390_BC.png,250,1.3x,5.0,9.0,2301,248,meters,jsons/MX_seq45_2_VE250_flipped.json,197439,348038,22,Woman
11,855482,final-intermixed-textured,v2,jsons/MX_seq45_2_VE250_flipped.json,http://54.235.29.9/FacialAge/BNav_EC2/DepthDuration/MX_fS_VE_MTurk/MX_fS_HTML.html#313,313,1920,1080,1920,1080,0-31-2024,20-48-38,12,VR_target_stimuli/s1_0.75x_1.7_265_BC.png,250,0.75x,1.7,6.0,2990,252,meters,jsons/MX_seq45_2_VE250_flipped.json,197439,348038,22,Woman
12,855482,final-intermixed-textured,v2,jsons/MX_seq45_2_VE250_flipped.json,http://54.235.29.9/FacialAge/BNav_EC2/DepthDuration/MX_fS_VE_MTurk/MX_fS_HTML.html#313,313,1920,1080,1920,1080,0-31-2024,20-48-38,13,VR_target_stimuli/s11_1x_5_361_BC.png,250,1x,5.0,7.0,2374,249,meters,jsons/MX_seq45_2_VE250_flipped.json,197439,348038,22,Woman
13,855482,final-intermixed-textured,v2,jsons/MX_seq45_2_VE250_flipped.json,http://54.235.29.9/FacialAge/BNav_EC2/DepthDuration/MX_fS_VE_MTurk/MX_fS_HTML.html#313,313,1920,1080,1920,1080,0-31-2024,20-48-38,14,VR_target_stimuli/s2_0.75x_2.7_384_BC.png,250,0.75x,2.7,4.0,2723,263,meters,jsons/MX_seq45_2_VE250_flipped.json,197439,348038,22,Woman
14,855482,final-intermixed-textured,v2,jsons/MX_seq45_2_VE250_flipped.json,http://54.235.29.9/FacialAge/BNav_EC2/DepthDuration/MX_fS_VE_MTurk/MX_fS_HTML.html#313,313,1920,1080,1920,1080,0-31-2024,20-48-38,15,VR_target_stimuli/s6_1.3x_2.1_298.png,250,1.3x,2.1,3.0,2125,262,meters,jsons/MX_seq45_2_VE250_flipped.json,197439,348038,22,Woman
15,855482,final-intermixed-textured,v2,jsons/MX_seq45_2_VE250_flipped.json,http://54.235.29.9/FacialAge/BNav_EC2/DepthDuration/MX_fS_VE_MTurk/MX_fS_HTML.html#313,313,1920,1080,1920,1080,0-31-2024,20-48-38,16,VR_target_stimuli/s0_1x_2.6_351.png,250,1x,2.6,5.0,2072,246,meters,jsons/MX_seq45_2_VE250_flipped.json,197439,348038,22,Woman
16,855482,final-intermixed-textured,v2,jsons/MX_seq45_2_VE250_flipped.json,http://54.235.29.9/FacialAge/BNav_EC2/DepthDuration/MX_fS_VE_MTurk/MX_fS_HTML.html#313,313,1920,1080,1920,1080,0-31-2024,20-48-38,17,catch_stimuli/c1_BC.png,250,,,0.0,2051,248,meters,jsons/MX_seq45_2_VE250_flipped.json,197439,348038,22,Woman
17,855482,final-intermixed-textured,v2,jsons/MX_seq45_2_VE250_flipped.json,http://54.235.29.9/FacialAge/BNav_EC2/DepthDuration/MX_fS_VE_MTurk/MX_fS_HTML.html#313,313,1920,1080,1920,1080,0-31-2024,20-48-38,18,VR_target_stimuli/s34_1x_2.8_283_BC.png,250,1x,2.8,5.0,2838,248,meters,jsons/MX_seq45_2_VE250_flipped.json,197439,348038,22,Woman
18,855482,final-intermixed-textured,v2,jsons/MX_seq45_2_VE250_flipped.json,http://54.235.29.9/FacialAge/BNav_EC2/DepthDuration/MX_fS_VE_MTurk/MX_fS_HTML.html#313,313,1920,1080,1920,1080,0-31-2024,20-48-38,19,VR_target_stimuli/s13_0.75x_2.4_308.png,250,0.75x,2.4,7.0,3216,242,meters,jsons/MX_seq45_2_VE250_flipped.json,197439,348038,22,Woman
19,855482,final-intermixed-textured,v2,jsons/MX_seq45_2_VE250_flipped.json,http://54.235.29.9/FacialAge/BNav_EC2/DepthDuration/MX_fS_VE_MTurk/MX_fS_HTML.html#313,313,1920,1080,1920,1080,0-31-2024,20-48-38,20,VR_target_stimuli/s14_1.3x_3.83_359_BC.png,250,1.3x,3.83,7.0,2312,245,meters,jsons/MX_seq45_2_VE250_flipped.json,197439,348038,22,Woman
20,855482,final-intermixed-textured,v2,jsons/MX_seq45_2_VE250_flipped.json,http://54.235.29.9/FacialAge/BNav_EC2/DepthDuration/MX_fS_VE_MTurk/MX_fS_HTML.html#313,313,1920,1080,1920,1080,0-31-2024,20-48-38,21,VR_target_stimuli/s47_0.75x_3.45_366_BC.png,250,0.75x,3.45,10.0,2172,248,meters,jsons/MX_seq45_2_VE250_flipped.json,197439,348038,22,Woman
21,855482,final-intermixed-textured,v2,jsons/MX_seq45_2_VE250_flipped.json,http://54.235.29.9/FacialAge/BNav_EC2/DepthDuration/MX_fS_VE_MTurk/MX_fS_HTML.html#313,313,1920,1080,1920,1080,0-31-2024,20-48-38,22,VR_target_stimuli/s29_1x_1.3_250_BC.png,250,1x,1.3,5.0,3662,247,meters,jsons/MX_seq45_2_VE250_flipped.json,197439,348038,22,Woman
22,855482,final-intermixed-textured,v2,jsons/MX_seq45_2_VE250_flipped.json,http://54.235.29.9/FacialAge/BNav_EC2/DepthDuration/MX_fS_VE_MTurk/MX_fS_HTML.html#313,313,1920,1080,1920,1080,0-31-2024,20-48-38,23,VR_target_stimuli/s28_1.3x_3.2_365.png,250,1.3x,3.2,6.7,5514,248,meters,jsons/MX_seq45_2_VE250_flipped.json,197439,348038,22,Woman
23,855482,final-intermixed-textured,v2,jsons/MX_seq45_2_VE250_flipped.json,http://54.235.29.9/FacialAge/BNav_EC2/DepthDuration/MX_fS_VE_MTurk/MX_fS_HTML.html#313,313,1920,1080,1920,1080,0-31-2024,20-48-38,24,VR_target_stimuli/s48_1x_2.55_256.png,250,1x,2.55,6.0,2239,254,meters,jsons/MX_seq45_2_VE250_flipped.json,197439,348038,22,Woman
24,855482,final-intermixed-textured,v2,jsons/MX_seq45_2_VE250_flipped.json,http://54.235.29.9/FacialAge/BNav_EC2/DepthDuration/MX_fS_VE_MTurk/MX_fS_HTML.html#313,313,1920,1080,1920,1080,0-31-2024,20-48-38,25,VR_target_stimuli/s19_0.75x_1.21_257.png,250,0.75x,1.21,7.0,1918,247,meters,jsons/MX_seq45_2_VE250_flipped.json,197439,348038,22,Woman
25,855482,final-intermixed-textured,v2,jsons/MX_seq45_2_VE250_flipped.json,http://54.235.29.9/FacialAge/BNav_EC2/DepthDuration/MX_fS_VE_MTurk/MX_fS_HTML.html#313,313,1920,1080,1920,1080,0-31-2024,20-48-38,26,catch_stimuli/c2_BC.png,250,,,0.0,1561,249,meters,jsons/MX_seq45_2_VE250_flipped.json,197439,348038,22,Woman
26,855482,final-intermixed-textured,v2,jsons/MX_seq45_2_VE250_flipped.json,http://54.235.29.9/FacialAge/BNav_EC2/DepthDuration/MX_fS_VE_MTurk/MX_fS_HTML.html#313,313,1920,1080,1920,1080,0-31-2024,20-48-38,27,VR_target_stimuli/s21_1.3x_4.22_384_BC.png,250,1.3x,4.22,8.0,2584,247,meters,jsons/MX_seq45_2_VE250_flipped.json,197439,348038,22,Woman
27,855482,final-intermixed-textured,v2,jsons/MX_seq45_2_VE250_flipped.json,http://54.235.29.9/FacialAge/BNav_EC2/DepthDuration/MX_fS_VE_MTurk/MX_fS_HTML.html#313,313,1920,1080,1920,1080,0-31-2024,20-48-38,28,VR_target_stimuli/s8_1.3x_3.1_345.png,250,1.3x,3.1,9.0,2584,237,meters,jsons/MX_seq45_2_VE250_flipped.json,197439,348038,22,Woman
28,855482,final-intermixed-textured,v2,jsons/MX_seq45_2_VE250_flipped.json,http://54.235.29.9/FacialAge/BNav_EC2/DepthDuration/MX_fS_VE_MTurk/MX_fS_HTML.html#313,313,1920,1080,1920,1080,0-31-2024,20-48-38,29,VR_target_stimuli/s27_1x_1.76_248_BC.png,250,1x,1.76,15.0,2826,255,meters,jsons/MX_seq45_2_VE250_flipped.json,197439,348038,22,Woman
29,855482,final-intermixed-textured,v2,jsons/MX_seq45_2_VE250_flipped.json,http://54.235.29.9/FacialAge/BNav_EC2/DepthDuration/MX_fS_VE_MTurk/MX_fS_HTML.html#313,313,1920,1080,1920,1080,0-31-2024,20-48-38,30,VR_target_stimuli/s15_0.75x_4.2_388.png,250,0.75x,4.2,17.0,3859,263,meters,jsons/MX_seq45_2_VE250_flipped.json,197439,348038,22,Woman
30,855482,final-intermixed-textured,v2,jsons/MX_seq45_2_VE250_flipped.json,http://54.235.29.9/FacialAge/BNav_EC2/DepthDuration/MX_fS_VE_MTurk/MX_fS_HTML.html#313,313,1920,1080,1920,1080,0-31-2024,20-48-38,31,VR_target_stimuli/s4_1.3x_1.4_328_BC.png,250,1.3x,1.4,4.0,2889,246,meters,jsons/MX_seq45_2_VE250_flipped.json,197439,348038,22,Woman
31,855482,final-intermixed-textured,v2,jsons/MX_seq45_2_VE250_flipped.json,http://54.235.29.9/FacialAge/BNav_EC2/DepthDuration/MX_fS_VE_MTurk/MX_fS_HTML.html#313,313,1920,1080,1920,1080,0-31-2024,20-48-38,32,VR_target_stimuli/s35_0.75x_2_323_BC.png,250,0.75x,2.0,6.0,2346,250,meters,jsons/MX_seq45_2_VE250_flipped.json,197439,348038,22,Woman
32,855482,final-intermixed-textured,v2,jsons/MX_seq45_2_VE250_flipped.json,http://54.235.29.9/FacialAge/BNav_EC2/DepthDuration/MX_fS_VE_MTurk/MX_fS_HTML.html#313,313,1920,1080,1920,1080,0-31-2024,20-48-38,33,VR_target_stimuli/s49_1x_4.67_341.png,250,1x,4.67,7.0,2365,262,meters,jsons/MX_seq45_2_VE250_flipped.json,197439,348038,22,Woman
33,855482,final-intermixed-textured,v2,jsons/MX_seq45_2_VE250_flipped.json,http://54.235.29.9/FacialAge/BNav_EC2/DepthDuration/MX_fS_VE_MTurk/MX_fS_HTML.html#313,313,1920,1080,1920,1080,0-31-2024,20-48-38,34,catch_stimuli/c3_BC.png,250,,,0.0,1430,237,meters,jsons/MX_seq45_2_VE250_flipped.json,197439,348038,22,Woman
34,855482,final-intermixed-textured,v2,jsons/MX_seq45_2_VE250_flipped.json,http://54.235.29.9/FacialAge/BNav_EC2/DepthDuration/MX_fS_VE_MTurk/MX_fS_HTML.html#313,313,1920,1080,1920,1080,0-31-2024,20-48-38,35,VR_target_stimuli/s7_0.75x_1.5_253_BC.png,250,0.75x,1.5,5.0,3572,248,meters,jsons/MX_seq45_2_VE250_flipped.json,197439,348038,22,Woman
35,855482,final-intermixed-textured,v2,jsons/MX_seq45_2_VE250_flipped.json,http://54.235.29.9/FacialAge/BNav_EC2/DepthDuration/MX_fS_VE_MTurk/MX_fS_HTML.html#313,313,1920,1080,1920,1080,0-31-2024,20-48-38,36,VR_target_stimuli/s20_1.3x_4.99_412_BC.png,250,1.3x,4.99,11.0,2375,263,meters,jsons/MX_seq45_2_VE250_flipped.json,197439,348038,22,Woman
36,855482,final-intermixed-textured,v2,jsons/MX_seq45_2_VE250_flipped.json,http://54.235.29.9/FacialAge/BNav_EC2/DepthDuration/MX_fS_VE_MTurk/MX_fS_HTML.html#313,313,1920,1080,1920,1080,0-31-2024,20-48-38,37,VR_target_stimuli/s31_1x_4.96_333_BC.png,250,1x,4.96,13.0,3164,242,meters,jsons/MX_seq45_2_VE250_flipped.json,197439,348038,22,Woman
37,855482,final-intermixed-textured,v2,jsons/MX_seq45_2_VE250_flipped.json,http://54.235.29.9/FacialAge/BNav_EC2/DepthDuration/MX_fS_VE_MTurk/MX_fS_HTML.html#313,313,1920,1080,1920,1080,0-31-2024,20-48-38,38,VR_target_stimuli/s33_1x_3.1_366.png,250,1x,3.1,13.0,2592,249,meters,jsons/MX_seq45_2_VE250_flipped.json,197439,348038,22,Woman
38,855482,final-intermixed-textured,v2,jsons/MX_seq45_2_VE250_flipped.json,http://54.235.29.9/FacialAge/BNav_EC2/DepthDuration/MX_fS_VE_MTurk/MX_fS_HTML.html#313,313,1920,1080,1920,1080,0-31-2024,20-48-38,39,VR_target_stimuli/s52_0.75x_3.2_270.png,250,0.75x,3.2,16.0,3265,252,meters,jsons/MX_seq45_2_VE250_flipped.json,197439,348038,22,Woman
39,855482,final-intermixed-textured,v2,jsons/MX_seq45_2_VE250_flipped.json,http://54.235.29.9/FacialAge/BNav_EC2/DepthDuration/MX_fS_VE_MTurk/MX_fS_HTML.html#313,313,1920,1080,1920,1080,0-31-2024,20-48-38,40,VR_target_stimuli/s32_1.3x_1.5_224.png,250,1.3x,1.5,6.0,4896,240,meters,jsons/MX_seq45_2_VE250_flipped.json,197439,348038,22,Woman
40,855482,final-intermixed-textured,v2,jsons/MX_seq45_2_VE250_flipped.json,http://54.235.29.9/FacialAge/BNav_EC2/DepthDuration/MX_fS_VE_MTurk/MX_fS_HTML.html#313,313,1920,1080,1920,1080,0-31-2024,20-48-38,41,VR_target_stimuli/s18_0.75x_2.25_341_BC.png,250,0.75x,2.25,3.0,2321,247,meters,jsons/MX_seq45_2_VE250_flipped.json,197439,348038,22,Woman
41,855482,final-intermixed-textured,v2,jsons/MX_seq45_2_VE250_flipped.json,http://54.235.29.9/FacialAge/BNav_EC2/DepthDuration/MX_fS_VE_MTurk/MX_fS_HTML.html#313,313,1920,1080,1920,1080,0-31-2024,20-48-38,42,VR_target_stimuli/s39_1x_1_207_BC.png,250,1x,1.0,4.0,2364,249,meters,jsons/MX_seq45_2_VE250_flipped.json,197439,348038,22,Woman
42,855482,final-intermixed-textured,v2,jsons/MX_seq45_2_VE250_flipped.json,http://54.235.29.9/FacialAge/BNav_EC2/DepthDuration/MX_fS_VE_MTurk/MX_fS_HTML.html#313,313,1920,1080,1920,1080,0-31-2024,20-48-38,43,VR_target_stimuli/s51_1.3x_3.64_479.png,250,1.3x,3.64,2.0,2024,239,meters,jsons/MX_seq45_2_VE250_flipped.json,197439,348038,22,Woman
43,855482,final-intermixed-textured,v2,jsons/MX_seq45_2_VE250_flipped.json,http://54.235.29.9/FacialAge/BNav_EC2/DepthDuration/MX_fS_VE_MTurk/MX_fS_HTML.html#313,313,1920,1080,1920,1080,0-31-2024,20-48-38,44,VR_target_stimuli/s43_1x_2.2_354.png,250,1x,2.2,8.0,2349,253,meters,jsons/MX_seq45_2_VE250_flipped.json,197439,348038,22,Woman
44,855482,final-intermixed-textured,v2,jsons/MX_seq45_2_VE250_flipped.json,http://54.235.29.9/FacialAge/BNav_EC2/DepthDuration/MX_fS_VE_MTurk/MX_fS_HTML.html#313,313,1920,1080,1920,1080,0-31-2024,20-48-38,45,catch_stimuli/c4_BC.png,250,,,0.0,1677,236,meters,jsons/MX_seq45_2_VE250_flipped.json,197439,348038,22,Woman
45,855482,final-intermixed-textured,v2,jsons/MX_seq45_2_VE250_flipped.json,http://54.235.29.9/FacialAge/BNav_EC2/DepthDuration/MX_fS_VE_MTurk/MX_fS_HTML.html#313,313,1920,1080,1920,1080,0-31-2024,20-48-38,46,VR_target_stimuli/s24_0.75x_3.3_344.png,250,0.75x,3.3,10.0,1942,251,meters,jsons/MX_seq45_2_VE250_flipped.json,197439,348038,22,Woman
46,855482,final-intermixed-textured,v2,jsons/MX_seq45_2_VE250_flipped.json,http://54.235.29.9/FacialAge/BNav_EC2/DepthDuration/MX_fS_VE_MTurk/MX_fS_HTML.html#313,313,1920,1080,1920,1080,0-31-2024,20-48-38,47,VR_target_stimuli/s10_1.3x_2.7_325_BC.png,250,1.3x,2.7,7.0,2830,241,meters,jsons/MX_seq45_2_VE250_flipped.json,197439,348038,22,Woman
47,855482,final-intermixed-textured,v2,jsons/MX_seq45_2_VE250_flipped.json,http://54.235.29.9/FacialAge/BNav_EC2/DepthDuration/MX_fS_VE_MTurk/MX_fS_HTML.html#313,313,1920,1080,1920,1080,0-31-2024,20-48-38,48,VR_target_stimuli/s36_1.3x_4.1_442.png,250,1.3x,4.1,8.0,2137,255,meters,jsons/MX_seq45_2_VE250_flipped.json,197439,348038,22,Woman
48,855482,final-intermixed-textured,v2,jsons/MX_seq45_2_VE250_flipped.json,http://54.235.29.9/FacialAge/BNav_EC2/DepthDuration/MX_fS_VE_MTurk/MX_fS_HTML.html#313,313,1920,1080,1920,1080,0-31-2024,20-48-38,49,VR_target_stimuli/s40_1x_1.2_319.png,250,1x,1.2,7.0,1983,247,meters,jsons/MX_seq45_2_VE250_flipped.json,197439,348038,22,Woman
49,855482,final-intermixed-textured,v2,jsons/MX_seq45_2_VE250_flipped.json,http://54.235.29.9/FacialAge/BNav_EC2/DepthDuration/MX_fS_VE_MTurk/MX_fS_HTML.html#313,313,1920,1080,1920,1080,0-31-2024,20-48-38,50,VR_target_stimuli/s41_0.75x_2.1_281.png,250,0.75x,2.1,12.0,3108,249,meters,jsons/MX_seq45_2_VE250_flipped.json,197439,348038,22,Woman
50,855482,final-intermixed-textured,v2,jsons/MX_seq45_2_VE250_flipped.json,http://54.235.29.9/FacialAge/BNav_EC2/DepthDuration/MX_fS_VE_MTurk/MX_fS_HTML.html#313,313,1920,1080,1920,1080,0-31-2024,20-48-38,51,VR_target_stimuli/s45_1x_3.5_368_BC.png,250,1x,3.5,10.0,2329,247,meters,jsons/MX_seq45_2_VE250_flipped.json,197439,348038,22,Woman
51,855482,final-intermixed-textured,v2,jsons/MX_seq45_2_VE250_flipped.json,http://54.235.29.9/FacialAge/BNav_EC2/DepthDuration/MX_fS_VE_MTurk/MX_fS_HTML.html#313,313,1920,1080,1920,1080,0-31-2024,20-48-38,52,VR_target_stimuli/s23_1.3x_3.65_354_BC.png,250,1.3x,3.65,8.0,2068,247,meters,jsons/MX_seq45_2_VE250_flipped.json,197439,348038,22,Woman
52,855482,final-intermixed-textured,v2,jsons/MX_seq45_2_VE250_flipped.json,http://54.235.29.9/FacialAge/BNav_EC2/DepthDuration/MX_fS_VE_MTurk/MX_fS_HTML.html#313,313,1920,1080,1920,1080,0-31-2024,20-48-38,53,catch_stimuli/c5_BC.png,250,,,0.0,1379,262,meters,jsons/MX_seq45_2_VE250_flipped.json,197439,348038,22,Woman
53,855482,final-intermixed-textured,v2,jsons/MX_seq45_2_VE250_flipped.json,http://54.235.29.9/FacialAge/BNav_EC2/DepthDuration/MX_fS_VE_MTurk/MX_fS_HTML.html#313,313,1920,1080,1920,1080,0-31-2024,20-48-38,54,VR_target_stimuli/s26_0.75x_4_430_BC.png,250,0.75x,4.0,15.0,2347,248,meters,jsons/MX_seq45_2_VE250_flipped.json,197439,348038,22,Woman
54,855482,final-intermixed-textured,v2,jsons/MX_seq45_2_VE250_flipped.json,http://54.235.29.9/FacialAge/BNav_EC2/DepthDuration/MX_fS_VE_MTurk/MX_fS_HTML.html#313,313,1920,1080,1920,1080,0-31-2024,20-48-38,55,VR_target_stimuli/s12_1.3x_3.1_375.png,250,1.3x,3.1,13.0,2034,243,meters,jsons/MX_seq45_2_VE250_flipped.json,197439,348038,22,Woman
55,855482,final-intermixed-textured,v2,jsons/MX_seq45_2_VE250_flipped.json,http://54.235.29.9/FacialAge/BNav_EC2/DepthDuration/MX_fS_VE_MTurk/MX_fS_HTML.html#313,313,1920,1080,1920,1080,0-31-2024,20-48-38,56,VR_target_stimuli/s30_1x_2.3_334_BC.png,250,1x,2.3,9.0,2558,251,meters,jsons/MX_seq45_2_VE250_flipped.json,197439,348038,22,Woman
56,855482,final-intermixed-textured,v2,jsons/MX_seq45_2_VE250_flipped.json,http://54.235.29.9/FacialAge/BNav_EC2/DepthDuration/MX_fS_VE_MTurk/MX_fS_HTML.html#313,313,1920,1080,1920,1080,0-31-2024,20-48-38,57,VR_target_stimuli/s16_0.75x_1_217_BC.png,250,0.75x,1.0,6.0,2862,246,meters,jsons/MX_seq45_2_VE250_flipped.json,197439,348038,22,Woman
57,855482,final-intermixed-textured,v2,jsons/MX_seq45_2_VE250_flipped.json,http://54.235.29.9/FacialAge/BNav_EC2/DepthDuration/MX_fS_VE_MTurk/MX_fS_HTML.html#313,313,1920,1080,1920,1080,0-31-2024,20-48-38,58,VR_target_stimuli/s17_0.75x_1.8_285.png,250,0.75x,1.8,12.0,2585,246,meters,jsons/MX_seq45_2_VE250_flipped.json,197439,348038,22,Woman
58,855482,final-intermixed-textured,v2,jsons/MX_seq45_2_VE250_flipped.json,http://54.235.29.9/FacialAge/BNav_EC2/DepthDuration/MX_fS_VE_MTurk/MX_fS_HTML.html#313,313,1920,1080,1920,1080,0-31-2024,20-48-38,59,VR_target_stimuli/s5_1.3x_4_393_BC.png,250,1.3x,4.0,12.0,1435,248,meters,jsons/MX_seq45_2_VE250_flipped.json,197439,348038,22,Woman
59,855482,final-intermixed-textured,v2,jsons/MX_seq45_2_VE250_flipped.json,http://54.235.29.9/FacialAge/BNav_EC2/DepthDuration/MX_fS_VE_MTurk/MX_fS_HTML.html#313,313,1920,1080,1920,1080,0-31-2024,20-48-38,60,VR_target_stimuli/s37_1x_3.3_563.png,250,1x,3.3,10.0,2658,261,meters,jsons/MX_seq45_2_VE250_flipped.json,197439,348038,22,Woman
