,subjID,experimentName,versionName,sequenceName,url,selected_row,windowWidth,windowHeight,screenWidth,screenHeight,startDate,startTime,trial,stimulus,duration,scale,actual_depth,depth_estimate,trial_RT,log_sceneDuration,unitSelection,seq_filepath,experimentTime,totalTime,age,gender
0,882703,final-intermixed-textured,v2,jsons/MX_seq35_2_VE250_flipped.json,http://54.235.29.9/FacialAge/BNav_EC2/DepthDuration/MX_fS_VE_MTurk/MX_fS_HTML.html#38,38,1366,599,1366,768,0-31-2024,14-43-34,1,VR_target_stimuli/s41_1x_2.1_286.png,250,1x,2.1,0,3687,260,meters,jsons/MX_seq35_2_VE250_flipped.json,289191,485446,24,Woman
1,882703,final-intermixed-textured,v2,jsons/MX_seq35_2_VE250_flipped.json,http://54.235.29.9/FacialAge/BNav_EC2/DepthDuration/MX_fS_VE_MTurk/MX_fS_HTML.html#38,38,1366,599,1366,768,0-31-2024,14-43-34,2,VR_target_stimuli/s45_1.3x_3.5_377_BC.png,250,1.3x,3.5,5,4346,247,meters,jsons/MX_seq35_2_VE250_flipped.json,289191,485446,24,Woman
2,882703,final-intermixed-textured,v2,jsons/MX_seq35_2_VE250_flipped.json,http://54.235.29.9/FacialAge/BNav_EC2/DepthDuration/MX_fS_VE_MTurk/MX_fS_HTML.html#38,38,1366,599,1366,768,0-31-2024,14-43-34,3,VR_target_stimuli/s23_0.75x_3.65_351.png,250,0.75x,3.65,4,4905,251,meters,jsons/MX_seq35_2_VE250_flipped.json,289191,485446,24,Woman
3,882703,final-intermixed-textured,v2,jsons/MX_seq35_2_VE250_flipped.json,http://54.235.29.9/FacialAge/BNav_EC2/DepthDuration/MX_fS_VE_MTurk/MX_fS_HTML.html#38,38,1366,599,1366,768,0-31-2024,14-43-34,4,VR_target_stimuli/s26_1.3x_4_441.png,250,1.3x,4.0,0,4090,246,meters,jsons/MX_seq35_2_VE250_flipped.json,289191,485446,24,Woman
4,882703,final-intermixed-textured,v2,jsons/MX_seq35_2_VE250_flipped.json,http://54.235.29.9/FacialAge/BNav_EC2/DepthDuration/MX_fS_VE_MTurk/MX_fS_HTML.html#38,38,1366,599,1366,768,0-31-2024,14-43-34,5,VR_target_stimuli/s12_1x_3.1_372_BC.png,250,1x,3.1,0,2272,255,meters,jsons/MX_seq35_2_VE250_flipped.json,289191,485446,24,Woman
5,882703,final-intermixed-textured,v2,jsons/MX_seq35_2_VE250_flipped.json,http://54.235.29.9/FacialAge/BNav_EC2/DepthDuration/MX_fS_VE_MTurk/MX_fS_HTML.html#38,38,1366,599,1366,768,0-31-2024,14-43-34,6,VR_target_stimuli/s30_0.75x_2.3_332_BC.png,250,0.75x,2.3,6,4155,249,meters,jsons/MX_seq35_2_VE250_flipped.json,289191,485446,24,Woman
6,882703,final-intermixed-textured,v2,jsons/MX_seq35_2_VE250_flipped.json,http://54.235.29.9/FacialAge/BNav_EC2/DepthDuration/MX_fS_VE_MTurk/MX_fS_HTML.html#38,38,1366,599,1366,768,0-31-2024,14-43-34,7,catch_stimuli/c0_BC.png,250,,,0,11406,249,meters,jsons/MX_seq35_2_VE250_flipped.json,289191,485446,24,Woman
7,882703,final-intermixed-textured,v2,jsons/MX_seq35_2_VE250_flipped.json,http://54.235.29.9/FacialAge/BNav_EC2/DepthDuration/MX_fS_VE_MTurk/MX_fS_HTML.html#38,38,1366,599,1366,768,0-31-2024,14-43-34,8,VR_target_stimuli/s16_0.75x_1_217.png,250,0.75x,1.0,3,3923,254,meters,jsons/MX_seq35_2_VE250_flipped.json,289191,485446,24,Woman
8,882703,final-intermixed-textured,v2,jsons/MX_seq35_2_VE250_flipped.json,http://54.235.29.9/FacialAge/BNav_EC2/DepthDuration/MX_fS_VE_MTurk/MX_fS_HTML.html#38,38,1366,599,1366,768,0-31-2024,14-43-34,9,VR_target_stimuli/s17_1.3x_1.8_300_BC.png,250,1.3x,1.8,5,4156,253,meters,jsons/MX_seq35_2_VE250_flipped.json,289191,485446,24,Woman
9,882703,final-intermixed-textured,v2,jsons/MX_seq35_2_VE250_flipped.json,http://54.235.29.9/FacialAge/BNav_EC2/DepthDuration/MX_fS_VE_MTurk/MX_fS_HTML.html#38,38,1366,599,1366,768,0-31-2024,14-43-34,10,VR_target_stimuli/s5_1x_4_378_BC.png,250,1x,4.0,8,3715,251,meters,jsons/MX_seq35_2_VE250_flipped.json,289191,485446,24,Woman
10,882703,final-intermixed-textured,v2,jsons/MX_seq35_2_VE250_flipped.json,http://54.235.29.9/FacialAge/BNav_EC2/DepthDuration/MX_fS_VE_MTurk/MX_fS_HTML.html#38,38,1366,599,1366,768,0-31-2024,14-43-34,11,VR_target_stimuli/s37_1.3x_3.3_555.png,250,1.3x,3.3,2,3887,242,meters,jsons/MX_seq35_2_VE250_flipped.json,289191,485446,24,Woman
11,882703,final-intermixed-textured,v2,jsons/MX_seq35_2_VE250_flipped.json,http://54.235.29.9/FacialAge/BNav_EC2/DepthDuration/MX_fS_VE_MTurk/MX_fS_HTML.html#38,38,1366,599,1366,768,0-31-2024,14-43-34,12,VR_target_stimuli/s46_0.75x_2.42_343_BC.png,250,0.75x,2.42,6,3418,235,meters,jsons/MX_seq35_2_VE250_flipped.json,289191,485446,24,Woman
12,882703,final-intermixed-textured,v2,jsons/MX_seq35_2_VE250_flipped.json,http://54.235.29.9/FacialAge/BNav_EC2/DepthDuration/MX_fS_VE_MTurk/MX_fS_HTML.html#38,38,1366,599,1366,768,0-31-2024,14-43-34,13,VR_target_stimuli/s22_1x_4.29_354.png,250,1x,4.29,12,4071,252,meters,jsons/MX_seq35_2_VE250_flipped.json,289191,485446,24,Woman
13,882703,final-intermixed-textured,v2,jsons/MX_seq35_2_VE250_flipped.json,http://54.235.29.9/FacialAge/BNav_EC2/DepthDuration/MX_fS_VE_MTurk/MX_fS_HTML.html#38,38,1366,599,1366,768,0-31-2024,14-43-34,14,VR_target_stimuli/s42_0.75x_3.2_301_BC.png,250,0.75x,3.2,8,3469,245,meters,jsons/MX_seq35_2_VE250_flipped.json,289191,485446,24,Woman
14,882703,final-intermixed-textured,v2,jsons/MX_seq35_2_VE250_flipped.json,http://54.235.29.9/FacialAge/BNav_EC2/DepthDuration/MX_fS_VE_MTurk/MX_fS_HTML.html#38,38,1366,599,1366,768,0-31-2024,14-43-34,15,VR_target_stimuli/s25_1.3x_1.4_299.png,250,1.3x,1.4,4,3907,249,meters,jsons/MX_seq35_2_VE250_flipped.json,289191,485446,24,Woman
15,882703,final-intermixed-textured,v2,jsons/MX_seq35_2_VE250_flipped.json,http://54.235.29.9/FacialAge/BNav_EC2/DepthDuration/MX_fS_VE_MTurk/MX_fS_HTML.html#38,38,1366,599,1366,768,0-31-2024,14-43-34,16,VR_target_stimuli/s50_1x_4.53_518_BC.png,250,1x,4.53,9,6525,253,meters,jsons/MX_seq35_2_VE250_flipped.json,289191,485446,24,Woman
16,882703,final-intermixed-textured,v2,jsons/MX_seq35_2_VE250_flipped.json,http://54.235.29.9/FacialAge/BNav_EC2/DepthDuration/MX_fS_VE_MTurk/MX_fS_HTML.html#38,38,1366,599,1366,768,0-31-2024,14-43-34,17,catch_stimuli/c1_BC.png,250,,,0,7019,237,meters,jsons/MX_seq35_2_VE250_flipped.json,289191,485446,24,Woman
17,882703,final-intermixed-textured,v2,jsons/MX_seq35_2_VE250_flipped.json,http://54.235.29.9/FacialAge/BNav_EC2/DepthDuration/MX_fS_VE_MTurk/MX_fS_HTML.html#38,38,1366,599,1366,768,0-31-2024,14-43-34,18,VR_target_stimuli/s53_1x_1.6_387.png,250,1x,1.6,4,4011,252,meters,jsons/MX_seq35_2_VE250_flipped.json,289191,485446,24,Woman
18,882703,final-intermixed-textured,v2,jsons/MX_seq35_2_VE250_flipped.json,http://54.235.29.9/FacialAge/BNav_EC2/DepthDuration/MX_fS_VE_MTurk/MX_fS_HTML.html#38,38,1366,599,1366,768,0-31-2024,14-43-34,19,VR_target_stimuli/s38_0.75x_3.55_346.png,250,0.75x,3.55,9,4553,246,meters,jsons/MX_seq35_2_VE250_flipped.json,289191,485446,24,Woman
19,882703,final-intermixed-textured,v2,jsons/MX_seq35_2_VE250_flipped.json,http://54.235.29.9/FacialAge/BNav_EC2/DepthDuration/MX_fS_VE_MTurk/MX_fS_HTML.html#38,38,1366,599,1366,768,0-31-2024,14-43-34,20,VR_target_stimuli/s9_1.3x_1.2_276_BC.png,250,1.3x,1.2,3,3136,250,meters,jsons/MX_seq35_2_VE250_flipped.json,289191,485446,24,Woman
20,882703,final-intermixed-textured,v2,jsons/MX_seq35_2_VE250_flipped.json,http://54.235.29.9/FacialAge/BNav_EC2/DepthDuration/MX_fS_VE_MTurk/MX_fS_HTML.html#38,38,1366,599,1366,768,0-31-2024,14-43-34,21,VR_target_stimuli/s44_0.75x_4.4_314.png,250,0.75x,4.4,0,2344,248,meters,jsons/MX_seq35_2_VE250_flipped.json,289191,485446,24,Woman
21,882703,final-intermixed-textured,v2,jsons/MX_seq35_2_VE250_flipped.json,http://54.235.29.9/FacialAge/BNav_EC2/DepthDuration/MX_fS_VE_MTurk/MX_fS_HTML.html#38,38,1366,599,1366,768,0-31-2024,14-43-34,22,VR_target_stimuli/s3_1x_5_385_BC.png,250,1x,5.0,12,5057,253,meters,jsons/MX_seq35_2_VE250_flipped.json,289191,485446,24,Woman
22,882703,final-intermixed-textured,v2,jsons/MX_seq35_2_VE250_flipped.json,http://54.235.29.9/FacialAge/BNav_EC2/DepthDuration/MX_fS_VE_MTurk/MX_fS_HTML.html#38,38,1366,599,1366,768,0-31-2024,14-43-34,23,VR_target_stimuli/s1_1.3x_1.7_261_BC.png,250,1.3x,1.7,8,3699,256,meters,jsons/MX_seq35_2_VE250_flipped.json,289191,485446,24,Woman
23,882703,final-intermixed-textured,v2,jsons/MX_seq35_2_VE250_flipped.json,http://54.235.29.9/FacialAge/BNav_EC2/DepthDuration/MX_fS_VE_MTurk/MX_fS_HTML.html#38,38,1366,599,1366,768,0-31-2024,14-43-34,24,VR_target_stimuli/s11_1x_5_361.png,250,1x,5.0,10,5980,248,meters,jsons/MX_seq35_2_VE250_flipped.json,289191,485446,24,Woman
24,882703,final-intermixed-textured,v2,jsons/MX_seq35_2_VE250_flipped.json,http://54.235.29.9/FacialAge/BNav_EC2/DepthDuration/MX_fS_VE_MTurk/MX_fS_HTML.html#38,38,1366,599,1366,768,0-31-2024,14-43-34,25,VR_target_stimuli/s2_0.75x_2.7_384_BC.png,250,0.75x,2.7,6,3525,240,meters,jsons/MX_seq35_2_VE250_flipped.json,289191,485446,24,Woman
25,882703,final-intermixed-textured,v2,jsons/MX_seq35_2_VE250_flipped.json,http://54.235.29.9/FacialAge/BNav_EC2/DepthDuration/MX_fS_VE_MTurk/MX_fS_HTML.html#38,38,1366,599,1366,768,0-31-2024,14-43-34,26,catch_stimuli/c2_BC.png,250,,,0,3733,245,meters,jsons/MX_seq35_2_VE250_flipped.json,289191,485446,24,Woman
26,882703,final-intermixed-textured,v2,jsons/MX_seq35_2_VE250_flipped.json,http://54.235.29.9/FacialAge/BNav_EC2/DepthDuration/MX_fS_VE_MTurk/MX_fS_HTML.html#38,38,1366,599,1366,768,0-31-2024,14-43-34,27,VR_target_stimuli/s6_1.3x_2.1_298.png,250,1.3x,2.1,0,4134,235,meters,jsons/MX_seq35_2_VE250_flipped.json,289191,485446,24,Woman
27,882703,final-intermixed-textured,v2,jsons/MX_seq35_2_VE250_flipped.json,http://54.235.29.9/FacialAge/BNav_EC2/DepthDuration/MX_fS_VE_MTurk/MX_fS_HTML.html#38,38,1366,599,1366,768,0-31-2024,14-43-34,28,VR_target_stimuli/s0_1.3x_2.6_356_BC.png,250,1.3x,2.6,6,3889,248,meters,jsons/MX_seq35_2_VE250_flipped.json,289191,485446,24,Woman
28,882703,final-intermixed-textured,v2,jsons/MX_seq35_2_VE250_flipped.json,http://54.235.29.9/FacialAge/BNav_EC2/DepthDuration/MX_fS_VE_MTurk/MX_fS_HTML.html#38,38,1366,599,1366,768,0-31-2024,14-43-34,29,VR_target_stimuli/s34_1x_2.8_283_BC.png,250,1x,2.8,9,3793,253,meters,jsons/MX_seq35_2_VE250_flipped.json,289191,485446,24,Woman
29,882703,final-intermixed-textured,v2,jsons/MX_seq35_2_VE250_flipped.json,http://54.235.29.9/FacialAge/BNav_EC2/DepthDuration/MX_fS_VE_MTurk/MX_fS_HTML.html#38,38,1366,599,1366,768,0-31-2024,14-43-34,30,VR_target_stimuli/s13_0.75x_2.4_308_BC.png,250,0.75x,2.4,4,3768,238,meters,jsons/MX_seq35_2_VE250_flipped.json,289191,485446,24,Woman
30,882703,final-intermixed-textured,v2,jsons/MX_seq35_2_VE250_flipped.json,http://54.235.29.9/FacialAge/BNav_EC2/DepthDuration/MX_fS_VE_MTurk/MX_fS_HTML.html#38,38,1366,599,1366,768,0-31-2024,14-43-34,31,VR_target_stimuli/s14_1.3x_3.83_359.png,250,1.3x,3.83,10,4367,251,meters,jsons/MX_seq35_2_VE250_flipped.json,289191,485446,24,Woman
31,882703,final-intermixed-textured,v2,jsons/MX_seq35_2_VE250_flipped.json,http://54.235.29.9/FacialAge/BNav_EC2/DepthDuration/MX_fS_VE_MTurk/MX_fS_HTML.html#38,38,1366,599,1366,768,0-31-2024,14-43-34,32,VR_target_stimuli/s47_0.75x_3.45_366.png,250,0.75x,3.45,3,3823,240,meters,jsons/MX_seq35_2_VE250_flipped.json,289191,485446,24,Woman
32,882703,final-intermixed-textured,v2,jsons/MX_seq35_2_VE250_flipped.json,http://54.235.29.9/FacialAge/BNav_EC2/DepthDuration/MX_fS_VE_MTurk/MX_fS_HTML.html#38,38,1366,599,1366,768,0-31-2024,14-43-34,33,VR_target_stimuli/s29_1x_1.3_250.png,250,1x,1.3,4,3609,239,meters,jsons/MX_seq35_2_VE250_flipped.json,289191,485446,24,Woman
33,882703,final-intermixed-textured,v2,jsons/MX_seq35_2_VE250_flipped.json,http://54.235.29.9/FacialAge/BNav_EC2/DepthDuration/MX_fS_VE_MTurk/MX_fS_HTML.html#38,38,1366,599,1366,768,0-31-2024,14-43-34,34,catch_stimuli/c3_BC.png,250,,,0,2666,249,meters,jsons/MX_seq35_2_VE250_flipped.json,289191,485446,24,Woman
34,882703,final-intermixed-textured,v2,jsons/MX_seq35_2_VE250_flipped.json,http://54.235.29.9/FacialAge/BNav_EC2/DepthDuration/MX_fS_VE_MTurk/MX_fS_HTML.html#38,38,1366,599,1366,768,0-31-2024,14-43-34,35,VR_target_stimuli/s28_0.75x_3.2_357.png,250,0.75x,3.2,4,4726,241,meters,jsons/MX_seq35_2_VE250_flipped.json,289191,485446,24,Woman
35,882703,final-intermixed-textured,v2,jsons/MX_seq35_2_VE250_flipped.json,http://54.235.29.9/FacialAge/BNav_EC2/DepthDuration/MX_fS_VE_MTurk/MX_fS_HTML.html#38,38,1366,599,1366,768,0-31-2024,14-43-34,36,VR_target_stimuli/s48_1.3x_2.55_255_BC.png,250,1.3x,2.55,4,3936,248,meters,jsons/MX_seq35_2_VE250_flipped.json,289191,485446,24,Woman
36,882703,final-intermixed-textured,v2,jsons/MX_seq35_2_VE250_flipped.json,http://54.235.29.9/FacialAge/BNav_EC2/DepthDuration/MX_fS_VE_MTurk/MX_fS_HTML.html#38,38,1366,599,1366,768,0-31-2024,14-43-34,37,VR_target_stimuli/s19_1x_1.21_263_BC.png,250,1x,1.21,3,3511,263,meters,jsons/MX_seq35_2_VE250_flipped.json,289191,485446,24,Woman
37,882703,final-intermixed-textured,v2,jsons/MX_seq35_2_VE250_flipped.json,http://54.235.29.9/FacialAge/BNav_EC2/DepthDuration/MX_fS_VE_MTurk/MX_fS_HTML.html#38,38,1366,599,1366,768,0-31-2024,14-43-34,38,VR_target_stimuli/s21_1x_4.22_379.png,250,1x,4.22,11,4313,254,meters,jsons/MX_seq35_2_VE250_flipped.json,289191,485446,24,Woman
38,882703,final-intermixed-textured,v2,jsons/MX_seq35_2_VE250_flipped.json,http://54.235.29.9/FacialAge/BNav_EC2/DepthDuration/MX_fS_VE_MTurk/MX_fS_HTML.html#38,38,1366,599,1366,768,0-31-2024,14-43-34,39,VR_target_stimuli/s8_0.75x_3.1_325_BC.png,250,0.75x,3.1,9,3759,254,meters,jsons/MX_seq35_2_VE250_flipped.json,289191,485446,24,Woman
39,882703,final-intermixed-textured,v2,jsons/MX_seq35_2_VE250_flipped.json,http://54.235.29.9/FacialAge/BNav_EC2/DepthDuration/MX_fS_VE_MTurk/MX_fS_HTML.html#38,38,1366,599,1366,768,0-31-2024,14-43-34,40,VR_target_stimuli/s27_1.3x_1.76_250.png,250,1.3x,1.76,6,3540,245,meters,jsons/MX_seq35_2_VE250_flipped.json,289191,485446,24,Woman
40,882703,final-intermixed-textured,v2,jsons/MX_seq35_2_VE250_flipped.json,http://54.235.29.9/FacialAge/BNav_EC2/DepthDuration/MX_fS_VE_MTurk/MX_fS_HTML.html#38,38,1366,599,1366,768,0-31-2024,14-43-34,41,VR_target_stimuli/s15_0.75x_4.2_388.png,250,0.75x,4.2,12,4290,251,meters,jsons/MX_seq35_2_VE250_flipped.json,289191,485446,24,Woman
41,882703,final-intermixed-textured,v2,jsons/MX_seq35_2_VE250_flipped.json,http://54.235.29.9/FacialAge/BNav_EC2/DepthDuration/MX_fS_VE_MTurk/MX_fS_HTML.html#38,38,1366,599,1366,768,0-31-2024,14-43-34,42,VR_target_stimuli/s4_1x_1.4_313_BC.png,250,1x,1.4,4,5098,239,meters,jsons/MX_seq35_2_VE250_flipped.json,289191,485446,24,Woman
42,882703,final-intermixed-textured,v2,jsons/MX_seq35_2_VE250_flipped.json,http://54.235.29.9/FacialAge/BNav_EC2/DepthDuration/MX_fS_VE_MTurk/MX_fS_HTML.html#38,38,1366,599,1366,768,0-31-2024,14-43-34,43,VR_target_stimuli/s35_1.3x_2_338.png,250,1.3x,2.0,4,3543,249,meters,jsons/MX_seq35_2_VE250_flipped.json,289191,485446,24,Woman
43,882703,final-intermixed-textured,v2,jsons/MX_seq35_2_VE250_flipped.json,http://54.235.29.9/FacialAge/BNav_EC2/DepthDuration/MX_fS_VE_MTurk/MX_fS_HTML.html#38,38,1366,599,1366,768,0-31-2024,14-43-34,44,VR_target_stimuli/s49_1x_4.67_341.png,250,1x,4.67,12,3833,249,meters,jsons/MX_seq35_2_VE250_flipped.json,289191,485446,24,Woman
44,882703,final-intermixed-textured,v2,jsons/MX_seq35_2_VE250_flipped.json,http://54.235.29.9/FacialAge/BNav_EC2/DepthDuration/MX_fS_VE_MTurk/MX_fS_HTML.html#38,38,1366,599,1366,768,0-31-2024,14-43-34,45,catch_stimuli/c4_BC.png,250,,,0,2250,248,meters,jsons/MX_seq35_2_VE250_flipped.json,289191,485446,24,Woman
45,882703,final-intermixed-textured,v2,jsons/MX_seq35_2_VE250_flipped.json,http://54.235.29.9/FacialAge/BNav_EC2/DepthDuration/MX_fS_VE_MTurk/MX_fS_HTML.html#38,38,1366,599,1366,768,0-31-2024,14-43-34,46,VR_target_stimuli/s7_0.75x_1.5_253_BC.png,250,0.75x,1.5,4,3424,253,meters,jsons/MX_seq35_2_VE250_flipped.json,289191,485446,24,Woman
46,882703,final-intermixed-textured,v2,jsons/MX_seq35_2_VE250_flipped.json,http://54.235.29.9/FacialAge/BNav_EC2/DepthDuration/MX_fS_VE_MTurk/MX_fS_HTML.html#38,38,1366,599,1366,768,0-31-2024,14-43-34,47,VR_target_stimuli/s20_1.3x_4.99_412_BC.png,250,1.3x,4.99,12,3801,250,meters,jsons/MX_seq35_2_VE250_flipped.json,289191,485446,24,Woman
47,882703,final-intermixed-textured,v2,jsons/MX_seq35_2_VE250_flipped.json,http://54.235.29.9/FacialAge/BNav_EC2/DepthDuration/MX_fS_VE_MTurk/MX_fS_HTML.html#38,38,1366,599,1366,768,0-31-2024,14-43-34,48,VR_target_stimuli/s31_1.3x_4.96_342_BC.png,250,1.3x,4.96,8,4129,253,meters,jsons/MX_seq35_2_VE250_flipped.json,289191,485446,24,Woman
48,882703,final-intermixed-textured,v2,jsons/MX_seq35_2_VE250_flipped.json,http://54.235.29.9/FacialAge/BNav_EC2/DepthDuration/MX_fS_VE_MTurk/MX_fS_HTML.html#38,38,1366,599,1366,768,0-31-2024,14-43-34,49,VR_target_stimuli/s33_1x_3.1_366.png,250,1x,3.1,8,5158,250,meters,jsons/MX_seq35_2_VE250_flipped.json,289191,485446,24,Woman
49,882703,final-intermixed-textured,v2,jsons/MX_seq35_2_VE250_flipped.json,http://54.235.29.9/FacialAge/BNav_EC2/DepthDuration/MX_fS_VE_MTurk/MX_fS_HTML.html#38,38,1366,599,1366,768,0-31-2024,14-43-34,50,VR_target_stimuli/s52_0.75x_3.2_270_BC.png,250,0.75x,3.2,9,6066,252,meters,jsons/MX_seq35_2_VE250_flipped.json,289191,485446,24,Woman
50,882703,final-intermixed-textured,v2,jsons/MX_seq35_2_VE250_flipped.json,http://54.235.29.9/FacialAge/BNav_EC2/DepthDuration/MX_fS_VE_MTurk/MX_fS_HTML.html#38,38,1366,599,1366,768,0-31-2024,14-43-34,51,VR_target_stimuli/s32_1x_1.5_218_BC.png,250,1x,1.5,5,4324,251,meters,jsons/MX_seq35_2_VE250_flipped.json,289191,485446,24,Woman
51,882703,final-intermixed-textured,v2,jsons/MX_seq35_2_VE250_flipped.json,http://54.235.29.9/FacialAge/BNav_EC2/DepthDuration/MX_fS_VE_MTurk/MX_fS_HTML.html#38,38,1366,599,1366,768,0-31-2024,14-43-34,52,VR_target_stimuli/s18_1.3x_2.25_368.png,250,1.3x,2.25,4,6705,253,meters,jsons/MX_seq35_2_VE250_flipped.json,289191,485446,24,Woman
52,882703,final-intermixed-textured,v2,jsons/MX_seq35_2_VE250_flipped.json,http://54.235.29.9/FacialAge/BNav_EC2/DepthDuration/MX_fS_VE_MTurk/MX_fS_HTML.html#38,38,1366,599,1366,768,0-31-2024,14-43-34,53,catch_stimuli/c5_BC.png,250,,,0,3945,248,meters,jsons/MX_seq35_2_VE250_flipped.json,289191,485446,24,Woman
53,882703,final-intermixed-textured,v2,jsons/MX_seq35_2_VE250_flipped.json,http://54.235.29.9/FacialAge/BNav_EC2/DepthDuration/MX_fS_VE_MTurk/MX_fS_HTML.html#38,38,1366,599,1366,768,0-31-2024,14-43-34,54,VR_target_stimuli/s39_0.75x_1_205.png,250,0.75x,1.0,3,3665,255,meters,jsons/MX_seq35_2_VE250_flipped.json,289191,485446,24,Woman
54,882703,final-intermixed-textured,v2,jsons/MX_seq35_2_VE250_flipped.json,http://54.235.29.9/FacialAge/BNav_EC2/DepthDuration/MX_fS_VE_MTurk/MX_fS_HTML.html#38,38,1366,599,1366,768,0-31-2024,14-43-34,55,VR_target_stimuli/s51_1.3x_3.64_479_BC.png,250,1.3x,3.64,4,4200,252,meters,jsons/MX_seq35_2_VE250_flipped.json,289191,485446,24,Woman
55,882703,final-intermixed-textured,v2,jsons/MX_seq35_2_VE250_flipped.json,http://54.235.29.9/FacialAge/BNav_EC2/DepthDuration/MX_fS_VE_MTurk/MX_fS_HTML.html#38,38,1366,599,1366,768,0-31-2024,14-43-34,56,VR_target_stimuli/s43_1x_2.2_354.png,250,1x,2.2,6,3828,236,meters,jsons/MX_seq35_2_VE250_flipped.json,289191,485446,24,Woman
56,882703,final-intermixed-textured,v2,jsons/MX_seq35_2_VE250_flipped.json,http://54.235.29.9/FacialAge/BNav_EC2/DepthDuration/MX_fS_VE_MTurk/MX_fS_HTML.html#38,38,1366,599,1366,768,0-31-2024,14-43-34,57,VR_target_stimuli/s24_0.75x_3.3_344.png,250,0.75x,3.3,8,6577,250,meters,jsons/MX_seq35_2_VE250_flipped.json,289191,485446,24,Woman
57,882703,final-intermixed-textured,v2,jsons/MX_seq35_2_VE250_flipped.json,http://54.235.29.9/FacialAge/BNav_EC2/DepthDuration/MX_fS_VE_MTurk/MX_fS_HTML.html#38,38,1366,599,1366,768,0-31-2024,14-43-34,58,VR_target_stimuli/s10_0.75x_2.7_321_BC.png,250,0.75x,2.7,9,7287,250,meters,jsons/MX_seq35_2_VE250_flipped.json,289191,485446,24,Woman
58,882703,final-intermixed-textured,v2,jsons/MX_seq35_2_VE250_flipped.json,http://54.235.29.9/FacialAge/BNav_EC2/DepthDuration/MX_fS_VE_MTurk/MX_fS_HTML.html#38,38,1366,599,1366,768,0-31-2024,14-43-34,59,VR_target_stimuli/s36_1.3x_4.1_442.png,250,1.3x,4.1,5,4129,252,meters,jsons/MX_seq35_2_VE250_flipped.json,289191,485446,24,Woman
59,882703,final-intermixed-textured,v2,jsons/MX_seq35_2_VE250_flipped.json,http://54.235.29.9/FacialAge/BNav_EC2/DepthDuration/MX_fS_VE_MTurk/MX_fS_HTML.html#38,38,1366,599,1366,768,0-31-2024,14-43-34,60,VR_target_stimuli/s40_1x_1.2_319_BC.png,250,1x,1.2,6,3577,254,meters,jsons/MX_seq35_2_VE250_flipped.json,289191,485446,24,Woman
