,subjID,experimentName,versionName,sequenceName,url,selected_row,windowWidth,windowHeight,screenWidth,screenHeight,startDate,startTime,trial,stimulus,duration,scale,actual_depth,depth_estimate,trial_RT,log_sceneDuration,unitSelection,seq_filepath,experimentTime,totalTime,age,gender
0,886708,final-intermixed-textured,v2,jsons/MX_seq20_0_VE250_flipped.json,http://54.235.29.9/FacialAge/BNav_EC2/DepthDuration/MX_fS_VE_MTurk/MX_fS_HTML.html#113,113,1920,919,1920,1080,0-31-2024,14-9-51,1,VR_target_stimuli/s49_0.75x_4.67_328.png,250,0.75x,4.67,5,8808,247,meters,jsons/MX_seq20_0_VE250_flipped.json,237682,693807,40,Man
1,886708,final-intermixed-textured,v2,jsons/MX_seq20_0_VE250_flipped.json,http://54.235.29.9/FacialAge/BNav_EC2/DepthDuration/MX_fS_VE_MTurk/MX_fS_HTML.html#113,113,1920,919,1920,1080,0-31-2024,14-9-51,2,VR_target_stimuli/s7_1x_1.5_255.png,250,1x,1.5,3,6248,247,meters,jsons/MX_seq20_0_VE250_flipped.json,237682,693807,40,Man
2,886708,final-intermixed-textured,v2,jsons/MX_seq20_0_VE250_flipped.json,http://54.235.29.9/FacialAge/BNav_EC2/DepthDuration/MX_fS_VE_MTurk/MX_fS_HTML.html#113,113,1920,919,1920,1080,0-31-2024,14-9-51,3,VR_target_stimuli/s20_1.3x_4.99_412_BC.png,250,1.3x,4.99,4,4648,247,meters,jsons/MX_seq20_0_VE250_flipped.json,237682,693807,40,Man
3,886708,final-intermixed-textured,v2,jsons/MX_seq20_0_VE250_flipped.json,http://54.235.29.9/FacialAge/BNav_EC2/DepthDuration/MX_fS_VE_MTurk/MX_fS_HTML.html#113,113,1920,919,1920,1080,0-31-2024,14-9-51,4,VR_target_stimuli/s31_1x_4.96_333_BC.png,250,1x,4.96,5,3986,247,meters,jsons/MX_seq20_0_VE250_flipped.json,237682,693807,40,Man
4,886708,final-intermixed-textured,v2,jsons/MX_seq20_0_VE250_flipped.json,http://54.235.29.9/FacialAge/BNav_EC2/DepthDuration/MX_fS_VE_MTurk/MX_fS_HTML.html#113,113,1920,919,1920,1080,0-31-2024,14-9-51,5,VR_target_stimuli/s33_0.75x_3.1_361_BC.png,250,0.75x,3.1,3,4107,260,meters,jsons/MX_seq20_0_VE250_flipped.json,237682,693807,40,Man
5,886708,final-intermixed-textured,v2,jsons/MX_seq20_0_VE250_flipped.json,http://54.235.29.9/FacialAge/BNav_EC2/DepthDuration/MX_fS_VE_MTurk/MX_fS_HTML.html#113,113,1920,919,1920,1080,0-31-2024,14-9-51,6,VR_target_stimuli/s52_1.3x_3.2_280.png,250,1.3x,3.2,3,4845,246,meters,jsons/MX_seq20_0_VE250_flipped.json,237682,693807,40,Man
6,886708,final-intermixed-textured,v2,jsons/MX_seq20_0_VE250_flipped.json,http://54.235.29.9/FacialAge/BNav_EC2/DepthDuration/MX_fS_VE_MTurk/MX_fS_HTML.html#113,113,1920,919,1920,1080,0-31-2024,14-9-51,7,catch_stimuli/c0_BC.png,250,,,0,3569,246,meters,jsons/MX_seq20_0_VE250_flipped.json,237682,693807,40,Man
7,886708,final-intermixed-textured,v2,jsons/MX_seq20_0_VE250_flipped.json,http://54.235.29.9/FacialAge/BNav_EC2/DepthDuration/MX_fS_VE_MTurk/MX_fS_HTML.html#113,113,1920,919,1920,1080,0-31-2024,14-9-51,8,VR_target_stimuli/s32_1.3x_1.5_224_BC.png,250,1.3x,1.5,1,7126,250,meters,jsons/MX_seq20_0_VE250_flipped.json,237682,693807,40,Man
8,886708,final-intermixed-textured,v2,jsons/MX_seq20_0_VE250_flipped.json,http://54.235.29.9/FacialAge/BNav_EC2/DepthDuration/MX_fS_VE_MTurk/MX_fS_HTML.html#113,113,1920,919,1920,1080,0-31-2024,14-9-51,9,VR_target_stimuli/s18_1x_2.25_353_BC.png,250,1x,2.25,1,7163,245,meters,jsons/MX_seq20_0_VE250_flipped.json,237682,693807,40,Man
9,886708,final-intermixed-textured,v2,jsons/MX_seq20_0_VE250_flipped.json,http://54.235.29.9/FacialAge/BNav_EC2/DepthDuration/MX_fS_VE_MTurk/MX_fS_HTML.html#113,113,1920,919,1920,1080,0-31-2024,14-9-51,10,VR_target_stimuli/s39_0.75x_1_205_BC.png,250,0.75x,1.0,1,4097,248,meters,jsons/MX_seq20_0_VE250_flipped.json,237682,693807,40,Man
10,886708,final-intermixed-textured,v2,jsons/MX_seq20_0_VE250_flipped.json,http://54.235.29.9/FacialAge/BNav_EC2/DepthDuration/MX_fS_VE_MTurk/MX_fS_HTML.html#113,113,1920,919,1920,1080,0-31-2024,14-9-51,11,VR_target_stimuli/s51_1x_3.64_461.png,250,1x,3.64,2,4197,260,meters,jsons/MX_seq20_0_VE250_flipped.json,237682,693807,40,Man
11,886708,final-intermixed-textured,v2,jsons/MX_seq20_0_VE250_flipped.json,http://54.235.29.9/FacialAge/BNav_EC2/DepthDuration/MX_fS_VE_MTurk/MX_fS_HTML.html#113,113,1920,919,1920,1080,0-31-2024,14-9-51,12,VR_target_stimuli/s43_1.3x_2.2_363.png,250,1.3x,2.2,2,2966,247,meters,jsons/MX_seq20_0_VE250_flipped.json,237682,693807,40,Man
12,886708,final-intermixed-textured,v2,jsons/MX_seq20_0_VE250_flipped.json,http://54.235.29.9/FacialAge/BNav_EC2/DepthDuration/MX_fS_VE_MTurk/MX_fS_HTML.html#113,113,1920,919,1920,1080,0-31-2024,14-9-51,13,VR_target_stimuli/s24_0.75x_3.3_344.png,250,0.75x,3.3,4,3699,260,meters,jsons/MX_seq20_0_VE250_flipped.json,237682,693807,40,Man
13,886708,final-intermixed-textured,v2,jsons/MX_seq20_0_VE250_flipped.json,http://54.235.29.9/FacialAge/BNav_EC2/DepthDuration/MX_fS_VE_MTurk/MX_fS_HTML.html#113,113,1920,919,1920,1080,0-31-2024,14-9-51,14,VR_target_stimuli/s10_1.3x_2.7_325.png,250,1.3x,2.7,2,4450,247,meters,jsons/MX_seq20_0_VE250_flipped.json,237682,693807,40,Man
14,886708,final-intermixed-textured,v2,jsons/MX_seq20_0_VE250_flipped.json,http://54.235.29.9/FacialAge/BNav_EC2/DepthDuration/MX_fS_VE_MTurk/MX_fS_HTML.html#113,113,1920,919,1920,1080,0-31-2024,14-9-51,15,VR_target_stimuli/s36_1x_4.1_423.png,250,1x,4.1,3,4005,248,meters,jsons/MX_seq20_0_VE250_flipped.json,237682,693807,40,Man
15,886708,final-intermixed-textured,v2,jsons/MX_seq20_0_VE250_flipped.json,http://54.235.29.9/FacialAge/BNav_EC2/DepthDuration/MX_fS_VE_MTurk/MX_fS_HTML.html#113,113,1920,919,1920,1080,0-31-2024,14-9-51,16,VR_target_stimuli/s40_0.75x_1.2_308_BC.png,250,0.75x,1.2,1,2938,248,meters,jsons/MX_seq20_0_VE250_flipped.json,237682,693807,40,Man
16,886708,final-intermixed-textured,v2,jsons/MX_seq20_0_VE250_flipped.json,http://54.235.29.9/FacialAge/BNav_EC2/DepthDuration/MX_fS_VE_MTurk/MX_fS_HTML.html#113,113,1920,919,1920,1080,0-31-2024,14-9-51,17,catch_stimuli/c1_BC.png,250,,,0,2878,246,meters,jsons/MX_seq20_0_VE250_flipped.json,237682,693807,40,Man
17,886708,final-intermixed-textured,v2,jsons/MX_seq20_0_VE250_flipped.json,http://54.235.29.9/FacialAge/BNav_EC2/DepthDuration/MX_fS_VE_MTurk/MX_fS_HTML.html#113,113,1920,919,1920,1080,0-31-2024,14-9-51,18,VR_target_stimuli/s41_0.75x_2.1_281.png,250,0.75x,2.1,2,3565,249,meters,jsons/MX_seq20_0_VE250_flipped.json,237682,693807,40,Man
18,886708,final-intermixed-textured,v2,jsons/MX_seq20_0_VE250_flipped.json,http://54.235.29.9/FacialAge/BNav_EC2/DepthDuration/MX_fS_VE_MTurk/MX_fS_HTML.html#113,113,1920,919,1920,1080,0-31-2024,14-9-51,19,VR_target_stimuli/s45_1.3x_3.5_377_BC.png,250,1.3x,3.5,2,3375,248,meters,jsons/MX_seq20_0_VE250_flipped.json,237682,693807,40,Man
19,886708,final-intermixed-textured,v2,jsons/MX_seq20_0_VE250_flipped.json,http://54.235.29.9/FacialAge/BNav_EC2/DepthDuration/MX_fS_VE_MTurk/MX_fS_HTML.html#113,113,1920,919,1920,1080,0-31-2024,14-9-51,20,VR_target_stimuli/s23_1x_3.65_353_BC.png,250,1x,3.65,2,2709,248,meters,jsons/MX_seq20_0_VE250_flipped.json,237682,693807,40,Man
20,886708,final-intermixed-textured,v2,jsons/MX_seq20_0_VE250_flipped.json,http://54.235.29.9/FacialAge/BNav_EC2/DepthDuration/MX_fS_VE_MTurk/MX_fS_HTML.html#113,113,1920,919,1920,1080,0-31-2024,14-9-51,21,VR_target_stimuli/s26_1.3x_4_441_BC.png,250,1.3x,4.0,2,2552,246,meters,jsons/MX_seq20_0_VE250_flipped.json,237682,693807,40,Man
21,886708,final-intermixed-textured,v2,jsons/MX_seq20_0_VE250_flipped.json,http://54.235.29.9/FacialAge/BNav_EC2/DepthDuration/MX_fS_VE_MTurk/MX_fS_HTML.html#113,113,1920,919,1920,1080,0-31-2024,14-9-51,22,VR_target_stimuli/s12_0.75x_3.1_364.png,250,0.75x,3.1,3,2333,248,meters,jsons/MX_seq20_0_VE250_flipped.json,237682,693807,40,Man
22,886708,final-intermixed-textured,v2,jsons/MX_seq20_0_VE250_flipped.json,http://54.235.29.9/FacialAge/BNav_EC2/DepthDuration/MX_fS_VE_MTurk/MX_fS_HTML.html#113,113,1920,919,1920,1080,0-31-2024,14-9-51,23,VR_target_stimuli/s30_1x_2.3_334.png,250,1x,2.3,1,2640,248,meters,jsons/MX_seq20_0_VE250_flipped.json,237682,693807,40,Man
23,886708,final-intermixed-textured,v2,jsons/MX_seq20_0_VE250_flipped.json,http://54.235.29.9/FacialAge/BNav_EC2/DepthDuration/MX_fS_VE_MTurk/MX_fS_HTML.html#113,113,1920,919,1920,1080,0-31-2024,14-9-51,24,VR_target_stimuli/s16_0.75x_1_217_BC.png,250,0.75x,1.0,1,1972,248,meters,jsons/MX_seq20_0_VE250_flipped.json,237682,693807,40,Man
24,886708,final-intermixed-textured,v2,jsons/MX_seq20_0_VE250_flipped.json,http://54.235.29.9/FacialAge/BNav_EC2/DepthDuration/MX_fS_VE_MTurk/MX_fS_HTML.html#113,113,1920,919,1920,1080,0-31-2024,14-9-51,25,VR_target_stimuli/s17_1.3x_1.8_300.png,250,1.3x,1.8,2,2940,250,meters,jsons/MX_seq20_0_VE250_flipped.json,237682,693807,40,Man
25,886708,final-intermixed-textured,v2,jsons/MX_seq20_0_VE250_flipped.json,http://54.235.29.9/FacialAge/BNav_EC2/DepthDuration/MX_fS_VE_MTurk/MX_fS_HTML.html#113,113,1920,919,1920,1080,0-31-2024,14-9-51,26,catch_stimuli/c2_BC.png,250,,,0,2046,234,meters,jsons/MX_seq20_0_VE250_flipped.json,237682,693807,40,Man
26,886708,final-intermixed-textured,v2,jsons/MX_seq20_0_VE250_flipped.json,http://54.235.29.9/FacialAge/BNav_EC2/DepthDuration/MX_fS_VE_MTurk/MX_fS_HTML.html#113,113,1920,919,1920,1080,0-31-2024,14-9-51,27,VR_target_stimuli/s5_1x_4_378_BC.png,250,1x,4.0,2,4466,250,meters,jsons/MX_seq20_0_VE250_flipped.json,237682,693807,40,Man
27,886708,final-intermixed-textured,v2,jsons/MX_seq20_0_VE250_flipped.json,http://54.235.29.9/FacialAge/BNav_EC2/DepthDuration/MX_fS_VE_MTurk/MX_fS_HTML.html#113,113,1920,919,1920,1080,0-31-2024,14-9-51,28,VR_target_stimuli/s37_1x_3.3_563_BC.png,250,1x,3.3,1,3208,250,meters,jsons/MX_seq20_0_VE250_flipped.json,237682,693807,40,Man
28,886708,final-intermixed-textured,v2,jsons/MX_seq20_0_VE250_flipped.json,http://54.235.29.9/FacialAge/BNav_EC2/DepthDuration/MX_fS_VE_MTurk/MX_fS_HTML.html#113,113,1920,919,1920,1080,0-31-2024,14-9-51,29,VR_target_stimuli/s46_0.75x_2.42_343_BC.png,250,0.75x,2.42,2,3094,245,meters,jsons/MX_seq20_0_VE250_flipped.json,237682,693807,40,Man
29,886708,final-intermixed-textured,v2,jsons/MX_seq20_0_VE250_flipped.json,http://54.235.29.9/FacialAge/BNav_EC2/DepthDuration/MX_fS_VE_MTurk/MX_fS_HTML.html#113,113,1920,919,1920,1080,0-31-2024,14-9-51,30,VR_target_stimuli/s22_1.3x_4.29_364.png,250,1.3x,4.29,2,3564,247,meters,jsons/MX_seq20_0_VE250_flipped.json,237682,693807,40,Man
30,886708,final-intermixed-textured,v2,jsons/MX_seq20_0_VE250_flipped.json,http://54.235.29.9/FacialAge/BNav_EC2/DepthDuration/MX_fS_VE_MTurk/MX_fS_HTML.html#113,113,1920,919,1920,1080,0-31-2024,14-9-51,31,VR_target_stimuli/s42_1x_3.2_303.png,250,1x,3.2,3,1952,249,meters,jsons/MX_seq20_0_VE250_flipped.json,237682,693807,40,Man
31,886708,final-intermixed-textured,v2,jsons/MX_seq20_0_VE250_flipped.json,http://54.235.29.9/FacialAge/BNav_EC2/DepthDuration/MX_fS_VE_MTurk/MX_fS_HTML.html#113,113,1920,919,1920,1080,0-31-2024,14-9-51,32,VR_target_stimuli/s25_1.3x_1.4_299_BC.png,250,1.3x,1.4,1,1809,249,meters,jsons/MX_seq20_0_VE250_flipped.json,237682,693807,40,Man
32,886708,final-intermixed-textured,v2,jsons/MX_seq20_0_VE250_flipped.json,http://54.235.29.9/FacialAge/BNav_EC2/DepthDuration/MX_fS_VE_MTurk/MX_fS_HTML.html#113,113,1920,919,1920,1080,0-31-2024,14-9-51,33,VR_target_stimuli/s50_0.75x_4.53_517.png,250,0.75x,4.53,3,3219,245,meters,jsons/MX_seq20_0_VE250_flipped.json,237682,693807,40,Man
33,886708,final-intermixed-textured,v2,jsons/MX_seq20_0_VE250_flipped.json,http://54.235.29.9/FacialAge/BNav_EC2/DepthDuration/MX_fS_VE_MTurk/MX_fS_HTML.html#113,113,1920,919,1920,1080,0-31-2024,14-9-51,34,catch_stimuli/c3_BC.png,250,,,0,2442,246,meters,jsons/MX_seq20_0_VE250_flipped.json,237682,693807,40,Man
34,886708,final-intermixed-textured,v2,jsons/MX_seq20_0_VE250_flipped.json,http://54.235.29.9/FacialAge/BNav_EC2/DepthDuration/MX_fS_VE_MTurk/MX_fS_HTML.html#113,113,1920,919,1920,1080,0-31-2024,14-9-51,35,VR_target_stimuli/s53_1.3x_1.6_355.png,250,1.3x,1.6,1,3011,248,meters,jsons/MX_seq20_0_VE250_flipped.json,237682,693807,40,Man
35,886708,final-intermixed-textured,v2,jsons/MX_seq20_0_VE250_flipped.json,http://54.235.29.9/FacialAge/BNav_EC2/DepthDuration/MX_fS_VE_MTurk/MX_fS_HTML.html#113,113,1920,919,1920,1080,0-31-2024,14-9-51,36,VR_target_stimuli/s38_1x_3.55_353.png,250,1x,3.55,2,3355,249,meters,jsons/MX_seq20_0_VE250_flipped.json,237682,693807,40,Man
36,886708,final-intermixed-textured,v2,jsons/MX_seq20_0_VE250_flipped.json,http://54.235.29.9/FacialAge/BNav_EC2/DepthDuration/MX_fS_VE_MTurk/MX_fS_HTML.html#113,113,1920,919,1920,1080,0-31-2024,14-9-51,37,VR_target_stimuli/s9_0.75x_1.2_260.png,250,0.75x,1.2,1,2269,248,meters,jsons/MX_seq20_0_VE250_flipped.json,237682,693807,40,Man
37,886708,final-intermixed-textured,v2,jsons/MX_seq20_0_VE250_flipped.json,http://54.235.29.9/FacialAge/BNav_EC2/DepthDuration/MX_fS_VE_MTurk/MX_fS_HTML.html#113,113,1920,919,1920,1080,0-31-2024,14-9-51,38,VR_target_stimuli/s44_0.75x_4.4_314_BC.png,250,0.75x,4.4,0,2972,260,meters,jsons/MX_seq20_0_VE250_flipped.json,237682,693807,40,Man
38,886708,final-intermixed-textured,v2,jsons/MX_seq20_0_VE250_flipped.json,http://54.235.29.9/FacialAge/BNav_EC2/DepthDuration/MX_fS_VE_MTurk/MX_fS_HTML.html#113,113,1920,919,1920,1080,0-31-2024,14-9-51,39,VR_target_stimuli/s3_1.3x_5_390_BC.png,250,1.3x,5.0,4,2578,248,meters,jsons/MX_seq20_0_VE250_flipped.json,237682,693807,40,Man
39,886708,final-intermixed-textured,v2,jsons/MX_seq20_0_VE250_flipped.json,http://54.235.29.9/FacialAge/BNav_EC2/DepthDuration/MX_fS_VE_MTurk/MX_fS_HTML.html#113,113,1920,919,1920,1080,0-31-2024,14-9-51,40,VR_target_stimuli/s1_1x_1.7_262_BC.png,250,1x,1.7,2,3825,247,meters,jsons/MX_seq20_0_VE250_flipped.json,237682,693807,40,Man
40,886708,final-intermixed-textured,v2,jsons/MX_seq20_0_VE250_flipped.json,http://54.235.29.9/FacialAge/BNav_EC2/DepthDuration/MX_fS_VE_MTurk/MX_fS_HTML.html#113,113,1920,919,1920,1080,0-31-2024,14-9-51,41,VR_target_stimuli/s11_1.3x_5_363.png,250,1.3x,5.0,2,2774,247,meters,jsons/MX_seq20_0_VE250_flipped.json,237682,693807,40,Man
41,886708,final-intermixed-textured,v2,jsons/MX_seq20_0_VE250_flipped.json,http://54.235.29.9/FacialAge/BNav_EC2/DepthDuration/MX_fS_VE_MTurk/MX_fS_HTML.html#113,113,1920,919,1920,1080,0-31-2024,14-9-51,42,VR_target_stimuli/s2_0.75x_2.7_384.png,250,0.75x,2.7,2,3154,248,meters,jsons/MX_seq20_0_VE250_flipped.json,237682,693807,40,Man
42,886708,final-intermixed-textured,v2,jsons/MX_seq20_0_VE250_flipped.json,http://54.235.29.9/FacialAge/BNav_EC2/DepthDuration/MX_fS_VE_MTurk/MX_fS_HTML.html#113,113,1920,919,1920,1080,0-31-2024,14-9-51,43,VR_target_stimuli/s6_1x_2.1_293_BC.png,250,1x,2.1,2,2042,245,meters,jsons/MX_seq20_0_VE250_flipped.json,237682,693807,40,Man
43,886708,final-intermixed-textured,v2,jsons/MX_seq20_0_VE250_flipped.json,http://54.235.29.9/FacialAge/BNav_EC2/DepthDuration/MX_fS_VE_MTurk/MX_fS_HTML.html#113,113,1920,919,1920,1080,0-31-2024,14-9-51,44,VR_target_stimuli/s0_0.75x_2.6_345_BC.png,250,0.75x,2.6,2,1846,247,meters,jsons/MX_seq20_0_VE250_flipped.json,237682,693807,40,Man
44,886708,final-intermixed-textured,v2,jsons/MX_seq20_0_VE250_flipped.json,http://54.235.29.9/FacialAge/BNav_EC2/DepthDuration/MX_fS_VE_MTurk/MX_fS_HTML.html#113,113,1920,919,1920,1080,0-31-2024,14-9-51,45,catch_stimuli/c4_BC.png,250,,,0,2107,249,meters,jsons/MX_seq20_0_VE250_flipped.json,237682,693807,40,Man
45,886708,final-intermixed-textured,v2,jsons/MX_seq20_0_VE250_flipped.json,http://54.235.29.9/FacialAge/BNav_EC2/DepthDuration/MX_fS_VE_MTurk/MX_fS_HTML.html#113,113,1920,919,1920,1080,0-31-2024,14-9-51,46,VR_target_stimuli/s34_1.3x_2.8_294_BC.png,250,1.3x,2.8,2,4470,247,meters,jsons/MX_seq20_0_VE250_flipped.json,237682,693807,40,Man
46,886708,final-intermixed-textured,v2,jsons/MX_seq20_0_VE250_flipped.json,http://54.235.29.9/FacialAge/BNav_EC2/DepthDuration/MX_fS_VE_MTurk/MX_fS_HTML.html#113,113,1920,919,1920,1080,0-31-2024,14-9-51,47,VR_target_stimuli/s13_1x_2.4_310.png,250,1x,2.4,1,4263,247,meters,jsons/MX_seq20_0_VE250_flipped.json,237682,693807,40,Man
47,886708,final-intermixed-textured,v2,jsons/MX_seq20_0_VE250_flipped.json,http://54.235.29.9/FacialAge/BNav_EC2/DepthDuration/MX_fS_VE_MTurk/MX_fS_HTML.html#113,113,1920,919,1920,1080,0-31-2024,14-9-51,48,VR_target_stimuli/s14_1x_ 3.83_357_BC.png,250,1x,3.83,3,3283,246,meters,jsons/MX_seq20_0_VE250_flipped.json,237682,693807,40,Man
48,886708,final-intermixed-textured,v2,jsons/MX_seq20_0_VE250_flipped.json,http://54.235.29.9/FacialAge/BNav_EC2/DepthDuration/MX_fS_VE_MTurk/MX_fS_HTML.html#113,113,1920,919,1920,1080,0-31-2024,14-9-51,49,VR_target_stimuli/s47_0.75x_3.45_366_BC.png,250,0.75x,3.45,2,3096,245,meters,jsons/MX_seq20_0_VE250_flipped.json,237682,693807,40,Man
49,886708,final-intermixed-textured,v2,jsons/MX_seq20_0_VE250_flipped.json,http://54.235.29.9/FacialAge/BNav_EC2/DepthDuration/MX_fS_VE_MTurk/MX_fS_HTML.html#113,113,1920,919,1920,1080,0-31-2024,14-9-51,50,VR_target_stimuli/s29_1.3x_1.3_253_BC.png,250,1.3x,1.3,1,2939,247,meters,jsons/MX_seq20_0_VE250_flipped.json,237682,693807,40,Man
50,886708,final-intermixed-textured,v2,jsons/MX_seq20_0_VE250_flipped.json,http://54.235.29.9/FacialAge/BNav_EC2/DepthDuration/MX_fS_VE_MTurk/MX_fS_HTML.html#113,113,1920,919,1920,1080,0-31-2024,14-9-51,51,VR_target_stimuli/s28_0.75x_3.2_357.png,250,0.75x,3.2,2,3404,247,meters,jsons/MX_seq20_0_VE250_flipped.json,237682,693807,40,Man
51,886708,final-intermixed-textured,v2,jsons/MX_seq20_0_VE250_flipped.json,http://54.235.29.9/FacialAge/BNav_EC2/DepthDuration/MX_fS_VE_MTurk/MX_fS_HTML.html#113,113,1920,919,1920,1080,0-31-2024,14-9-51,52,VR_target_stimuli/s48_1x_2.55_256.png,250,1x,2.55,3,4651,246,meters,jsons/MX_seq20_0_VE250_flipped.json,237682,693807,40,Man
52,886708,final-intermixed-textured,v2,jsons/MX_seq20_0_VE250_flipped.json,http://54.235.29.9/FacialAge/BNav_EC2/DepthDuration/MX_fS_VE_MTurk/MX_fS_HTML.html#113,113,1920,919,1920,1080,0-31-2024,14-9-51,53,catch_stimuli/c5_BC.png,250,,,0,2977,248,meters,jsons/MX_seq20_0_VE250_flipped.json,237682,693807,40,Man
53,886708,final-intermixed-textured,v2,jsons/MX_seq20_0_VE250_flipped.json,http://54.235.29.9/FacialAge/BNav_EC2/DepthDuration/MX_fS_VE_MTurk/MX_fS_HTML.html#113,113,1920,919,1920,1080,0-31-2024,14-9-51,54,VR_target_stimuli/s19_1.3x_1.21_270.png,250,1.3x,1.21,1,3454,249,meters,jsons/MX_seq20_0_VE250_flipped.json,237682,693807,40,Man
54,886708,final-intermixed-textured,v2,jsons/MX_seq20_0_VE250_flipped.json,http://54.235.29.9/FacialAge/BNav_EC2/DepthDuration/MX_fS_VE_MTurk/MX_fS_HTML.html#113,113,1920,919,1920,1080,0-31-2024,14-9-51,55,VR_target_stimuli/s21_1x_4.22_379_BC.png,250,1x,4.22,3,4053,245,meters,jsons/MX_seq20_0_VE250_flipped.json,237682,693807,40,Man
55,886708,final-intermixed-textured,v2,jsons/MX_seq20_0_VE250_flipped.json,http://54.235.29.9/FacialAge/BNav_EC2/DepthDuration/MX_fS_VE_MTurk/MX_fS_HTML.html#113,113,1920,919,1920,1080,0-31-2024,14-9-51,56,VR_target_stimuli/s8_0.75x_3.1_325_BC.png,250,0.75x,3.1,2,3052,261,meters,jsons/MX_seq20_0_VE250_flipped.json,237682,693807,40,Man
56,886708,final-intermixed-textured,v2,jsons/MX_seq20_0_VE250_flipped.json,http://54.235.29.9/FacialAge/BNav_EC2/DepthDuration/MX_fS_VE_MTurk/MX_fS_HTML.html#113,113,1920,919,1920,1080,0-31-2024,14-9-51,57,VR_target_stimuli/s27_1.3x_1.76_250.png,250,1.3x,1.76,1,2011,248,meters,jsons/MX_seq20_0_VE250_flipped.json,237682,693807,40,Man
57,886708,final-intermixed-textured,v2,jsons/MX_seq20_0_VE250_flipped.json,http://54.235.29.9/FacialAge/BNav_EC2/DepthDuration/MX_fS_VE_MTurk/MX_fS_HTML.html#113,113,1920,919,1920,1080,0-31-2024,14-9-51,58,VR_target_stimuli/s15_1.3x_4.2_389_BC.png,250,1.3x,4.2,4,2518,250,meters,jsons/MX_seq20_0_VE250_flipped.json,237682,693807,40,Man
58,886708,final-intermixed-textured,v2,jsons/MX_seq20_0_VE250_flipped.json,http://54.235.29.9/FacialAge/BNav_EC2/DepthDuration/MX_fS_VE_MTurk/MX_fS_HTML.html#113,113,1920,919,1920,1080,0-31-2024,14-9-51,59,VR_target_stimuli/s4_1x_1.4_313.png,250,1x,1.4,1,2815,249,meters,jsons/MX_seq20_0_VE250_flipped.json,237682,693807,40,Man
59,886708,final-intermixed-textured,v2,jsons/MX_seq20_0_VE250_flipped.json,http://54.235.29.9/FacialAge/BNav_EC2/DepthDuration/MX_fS_VE_MTurk/MX_fS_HTML.html#113,113,1920,919,1920,1080,0-31-2024,14-9-51,60,VR_target_stimuli/s35_0.75x_2_323.png,250,0.75x,2.0,2,2602,245,meters,jsons/MX_seq20_0_VE250_flipped.json,237682,693807,40,Man
