,subjID,experimentName,versionName,sequenceName,url,selected_row,windowWidth,windowHeight,screenWidth,screenHeight,startDate,startTime,trial,stimulus,duration,scale,actual_depth,depth_estimate,trial_RT,log_sceneDuration,unitSelection,seq_filepath,experimentTime,totalTime,age,gender
0,901449,final-intermixed-textured,v2,jsons/MX_seq27_1_VE250_flipped.json,http://54.235.29.9/FacialAge/BNav_EC2/DepthDuration/MX_fS_VE_MTurk/MX_fS_HTML.html#37,37,1536,738,1536,864,0-31-2024,14-35-14,1,VR_target_stimuli/s18_1.3x_2.25_368_BC.png,250,1.3x,2.25,1,5618,250,meters,jsons/MX_seq27_1_VE250_flipped.json,311782,658084,22,Woman
1,901449,final-intermixed-textured,v2,jsons/MX_seq27_1_VE250_flipped.json,http://54.235.29.9/FacialAge/BNav_EC2/DepthDuration/MX_fS_VE_MTurk/MX_fS_HTML.html#37,37,1536,738,1536,864,0-31-2024,14-35-14,2,VR_target_stimuli/s39_0.75x_1_205.png,250,0.75x,1.0,2,7928,248,meters,jsons/MX_seq27_1_VE250_flipped.json,311782,658084,22,Woman
2,901449,final-intermixed-textured,v2,jsons/MX_seq27_1_VE250_flipped.json,http://54.235.29.9/FacialAge/BNav_EC2/DepthDuration/MX_fS_VE_MTurk/MX_fS_HTML.html#37,37,1536,738,1536,864,0-31-2024,14-35-14,3,VR_target_stimuli/s51_1x_3.64_461.png,250,1x,3.64,3,5522,249,meters,jsons/MX_seq27_1_VE250_flipped.json,311782,658084,22,Woman
3,901449,final-intermixed-textured,v2,jsons/MX_seq27_1_VE250_flipped.json,http://54.235.29.9/FacialAge/BNav_EC2/DepthDuration/MX_fS_VE_MTurk/MX_fS_HTML.html#37,37,1536,738,1536,864,0-31-2024,14-35-14,4,VR_target_stimuli/s43_0.75x_2.2_348_BC.png,250,0.75x,2.2,3,4422,250,meters,jsons/MX_seq27_1_VE250_flipped.json,311782,658084,22,Woman
4,901449,final-intermixed-textured,v2,jsons/MX_seq27_1_VE250_flipped.json,http://54.235.29.9/FacialAge/BNav_EC2/DepthDuration/MX_fS_VE_MTurk/MX_fS_HTML.html#37,37,1536,738,1536,864,0-31-2024,14-35-14,5,VR_target_stimuli/s24_1.3x_3.3_352.png,250,1.3x,3.3,5,9090,249,meters,jsons/MX_seq27_1_VE250_flipped.json,311782,658084,22,Woman
5,901449,final-intermixed-textured,v2,jsons/MX_seq27_1_VE250_flipped.json,http://54.235.29.9/FacialAge/BNav_EC2/DepthDuration/MX_fS_VE_MTurk/MX_fS_HTML.html#37,37,1536,738,1536,864,0-31-2024,14-35-14,6,VR_target_stimuli/s10_1x_2.7_324_BC.png,250,1x,2.7,5,3830,247,meters,jsons/MX_seq27_1_VE250_flipped.json,311782,658084,22,Woman
6,901449,final-intermixed-textured,v2,jsons/MX_seq27_1_VE250_flipped.json,http://54.235.29.9/FacialAge/BNav_EC2/DepthDuration/MX_fS_VE_MTurk/MX_fS_HTML.html#37,37,1536,738,1536,864,0-31-2024,14-35-14,7,catch_stimuli/c0_BC.png,250,,,0,5225,251,meters,jsons/MX_seq27_1_VE250_flipped.json,311782,658084,22,Woman
7,901449,final-intermixed-textured,v2,jsons/MX_seq27_1_VE250_flipped.json,http://54.235.29.9/FacialAge/BNav_EC2/DepthDuration/MX_fS_VE_MTurk/MX_fS_HTML.html#37,37,1536,738,1536,864,0-31-2024,14-35-14,8,VR_target_stimuli/s36_1x_4.1_423.png,250,1x,4.1,4,4677,250,meters,jsons/MX_seq27_1_VE250_flipped.json,311782,658084,22,Woman
8,901449,final-intermixed-textured,v2,jsons/MX_seq27_1_VE250_flipped.json,http://54.235.29.9/FacialAge/BNav_EC2/DepthDuration/MX_fS_VE_MTurk/MX_fS_HTML.html#37,37,1536,738,1536,864,0-31-2024,14-35-14,9,VR_target_stimuli/s40_0.75x_1.2_308.png,250,0.75x,1.2,2,3271,250,meters,jsons/MX_seq27_1_VE250_flipped.json,311782,658084,22,Woman
9,901449,final-intermixed-textured,v2,jsons/MX_seq27_1_VE250_flipped.json,http://54.235.29.9/FacialAge/BNav_EC2/DepthDuration/MX_fS_VE_MTurk/MX_fS_HTML.html#37,37,1536,738,1536,864,0-31-2024,14-35-14,10,VR_target_stimuli/s41_1.3x_2.1_294.png,250,1.3x,2.1,2,3559,247,meters,jsons/MX_seq27_1_VE250_flipped.json,311782,658084,22,Woman
10,901449,final-intermixed-textured,v2,jsons/MX_seq27_1_VE250_flipped.json,http://54.235.29.9/FacialAge/BNav_EC2/DepthDuration/MX_fS_VE_MTurk/MX_fS_HTML.html#37,37,1536,738,1536,864,0-31-2024,14-35-14,11,VR_target_stimuli/s45_0.75x_3.5_362_BC.png,250,0.75x,3.5,3,6335,247,meters,jsons/MX_seq27_1_VE250_flipped.json,311782,658084,22,Woman
11,901449,final-intermixed-textured,v2,jsons/MX_seq27_1_VE250_flipped.json,http://54.235.29.9/FacialAge/BNav_EC2/DepthDuration/MX_fS_VE_MTurk/MX_fS_HTML.html#37,37,1536,738,1536,864,0-31-2024,14-35-14,12,VR_target_stimuli/s23_1x_3.65_353_BC.png,250,1x,3.65,2,6418,249,meters,jsons/MX_seq27_1_VE250_flipped.json,311782,658084,22,Woman
12,901449,final-intermixed-textured,v2,jsons/MX_seq27_1_VE250_flipped.json,http://54.235.29.9/FacialAge/BNav_EC2/DepthDuration/MX_fS_VE_MTurk/MX_fS_HTML.html#37,37,1536,738,1536,864,0-31-2024,14-35-14,13,VR_target_stimuli/s26_1.3x_4_441_BC.png,250,1.3x,4.0,2,3444,248,meters,jsons/MX_seq27_1_VE250_flipped.json,311782,658084,22,Woman
13,901449,final-intermixed-textured,v2,jsons/MX_seq27_1_VE250_flipped.json,http://54.235.29.9/FacialAge/BNav_EC2/DepthDuration/MX_fS_VE_MTurk/MX_fS_HTML.html#37,37,1536,738,1536,864,0-31-2024,14-35-14,14,VR_target_stimuli/s12_1x_3.1_372.png,250,1x,3.1,4,6361,248,meters,jsons/MX_seq27_1_VE250_flipped.json,311782,658084,22,Woman
14,901449,final-intermixed-textured,v2,jsons/MX_seq27_1_VE250_flipped.json,http://54.235.29.9/FacialAge/BNav_EC2/DepthDuration/MX_fS_VE_MTurk/MX_fS_HTML.html#37,37,1536,738,1536,864,0-31-2024,14-35-14,15,VR_target_stimuli/s30_0.75x_2.3_332_BC.png,250,0.75x,2.3,2,3489,251,meters,jsons/MX_seq27_1_VE250_flipped.json,311782,658084,22,Woman
15,901449,final-intermixed-textured,v2,jsons/MX_seq27_1_VE250_flipped.json,http://54.235.29.9/FacialAge/BNav_EC2/DepthDuration/MX_fS_VE_MTurk/MX_fS_HTML.html#37,37,1536,738,1536,864,0-31-2024,14-35-14,16,VR_target_stimuli/s16_1.3x_1_223.png,250,1.3x,1.0,1,3952,248,meters,jsons/MX_seq27_1_VE250_flipped.json,311782,658084,22,Woman
16,901449,final-intermixed-textured,v2,jsons/MX_seq27_1_VE250_flipped.json,http://54.235.29.9/FacialAge/BNav_EC2/DepthDuration/MX_fS_VE_MTurk/MX_fS_HTML.html#37,37,1536,738,1536,864,0-31-2024,14-35-14,17,catch_stimuli/c1_BC.png,250,,,0,3238,250,meters,jsons/MX_seq27_1_VE250_flipped.json,311782,658084,22,Woman
17,901449,final-intermixed-textured,v2,jsons/MX_seq27_1_VE250_flipped.json,http://54.235.29.9/FacialAge/BNav_EC2/DepthDuration/MX_fS_VE_MTurk/MX_fS_HTML.html#37,37,1536,738,1536,864,0-31-2024,14-35-14,18,VR_target_stimuli/s17_1.3x_1.8_300_BC.png,250,1.3x,1.8,1,4919,250,meters,jsons/MX_seq27_1_VE250_flipped.json,311782,658084,22,Woman
18,901449,final-intermixed-textured,v2,jsons/MX_seq27_1_VE250_flipped.json,http://54.235.29.9/FacialAge/BNav_EC2/DepthDuration/MX_fS_VE_MTurk/MX_fS_HTML.html#37,37,1536,738,1536,864,0-31-2024,14-35-14,19,VR_target_stimuli/s5_1x_4_378_BC.png,250,1x,4.0,2,3444,251,meters,jsons/MX_seq27_1_VE250_flipped.json,311782,658084,22,Woman
19,901449,final-intermixed-textured,v2,jsons/MX_seq27_1_VE250_flipped.json,http://54.235.29.9/FacialAge/BNav_EC2/DepthDuration/MX_fS_VE_MTurk/MX_fS_HTML.html#37,37,1536,738,1536,864,0-31-2024,14-35-14,20,VR_target_stimuli/s37_0.75x_3.3_567.png,250,0.75x,3.3,1,3708,247,meters,jsons/MX_seq27_1_VE250_flipped.json,311782,658084,22,Woman
20,901449,final-intermixed-textured,v2,jsons/MX_seq27_1_VE250_flipped.json,http://54.235.29.9/FacialAge/BNav_EC2/DepthDuration/MX_fS_VE_MTurk/MX_fS_HTML.html#37,37,1536,738,1536,864,0-31-2024,14-35-14,21,VR_target_stimuli/s46_1x_2.42_348.png,250,1x,2.42,3,4611,254,meters,jsons/MX_seq27_1_VE250_flipped.json,311782,658084,22,Woman
21,901449,final-intermixed-textured,v2,jsons/MX_seq27_1_VE250_flipped.json,http://54.235.29.9/FacialAge/BNav_EC2/DepthDuration/MX_fS_VE_MTurk/MX_fS_HTML.html#37,37,1536,738,1536,864,0-31-2024,14-35-14,22,VR_target_stimuli/s22_1.3x_4.29_364.png,250,1.3x,4.29,1,6003,254,meters,jsons/MX_seq27_1_VE250_flipped.json,311782,658084,22,Woman
22,901449,final-intermixed-textured,v2,jsons/MX_seq27_1_VE250_flipped.json,http://54.235.29.9/FacialAge/BNav_EC2/DepthDuration/MX_fS_VE_MTurk/MX_fS_HTML.html#37,37,1536,738,1536,864,0-31-2024,14-35-14,23,VR_target_stimuli/s42_0.75x_3.2_301.png,250,0.75x,3.2,4,4603,251,meters,jsons/MX_seq27_1_VE250_flipped.json,311782,658084,22,Woman
23,901449,final-intermixed-textured,v2,jsons/MX_seq27_1_VE250_flipped.json,http://54.235.29.9/FacialAge/BNav_EC2/DepthDuration/MX_fS_VE_MTurk/MX_fS_HTML.html#37,37,1536,738,1536,864,0-31-2024,14-35-14,24,VR_target_stimuli/s25_1.3x_1.4_299_BC.png,250,1.3x,1.4,3,5151,246,meters,jsons/MX_seq27_1_VE250_flipped.json,311782,658084,22,Woman
24,901449,final-intermixed-textured,v2,jsons/MX_seq27_1_VE250_flipped.json,http://54.235.29.9/FacialAge/BNav_EC2/DepthDuration/MX_fS_VE_MTurk/MX_fS_HTML.html#37,37,1536,738,1536,864,0-31-2024,14-35-14,25,VR_target_stimuli/s50_1x_4.53_518_BC.png,250,1x,4.53,4,7938,249,meters,jsons/MX_seq27_1_VE250_flipped.json,311782,658084,22,Woman
25,901449,final-intermixed-textured,v2,jsons/MX_seq27_1_VE250_flipped.json,http://54.235.29.9/FacialAge/BNav_EC2/DepthDuration/MX_fS_VE_MTurk/MX_fS_HTML.html#37,37,1536,738,1536,864,0-31-2024,14-35-14,26,catch_stimuli/c2_BC.png,250,,,0,4065,248,meters,jsons/MX_seq27_1_VE250_flipped.json,311782,658084,22,Woman
26,901449,final-intermixed-textured,v2,jsons/MX_seq27_1_VE250_flipped.json,http://54.235.29.9/FacialAge/BNav_EC2/DepthDuration/MX_fS_VE_MTurk/MX_fS_HTML.html#37,37,1536,738,1536,864,0-31-2024,14-35-14,27,VR_target_stimuli/s53_0.75x_1.6_403_BC.png,250,0.75x,1.6,1,5757,246,meters,jsons/MX_seq27_1_VE250_flipped.json,311782,658084,22,Woman
27,901449,final-intermixed-textured,v2,jsons/MX_seq27_1_VE250_flipped.json,http://54.235.29.9/FacialAge/BNav_EC2/DepthDuration/MX_fS_VE_MTurk/MX_fS_HTML.html#37,37,1536,738,1536,864,0-31-2024,14-35-14,28,VR_target_stimuli/s38_0.75x_3.55_346.png,250,0.75x,3.55,2,5243,249,meters,jsons/MX_seq27_1_VE250_flipped.json,311782,658084,22,Woman
28,901449,final-intermixed-textured,v2,jsons/MX_seq27_1_VE250_flipped.json,http://54.235.29.9/FacialAge/BNav_EC2/DepthDuration/MX_fS_VE_MTurk/MX_fS_HTML.html#37,37,1536,738,1536,864,0-31-2024,14-35-14,29,VR_target_stimuli/s9_1.3x_1.2_276_BC.png,250,1.3x,1.2,1,3978,249,meters,jsons/MX_seq27_1_VE250_flipped.json,311782,658084,22,Woman
29,901449,final-intermixed-textured,v2,jsons/MX_seq27_1_VE250_flipped.json,http://54.235.29.9/FacialAge/BNav_EC2/DepthDuration/MX_fS_VE_MTurk/MX_fS_HTML.html#37,37,1536,738,1536,864,0-31-2024,14-35-14,30,VR_target_stimuli/s44_1x_4.4_317.png,250,1x,4.4,1,4029,249,meters,jsons/MX_seq27_1_VE250_flipped.json,311782,658084,22,Woman
30,901449,final-intermixed-textured,v2,jsons/MX_seq27_1_VE250_flipped.json,http://54.235.29.9/FacialAge/BNav_EC2/DepthDuration/MX_fS_VE_MTurk/MX_fS_HTML.html#37,37,1536,738,1536,864,0-31-2024,14-35-14,31,VR_target_stimuli/s3_0.75x_5_381_BC.png,250,0.75x,5.0,3,3593,249,meters,jsons/MX_seq27_1_VE250_flipped.json,311782,658084,22,Woman
31,901449,final-intermixed-textured,v2,jsons/MX_seq27_1_VE250_flipped.json,http://54.235.29.9/FacialAge/BNav_EC2/DepthDuration/MX_fS_VE_MTurk/MX_fS_HTML.html#37,37,1536,738,1536,864,0-31-2024,14-35-14,32,VR_target_stimuli/s1_1x_1.7_262_BC.png,250,1x,1.7,1,3515,251,meters,jsons/MX_seq27_1_VE250_flipped.json,311782,658084,22,Woman
32,901449,final-intermixed-textured,v2,jsons/MX_seq27_1_VE250_flipped.json,http://54.235.29.9/FacialAge/BNav_EC2/DepthDuration/MX_fS_VE_MTurk/MX_fS_HTML.html#37,37,1536,738,1536,864,0-31-2024,14-35-14,33,VR_target_stimuli/s11_1.3x_5_363.png,250,1.3x,5.0,3,5073,251,meters,jsons/MX_seq27_1_VE250_flipped.json,311782,658084,22,Woman
33,901449,final-intermixed-textured,v2,jsons/MX_seq27_1_VE250_flipped.json,http://54.235.29.9/FacialAge/BNav_EC2/DepthDuration/MX_fS_VE_MTurk/MX_fS_HTML.html#37,37,1536,738,1536,864,0-31-2024,14-35-14,34,catch_stimuli/c3_BC.png,250,,,0,4439,253,meters,jsons/MX_seq27_1_VE250_flipped.json,311782,658084,22,Woman
34,901449,final-intermixed-textured,v2,jsons/MX_seq27_1_VE250_flipped.json,http://54.235.29.9/FacialAge/BNav_EC2/DepthDuration/MX_fS_VE_MTurk/MX_fS_HTML.html#37,37,1536,738,1536,864,0-31-2024,14-35-14,35,VR_target_stimuli/s2_1x_2.7_390_BC.png,250,1x,2.7,0,3719,248,meters,jsons/MX_seq27_1_VE250_flipped.json,311782,658084,22,Woman
35,901449,final-intermixed-textured,v2,jsons/MX_seq27_1_VE250_flipped.json,http://54.235.29.9/FacialAge/BNav_EC2/DepthDuration/MX_fS_VE_MTurk/MX_fS_HTML.html#37,37,1536,738,1536,864,0-31-2024,14-35-14,36,VR_target_stimuli/s6_0.75x_2.1_290.png,250,0.75x,2.1,2,5239,250,meters,jsons/MX_seq27_1_VE250_flipped.json,311782,658084,22,Woman
36,901449,final-intermixed-textured,v2,jsons/MX_seq27_1_VE250_flipped.json,http://54.235.29.9/FacialAge/BNav_EC2/DepthDuration/MX_fS_VE_MTurk/MX_fS_HTML.html#37,37,1536,738,1536,864,0-31-2024,14-35-14,37,VR_target_stimuli/s0_1.3x_2.6_356.png,250,1.3x,2.6,2,4185,252,meters,jsons/MX_seq27_1_VE250_flipped.json,311782,658084,22,Woman
37,901449,final-intermixed-textured,v2,jsons/MX_seq27_1_VE250_flipped.json,http://54.235.29.9/FacialAge/BNav_EC2/DepthDuration/MX_fS_VE_MTurk/MX_fS_HTML.html#37,37,1536,738,1536,864,0-31-2024,14-35-14,38,VR_target_stimuli/s34_1.3x_2.8_294_BC.png,250,1.3x,2.8,3,5419,249,meters,jsons/MX_seq27_1_VE250_flipped.json,311782,658084,22,Woman
38,901449,final-intermixed-textured,v2,jsons/MX_seq27_1_VE250_flipped.json,http://54.235.29.9/FacialAge/BNav_EC2/DepthDuration/MX_fS_VE_MTurk/MX_fS_HTML.html#37,37,1536,738,1536,864,0-31-2024,14-35-14,39,VR_target_stimuli/s13_1x_2.4_310.png,250,1x,2.4,3,4573,248,meters,jsons/MX_seq27_1_VE250_flipped.json,311782,658084,22,Woman
39,901449,final-intermixed-textured,v2,jsons/MX_seq27_1_VE250_flipped.json,http://54.235.29.9/FacialAge/BNav_EC2/DepthDuration/MX_fS_VE_MTurk/MX_fS_HTML.html#37,37,1536,738,1536,864,0-31-2024,14-35-14,40,VR_target_stimuli/s14_0.75x_3.83_355_BC.png,250,0.75x,3.83,3,4504,249,meters,jsons/MX_seq27_1_VE250_flipped.json,311782,658084,22,Woman
40,901449,final-intermixed-textured,v2,jsons/MX_seq27_1_VE250_flipped.json,http://54.235.29.9/FacialAge/BNav_EC2/DepthDuration/MX_fS_VE_MTurk/MX_fS_HTML.html#37,37,1536,738,1536,864,0-31-2024,14-35-14,41,VR_target_stimuli/s47_1x_3.45_370.png,250,1x,3.45,2,3856,253,meters,jsons/MX_seq27_1_VE250_flipped.json,311782,658084,22,Woman
41,901449,final-intermixed-textured,v2,jsons/MX_seq27_1_VE250_flipped.json,http://54.235.29.9/FacialAge/BNav_EC2/DepthDuration/MX_fS_VE_MTurk/MX_fS_HTML.html#37,37,1536,738,1536,864,0-31-2024,14-35-14,42,VR_target_stimuli/s29_1.3x_1.3_253.png,250,1.3x,1.3,2,4043,250,meters,jsons/MX_seq27_1_VE250_flipped.json,311782,658084,22,Woman
42,901449,final-intermixed-textured,v2,jsons/MX_seq27_1_VE250_flipped.json,http://54.235.29.9/FacialAge/BNav_EC2/DepthDuration/MX_fS_VE_MTurk/MX_fS_HTML.html#37,37,1536,738,1536,864,0-31-2024,14-35-14,43,VR_target_stimuli/s28_0.75x_3.2_357.png,250,0.75x,3.2,3,3679,249,meters,jsons/MX_seq27_1_VE250_flipped.json,311782,658084,22,Woman
43,901449,final-intermixed-textured,v2,jsons/MX_seq27_1_VE250_flipped.json,http://54.235.29.9/FacialAge/BNav_EC2/DepthDuration/MX_fS_VE_MTurk/MX_fS_HTML.html#37,37,1536,738,1536,864,0-31-2024,14-35-14,44,VR_target_stimuli/s48_1.3x_2.55_255_BC.png,250,1.3x,2.55,2,3817,249,meters,jsons/MX_seq27_1_VE250_flipped.json,311782,658084,22,Woman
44,901449,final-intermixed-textured,v2,jsons/MX_seq27_1_VE250_flipped.json,http://54.235.29.9/FacialAge/BNav_EC2/DepthDuration/MX_fS_VE_MTurk/MX_fS_HTML.html#37,37,1536,738,1536,864,0-31-2024,14-35-14,45,catch_stimuli/c4_BC.png,250,,,0,3916,247,meters,jsons/MX_seq27_1_VE250_flipped.json,311782,658084,22,Woman
45,901449,final-intermixed-textured,v2,jsons/MX_seq27_1_VE250_flipped.json,http://54.235.29.9/FacialAge/BNav_EC2/DepthDuration/MX_fS_VE_MTurk/MX_fS_HTML.html#37,37,1536,738,1536,864,0-31-2024,14-35-14,46,VR_target_stimuli/s19_1x_1.21_263_BC.png,250,1x,1.21,1,3607,248,meters,jsons/MX_seq27_1_VE250_flipped.json,311782,658084,22,Woman
46,901449,final-intermixed-textured,v2,jsons/MX_seq27_1_VE250_flipped.json,http://54.235.29.9/FacialAge/BNav_EC2/DepthDuration/MX_fS_VE_MTurk/MX_fS_HTML.html#37,37,1536,738,1536,864,0-31-2024,14-35-14,47,VR_target_stimuli/s21_0.75x_4.22_374_BC.png,250,0.75x,4.22,5,3530,250,meters,jsons/MX_seq27_1_VE250_flipped.json,311782,658084,22,Woman
47,901449,final-intermixed-textured,v2,jsons/MX_seq27_1_VE250_flipped.json,http://54.235.29.9/FacialAge/BNav_EC2/DepthDuration/MX_fS_VE_MTurk/MX_fS_HTML.html#37,37,1536,738,1536,864,0-31-2024,14-35-14,48,VR_target_stimuli/s8_0.75x_3.1_325_BC.png,250,0.75x,3.1,3,3625,249,meters,jsons/MX_seq27_1_VE250_flipped.json,311782,658084,22,Woman
48,901449,final-intermixed-textured,v2,jsons/MX_seq27_1_VE250_flipped.json,http://54.235.29.9/FacialAge/BNav_EC2/DepthDuration/MX_fS_VE_MTurk/MX_fS_HTML.html#37,37,1536,738,1536,864,0-31-2024,14-35-14,49,VR_target_stimuli/s27_1.3x_1.76_250.png,250,1.3x,1.76,2,3858,244,meters,jsons/MX_seq27_1_VE250_flipped.json,311782,658084,22,Woman
49,901449,final-intermixed-textured,v2,jsons/MX_seq27_1_VE250_flipped.json,http://54.235.29.9/FacialAge/BNav_EC2/DepthDuration/MX_fS_VE_MTurk/MX_fS_HTML.html#37,37,1536,738,1536,864,0-31-2024,14-35-14,50,VR_target_stimuli/s15_1x_4.2_390_BC.png,250,1x,4.2,4,4236,250,meters,jsons/MX_seq27_1_VE250_flipped.json,311782,658084,22,Woman
50,901449,final-intermixed-textured,v2,jsons/MX_seq27_1_VE250_flipped.json,http://54.235.29.9/FacialAge/BNav_EC2/DepthDuration/MX_fS_VE_MTurk/MX_fS_HTML.html#37,37,1536,738,1536,864,0-31-2024,14-35-14,51,VR_target_stimuli/s4_1.3x_1.4_328_BC.png,250,1.3x,1.4,2,5364,250,meters,jsons/MX_seq27_1_VE250_flipped.json,311782,658084,22,Woman
51,901449,final-intermixed-textured,v2,jsons/MX_seq27_1_VE250_flipped.json,http://54.235.29.9/FacialAge/BNav_EC2/DepthDuration/MX_fS_VE_MTurk/MX_fS_HTML.html#37,37,1536,738,1536,864,0-31-2024,14-35-14,52,VR_target_stimuli/s35_0.75x_2_323.png,250,0.75x,2.0,2,7453,247,meters,jsons/MX_seq27_1_VE250_flipped.json,311782,658084,22,Woman
52,901449,final-intermixed-textured,v2,jsons/MX_seq27_1_VE250_flipped.json,http://54.235.29.9/FacialAge/BNav_EC2/DepthDuration/MX_fS_VE_MTurk/MX_fS_HTML.html#37,37,1536,738,1536,864,0-31-2024,14-35-14,53,catch_stimuli/c5_BC.png,250,,,0,4005,250,meters,jsons/MX_seq27_1_VE250_flipped.json,311782,658084,22,Woman
53,901449,final-intermixed-textured,v2,jsons/MX_seq27_1_VE250_flipped.json,http://54.235.29.9/FacialAge/BNav_EC2/DepthDuration/MX_fS_VE_MTurk/MX_fS_HTML.html#37,37,1536,738,1536,864,0-31-2024,14-35-14,54,VR_target_stimuli/s49_1x_4.67_341.png,250,1x,4.67,1,4221,251,meters,jsons/MX_seq27_1_VE250_flipped.json,311782,658084,22,Woman
54,901449,final-intermixed-textured,v2,jsons/MX_seq27_1_VE250_flipped.json,http://54.235.29.9/FacialAge/BNav_EC2/DepthDuration/MX_fS_VE_MTurk/MX_fS_HTML.html#37,37,1536,738,1536,864,0-31-2024,14-35-14,55,VR_target_stimuli/s7_0.75x_1.5_253.png,250,0.75x,1.5,3,4783,248,meters,jsons/MX_seq27_1_VE250_flipped.json,311782,658084,22,Woman
55,901449,final-intermixed-textured,v2,jsons/MX_seq27_1_VE250_flipped.json,http://54.235.29.9/FacialAge/BNav_EC2/DepthDuration/MX_fS_VE_MTurk/MX_fS_HTML.html#37,37,1536,738,1536,864,0-31-2024,14-35-14,56,VR_target_stimuli/s20_1.3x_4.99_412.png,250,1.3x,4.99,5,3723,247,meters,jsons/MX_seq27_1_VE250_flipped.json,311782,658084,22,Woman
56,901449,final-intermixed-textured,v2,jsons/MX_seq27_1_VE250_flipped.json,http://54.235.29.9/FacialAge/BNav_EC2/DepthDuration/MX_fS_VE_MTurk/MX_fS_HTML.html#37,37,1536,738,1536,864,0-31-2024,14-35-14,57,VR_target_stimuli/s31_1x_4.96_333_BC.png,250,1x,4.96,3,3717,249,meters,jsons/MX_seq27_1_VE250_flipped.json,311782,658084,22,Woman
57,901449,final-intermixed-textured,v2,jsons/MX_seq27_1_VE250_flipped.json,http://54.235.29.9/FacialAge/BNav_EC2/DepthDuration/MX_fS_VE_MTurk/MX_fS_HTML.html#37,37,1536,738,1536,864,0-31-2024,14-35-14,58,VR_target_stimuli/s33_1x_3.1_366.png,250,1x,3.1,0,4025,249,meters,jsons/MX_seq27_1_VE250_flipped.json,311782,658084,22,Woman
58,901449,final-intermixed-textured,v2,jsons/MX_seq27_1_VE250_flipped.json,http://54.235.29.9/FacialAge/BNav_EC2/DepthDuration/MX_fS_VE_MTurk/MX_fS_HTML.html#37,37,1536,738,1536,864,0-31-2024,14-35-14,59,VR_target_stimuli/s52_0.75x_3.2_270_BC.png,250,0.75x,3.2,5,5239,250,meters,jsons/MX_seq27_1_VE250_flipped.json,311782,658084,22,Woman
59,901449,final-intermixed-textured,v2,jsons/MX_seq27_1_VE250_flipped.json,http://54.235.29.9/FacialAge/BNav_EC2/DepthDuration/MX_fS_VE_MTurk/MX_fS_HTML.html#37,37,1536,738,1536,864,0-31-2024,14-35-14,60,VR_target_stimuli/s32_1.3x_1.5_224_BC.png,250,1.3x,1.5,5,6405,251,meters,jsons/MX_seq27_1_VE250_flipped.json,311782,658084,22,Woman
