,subjID,experimentName,versionName,sequenceName,url,selected_row,windowWidth,windowHeight,screenWidth,screenHeight,startDate,startTime,trial,stimulus,duration,scale,actual_depth,depth_estimate,trial_RT,log_sceneDuration,unitSelection,seq_filepath,experimentTime,totalTime,age,gender
0,931397,final-intermixed-textured,v2,jsons/MX_seq7_1_VE250_flipped.json,http://54.235.29.9/FacialAge/BNav_EC2/DepthDuration/MX_fS_VE_MTurk/MX_fS_HTML.html#289,289,1440,782,1440,900,1-1-2024,15-58-52,1,VR_target_stimuli/s13_1.3x_2.4_313.png,250,1.3x,2.4,3.0,5014,253,meters,jsons/MX_seq7_1_VE250_flipped.json,300946,613283,30,Woman
1,931397,final-intermixed-textured,v2,jsons/MX_seq7_1_VE250_flipped.json,http://54.235.29.9/FacialAge/BNav_EC2/DepthDuration/MX_fS_VE_MTurk/MX_fS_HTML.html#289,289,1440,782,1440,900,1-1-2024,15-58-52,2,VR_target_stimuli/s14_0.75x_3.83_355_BC.png,250,0.75x,3.83,3.0,7844,251,meters,jsons/MX_seq7_1_VE250_flipped.json,300946,613283,30,Woman
2,931397,final-intermixed-textured,v2,jsons/MX_seq7_1_VE250_flipped.json,http://54.235.29.9/FacialAge/BNav_EC2/DepthDuration/MX_fS_VE_MTurk/MX_fS_HTML.html#289,289,1440,782,1440,900,1-1-2024,15-58-52,3,VR_target_stimuli/s47_1x_3.45_370.png,250,1x,3.45,2.0,4481,250,meters,jsons/MX_seq7_1_VE250_flipped.json,300946,613283,30,Woman
3,931397,final-intermixed-textured,v2,jsons/MX_seq7_1_VE250_flipped.json,http://54.235.29.9/FacialAge/BNav_EC2/DepthDuration/MX_fS_VE_MTurk/MX_fS_HTML.html#289,289,1440,782,1440,900,1-1-2024,15-58-52,4,VR_target_stimuli/s29_0.75x_1.3_246.png,250,0.75x,1.3,2.5,7365,248,meters,jsons/MX_seq7_1_VE250_flipped.json,300946,613283,30,Woman
4,931397,final-intermixed-textured,v2,jsons/MX_seq7_1_VE250_flipped.json,http://54.235.29.9/FacialAge/BNav_EC2/DepthDuration/MX_fS_VE_MTurk/MX_fS_HTML.html#289,289,1440,782,1440,900,1-1-2024,15-58-52,5,VR_target_stimuli/s28_1.3x_3.2_365_BC.png,250,1.3x,3.2,3.2,6275,249,meters,jsons/MX_seq7_1_VE250_flipped.json,300946,613283,30,Woman
5,931397,final-intermixed-textured,v2,jsons/MX_seq7_1_VE250_flipped.json,http://54.235.29.9/FacialAge/BNav_EC2/DepthDuration/MX_fS_VE_MTurk/MX_fS_HTML.html#289,289,1440,782,1440,900,1-1-2024,15-58-52,6,VR_target_stimuli/s48_1x_2.55_256_BC.png,250,1x,2.55,1.8,7460,248,meters,jsons/MX_seq7_1_VE250_flipped.json,300946,613283,30,Woman
6,931397,final-intermixed-textured,v2,jsons/MX_seq7_1_VE250_flipped.json,http://54.235.29.9/FacialAge/BNav_EC2/DepthDuration/MX_fS_VE_MTurk/MX_fS_HTML.html#289,289,1440,782,1440,900,1-1-2024,15-58-52,7,catch_stimuli/c0_BC.png,250,,,0.0,3648,254,meters,jsons/MX_seq7_1_VE250_flipped.json,300946,613283,30,Woman
7,931397,final-intermixed-textured,v2,jsons/MX_seq7_1_VE250_flipped.json,http://54.235.29.9/FacialAge/BNav_EC2/DepthDuration/MX_fS_VE_MTurk/MX_fS_HTML.html#289,289,1440,782,1440,900,1-1-2024,15-58-52,8,VR_target_stimuli/s19_1x_1.21_263.png,250,1x,1.21,2.0,5028,249,meters,jsons/MX_seq7_1_VE250_flipped.json,300946,613283,30,Woman
8,931397,final-intermixed-textured,v2,jsons/MX_seq7_1_VE250_flipped.json,http://54.235.29.9/FacialAge/BNav_EC2/DepthDuration/MX_fS_VE_MTurk/MX_fS_HTML.html#289,289,1440,782,1440,900,1-1-2024,15-58-52,9,VR_target_stimuli/s21_0.75x_4.22_374.png,250,0.75x,4.22,6.0,4565,249,meters,jsons/MX_seq7_1_VE250_flipped.json,300946,613283,30,Woman
9,931397,final-intermixed-textured,v2,jsons/MX_seq7_1_VE250_flipped.json,http://54.235.29.9/FacialAge/BNav_EC2/DepthDuration/MX_fS_VE_MTurk/MX_fS_HTML.html#289,289,1440,782,1440,900,1-1-2024,15-58-52,10,VR_target_stimuli/s8_1.3x_3.1_345_BC.png,250,1.3x,3.1,4.0,4329,253,meters,jsons/MX_seq7_1_VE250_flipped.json,300946,613283,30,Woman
10,931397,final-intermixed-textured,v2,jsons/MX_seq7_1_VE250_flipped.json,http://54.235.29.9/FacialAge/BNav_EC2/DepthDuration/MX_fS_VE_MTurk/MX_fS_HTML.html#289,289,1440,782,1440,900,1-1-2024,15-58-52,11,VR_target_stimuli/s27_0.75x_1.76_243_BC.png,250,0.75x,1.76,3.0,4881,249,meters,jsons/MX_seq7_1_VE250_flipped.json,300946,613283,30,Woman
11,931397,final-intermixed-textured,v2,jsons/MX_seq7_1_VE250_flipped.json,http://54.235.29.9/FacialAge/BNav_EC2/DepthDuration/MX_fS_VE_MTurk/MX_fS_HTML.html#289,289,1440,782,1440,900,1-1-2024,15-58-52,12,VR_target_stimuli/s15_1x_4.2_390_BC.png,250,1x,4.2,7.0,3981,253,meters,jsons/MX_seq7_1_VE250_flipped.json,300946,613283,30,Woman
12,931397,final-intermixed-textured,v2,jsons/MX_seq7_1_VE250_flipped.json,http://54.235.29.9/FacialAge/BNav_EC2/DepthDuration/MX_fS_VE_MTurk/MX_fS_HTML.html#289,289,1440,782,1440,900,1-1-2024,15-58-52,13,VR_target_stimuli/s4_1.3x_1.4_328.png,250,1.3x,1.4,4.0,4965,254,meters,jsons/MX_seq7_1_VE250_flipped.json,300946,613283,30,Woman
13,931397,final-intermixed-textured,v2,jsons/MX_seq7_1_VE250_flipped.json,http://54.235.29.9/FacialAge/BNav_EC2/DepthDuration/MX_fS_VE_MTurk/MX_fS_HTML.html#289,289,1440,782,1440,900,1-1-2024,15-58-52,14,VR_target_stimuli/s35_1x_2_331.png,250,1x,2.0,3.0,3561,249,meters,jsons/MX_seq7_1_VE250_flipped.json,300946,613283,30,Woman
14,931397,final-intermixed-textured,v2,jsons/MX_seq7_1_VE250_flipped.json,http://54.235.29.9/FacialAge/BNav_EC2/DepthDuration/MX_fS_VE_MTurk/MX_fS_HTML.html#289,289,1440,782,1440,900,1-1-2024,15-58-52,15,VR_target_stimuli/s49_0.75x_4.67_328_BC.png,250,0.75x,4.67,3.5,6330,251,meters,jsons/MX_seq7_1_VE250_flipped.json,300946,613283,30,Woman
15,931397,final-intermixed-textured,v2,jsons/MX_seq7_1_VE250_flipped.json,http://54.235.29.9/FacialAge/BNav_EC2/DepthDuration/MX_fS_VE_MTurk/MX_fS_HTML.html#289,289,1440,782,1440,900,1-1-2024,15-58-52,16,VR_target_stimuli/s7_1.3x_1.5_256_BC.png,250,1.3x,1.5,3.2,5814,254,meters,jsons/MX_seq7_1_VE250_flipped.json,300946,613283,30,Woman
16,931397,final-intermixed-textured,v2,jsons/MX_seq7_1_VE250_flipped.json,http://54.235.29.9/FacialAge/BNav_EC2/DepthDuration/MX_fS_VE_MTurk/MX_fS_HTML.html#289,289,1440,782,1440,900,1-1-2024,15-58-52,17,catch_stimuli/c1_BC.png,250,,,0.0,3246,251,meters,jsons/MX_seq7_1_VE250_flipped.json,300946,613283,30,Woman
17,931397,final-intermixed-textured,v2,jsons/MX_seq7_1_VE250_flipped.json,http://54.235.29.9/FacialAge/BNav_EC2/DepthDuration/MX_fS_VE_MTurk/MX_fS_HTML.html#289,289,1440,782,1440,900,1-1-2024,15-58-52,18,VR_target_stimuli/s20_1.3x_4.99_412.png,250,1.3x,4.99,10.0,4465,254,meters,jsons/MX_seq7_1_VE250_flipped.json,300946,613283,30,Woman
18,931397,final-intermixed-textured,v2,jsons/MX_seq7_1_VE250_flipped.json,http://54.235.29.9/FacialAge/BNav_EC2/DepthDuration/MX_fS_VE_MTurk/MX_fS_HTML.html#289,289,1440,782,1440,900,1-1-2024,15-58-52,19,VR_target_stimuli/s31_1x_4.96_333_BC.png,250,1x,4.96,3.0,4395,250,meters,jsons/MX_seq7_1_VE250_flipped.json,300946,613283,30,Woman
19,931397,final-intermixed-textured,v2,jsons/MX_seq7_1_VE250_flipped.json,http://54.235.29.9/FacialAge/BNav_EC2/DepthDuration/MX_fS_VE_MTurk/MX_fS_HTML.html#289,289,1440,782,1440,900,1-1-2024,15-58-52,20,VR_target_stimuli/s33_0.75x_3.1_361.png,250,0.75x,3.1,5.0,3566,255,meters,jsons/MX_seq7_1_VE250_flipped.json,300946,613283,30,Woman
20,931397,final-intermixed-textured,v2,jsons/MX_seq7_1_VE250_flipped.json,http://54.235.29.9/FacialAge/BNav_EC2/DepthDuration/MX_fS_VE_MTurk/MX_fS_HTML.html#289,289,1440,782,1440,900,1-1-2024,15-58-52,21,VR_target_stimuli/s52_1x_3.2_275.png,250,1x,3.2,7.0,3798,250,meters,jsons/MX_seq7_1_VE250_flipped.json,300946,613283,30,Woman
21,931397,final-intermixed-textured,v2,jsons/MX_seq7_1_VE250_flipped.json,http://54.235.29.9/FacialAge/BNav_EC2/DepthDuration/MX_fS_VE_MTurk/MX_fS_HTML.html#289,289,1440,782,1440,900,1-1-2024,15-58-52,22,VR_target_stimuli/s32_1.3x_1.5_224_BC.png,250,1.3x,1.5,3.0,4476,246,meters,jsons/MX_seq7_1_VE250_flipped.json,300946,613283,30,Woman
22,931397,final-intermixed-textured,v2,jsons/MX_seq7_1_VE250_flipped.json,http://54.235.29.9/FacialAge/BNav_EC2/DepthDuration/MX_fS_VE_MTurk/MX_fS_HTML.html#289,289,1440,782,1440,900,1-1-2024,15-58-52,23,VR_target_stimuli/s18_0.75x_2.25_341_BC.png,250,0.75x,2.25,3.0,5744,248,meters,jsons/MX_seq7_1_VE250_flipped.json,300946,613283,30,Woman
23,931397,final-intermixed-textured,v2,jsons/MX_seq7_1_VE250_flipped.json,http://54.235.29.9/FacialAge/BNav_EC2/DepthDuration/MX_fS_VE_MTurk/MX_fS_HTML.html#289,289,1440,782,1440,900,1-1-2024,15-58-52,24,VR_target_stimuli/s39_1.3x_1_208.png,250,1.3x,1.0,2.0,3498,250,meters,jsons/MX_seq7_1_VE250_flipped.json,300946,613283,30,Woman
24,931397,final-intermixed-textured,v2,jsons/MX_seq7_1_VE250_flipped.json,http://54.235.29.9/FacialAge/BNav_EC2/DepthDuration/MX_fS_VE_MTurk/MX_fS_HTML.html#289,289,1440,782,1440,900,1-1-2024,15-58-52,25,VR_target_stimuli/s51_1x_3.64_461_BC.png,250,1x,3.64,6.0,3261,249,meters,jsons/MX_seq7_1_VE250_flipped.json,300946,613283,30,Woman
25,931397,final-intermixed-textured,v2,jsons/MX_seq7_1_VE250_flipped.json,http://54.235.29.9/FacialAge/BNav_EC2/DepthDuration/MX_fS_VE_MTurk/MX_fS_HTML.html#289,289,1440,782,1440,900,1-1-2024,15-58-52,26,catch_stimuli/c2_BC.png,250,,,0.0,3346,249,meters,jsons/MX_seq7_1_VE250_flipped.json,300946,613283,30,Woman
26,931397,final-intermixed-textured,v2,jsons/MX_seq7_1_VE250_flipped.json,http://54.235.29.9/FacialAge/BNav_EC2/DepthDuration/MX_fS_VE_MTurk/MX_fS_HTML.html#289,289,1440,782,1440,900,1-1-2024,15-58-52,27,VR_target_stimuli/s43_0.75x_2.2_348.png,250,0.75x,2.2,4.2,5334,252,meters,jsons/MX_seq7_1_VE250_flipped.json,300946,613283,30,Woman
27,931397,final-intermixed-textured,v2,jsons/MX_seq7_1_VE250_flipped.json,http://54.235.29.9/FacialAge/BNav_EC2/DepthDuration/MX_fS_VE_MTurk/MX_fS_HTML.html#289,289,1440,782,1440,900,1-1-2024,15-58-52,28,VR_target_stimuli/s24_0.75x_3.3_344_BC.png,250,0.75x,3.3,5.5,5714,253,meters,jsons/MX_seq7_1_VE250_flipped.json,300946,613283,30,Woman
28,931397,final-intermixed-textured,v2,jsons/MX_seq7_1_VE250_flipped.json,http://54.235.29.9/FacialAge/BNav_EC2/DepthDuration/MX_fS_VE_MTurk/MX_fS_HTML.html#289,289,1440,782,1440,900,1-1-2024,15-58-52,29,VR_target_stimuli/s10_1.3x_2.7_325.png,250,1.3x,2.7,4.5,4795,251,meters,jsons/MX_seq7_1_VE250_flipped.json,300946,613283,30,Woman
29,931397,final-intermixed-textured,v2,jsons/MX_seq7_1_VE250_flipped.json,http://54.235.29.9/FacialAge/BNav_EC2/DepthDuration/MX_fS_VE_MTurk/MX_fS_HTML.html#289,289,1440,782,1440,900,1-1-2024,15-58-52,30,VR_target_stimuli/s36_1x_4.1_423_BC.png,250,1x,4.1,6.6,5031,253,meters,jsons/MX_seq7_1_VE250_flipped.json,300946,613283,30,Woman
30,931397,final-intermixed-textured,v2,jsons/MX_seq7_1_VE250_flipped.json,http://54.235.29.9/FacialAge/BNav_EC2/DepthDuration/MX_fS_VE_MTurk/MX_fS_HTML.html#289,289,1440,782,1440,900,1-1-2024,15-58-52,31,VR_target_stimuli/s40_0.75x_1.2_308.png,250,0.75x,1.2,4.0,3149,254,meters,jsons/MX_seq7_1_VE250_flipped.json,300946,613283,30,Woman
31,931397,final-intermixed-textured,v2,jsons/MX_seq7_1_VE250_flipped.json,http://54.235.29.9/FacialAge/BNav_EC2/DepthDuration/MX_fS_VE_MTurk/MX_fS_HTML.html#289,289,1440,782,1440,900,1-1-2024,15-58-52,32,VR_target_stimuli/s41_1x_2.1_286.png,250,1x,2.1,3.5,5177,247,meters,jsons/MX_seq7_1_VE250_flipped.json,300946,613283,30,Woman
32,931397,final-intermixed-textured,v2,jsons/MX_seq7_1_VE250_flipped.json,http://54.235.29.9/FacialAge/BNav_EC2/DepthDuration/MX_fS_VE_MTurk/MX_fS_HTML.html#289,289,1440,782,1440,900,1-1-2024,15-58-52,33,VR_target_stimuli/s45_1.3x_3.5_377_BC.png,250,1.3x,3.5,5.0,3712,248,meters,jsons/MX_seq7_1_VE250_flipped.json,300946,613283,30,Woman
33,931397,final-intermixed-textured,v2,jsons/MX_seq7_1_VE250_flipped.json,http://54.235.29.9/FacialAge/BNav_EC2/DepthDuration/MX_fS_VE_MTurk/MX_fS_HTML.html#289,289,1440,782,1440,900,1-1-2024,15-58-52,34,catch_stimuli/c3_BC.png,250,,,0.0,3245,252,meters,jsons/MX_seq7_1_VE250_flipped.json,300946,613283,30,Woman
34,931397,final-intermixed-textured,v2,jsons/MX_seq7_1_VE250_flipped.json,http://54.235.29.9/FacialAge/BNav_EC2/DepthDuration/MX_fS_VE_MTurk/MX_fS_HTML.html#289,289,1440,782,1440,900,1-1-2024,15-58-52,35,VR_target_stimuli/s23_1x_3.65_353.png,250,1x,3.65,6.5,6446,252,meters,jsons/MX_seq7_1_VE250_flipped.json,300946,613283,30,Woman
35,931397,final-intermixed-textured,v2,jsons/MX_seq7_1_VE250_flipped.json,http://54.235.29.9/FacialAge/BNav_EC2/DepthDuration/MX_fS_VE_MTurk/MX_fS_HTML.html#289,289,1440,782,1440,900,1-1-2024,15-58-52,36,VR_target_stimuli/s26_0.75x_4_430.png,250,0.75x,4.0,5.0,3380,247,meters,jsons/MX_seq7_1_VE250_flipped.json,300946,613283,30,Woman
36,931397,final-intermixed-textured,v2,jsons/MX_seq7_1_VE250_flipped.json,http://54.235.29.9/FacialAge/BNav_EC2/DepthDuration/MX_fS_VE_MTurk/MX_fS_HTML.html#289,289,1440,782,1440,900,1-1-2024,15-58-52,37,VR_target_stimuli/s12_1.3x_3.1_375_BC.png,250,1.3x,3.1,3.7,5013,250,meters,jsons/MX_seq7_1_VE250_flipped.json,300946,613283,30,Woman
37,931397,final-intermixed-textured,v2,jsons/MX_seq7_1_VE250_flipped.json,http://54.235.29.9/FacialAge/BNav_EC2/DepthDuration/MX_fS_VE_MTurk/MX_fS_HTML.html#289,289,1440,782,1440,900,1-1-2024,15-58-52,38,VR_target_stimuli/s30_1.3x_2.3_337.png,250,1.3x,2.3,4.0,3492,246,meters,jsons/MX_seq7_1_VE250_flipped.json,300946,613283,30,Woman
38,931397,final-intermixed-textured,v2,jsons/MX_seq7_1_VE250_flipped.json,http://54.235.29.9/FacialAge/BNav_EC2/DepthDuration/MX_fS_VE_MTurk/MX_fS_HTML.html#289,289,1440,782,1440,900,1-1-2024,15-58-52,39,VR_target_stimuli/s16_1x_1_219_BC.png,250,1x,1.0,3.2,5195,249,meters,jsons/MX_seq7_1_VE250_flipped.json,300946,613283,30,Woman
39,931397,final-intermixed-textured,v2,jsons/MX_seq7_1_VE250_flipped.json,http://54.235.29.9/FacialAge/BNav_EC2/DepthDuration/MX_fS_VE_MTurk/MX_fS_HTML.html#289,289,1440,782,1440,900,1-1-2024,15-58-52,40,VR_target_stimuli/s17_0.75x_1.8_285_BC.png,250,0.75x,1.8,4.0,3362,245,meters,jsons/MX_seq7_1_VE250_flipped.json,300946,613283,30,Woman
40,931397,final-intermixed-textured,v2,jsons/MX_seq7_1_VE250_flipped.json,http://54.235.29.9/FacialAge/BNav_EC2/DepthDuration/MX_fS_VE_MTurk/MX_fS_HTML.html#289,289,1440,782,1440,900,1-1-2024,15-58-52,41,VR_target_stimuli/s5_1x_4_378.png,250,1x,4.0,6.0,2996,250,meters,jsons/MX_seq7_1_VE250_flipped.json,300946,613283,30,Woman
41,931397,final-intermixed-textured,v2,jsons/MX_seq7_1_VE250_flipped.json,http://54.235.29.9/FacialAge/BNav_EC2/DepthDuration/MX_fS_VE_MTurk/MX_fS_HTML.html#289,289,1440,782,1440,900,1-1-2024,15-58-52,42,VR_target_stimuli/s37_1.3x_3.3_555.png,250,1.3x,3.3,4.0,4014,254,meters,jsons/MX_seq7_1_VE250_flipped.json,300946,613283,30,Woman
42,931397,final-intermixed-textured,v2,jsons/MX_seq7_1_VE250_flipped.json,http://54.235.29.9/FacialAge/BNav_EC2/DepthDuration/MX_fS_VE_MTurk/MX_fS_HTML.html#289,289,1440,782,1440,900,1-1-2024,15-58-52,43,VR_target_stimuli/s46_0.75x_2.42_343_BC.png,250,0.75x,2.42,5.0,3280,252,meters,jsons/MX_seq7_1_VE250_flipped.json,300946,613283,30,Woman
43,931397,final-intermixed-textured,v2,jsons/MX_seq7_1_VE250_flipped.json,http://54.235.29.9/FacialAge/BNav_EC2/DepthDuration/MX_fS_VE_MTurk/MX_fS_HTML.html#289,289,1440,782,1440,900,1-1-2024,15-58-52,44,VR_target_stimuli/s22_1.3x_4.29_364_BC.png,250,1.3x,4.29,5.5,4162,246,meters,jsons/MX_seq7_1_VE250_flipped.json,300946,613283,30,Woman
44,931397,final-intermixed-textured,v2,jsons/MX_seq7_1_VE250_flipped.json,http://54.235.29.9/FacialAge/BNav_EC2/DepthDuration/MX_fS_VE_MTurk/MX_fS_HTML.html#289,289,1440,782,1440,900,1-1-2024,15-58-52,45,catch_stimuli/c4_BC.png,250,,,0.0,3112,247,meters,jsons/MX_seq7_1_VE250_flipped.json,300946,613283,30,Woman
45,931397,final-intermixed-textured,v2,jsons/MX_seq7_1_VE250_flipped.json,http://54.235.29.9/FacialAge/BNav_EC2/DepthDuration/MX_fS_VE_MTurk/MX_fS_HTML.html#289,289,1440,782,1440,900,1-1-2024,15-58-52,46,VR_target_stimuli/s42_1x_3.2_303_BC.png,250,1x,3.2,5.6,5313,251,meters,jsons/MX_seq7_1_VE250_flipped.json,300946,613283,30,Woman
46,931397,final-intermixed-textured,v2,jsons/MX_seq7_1_VE250_flipped.json,http://54.235.29.9/FacialAge/BNav_EC2/DepthDuration/MX_fS_VE_MTurk/MX_fS_HTML.html#289,289,1440,782,1440,900,1-1-2024,15-58-52,47,VR_target_stimuli/s25_0.75x_1.4_281.png,250,0.75x,1.4,3.4,5946,251,meters,jsons/MX_seq7_1_VE250_flipped.json,300946,613283,30,Woman
47,931397,final-intermixed-textured,v2,jsons/MX_seq7_1_VE250_flipped.json,http://54.235.29.9/FacialAge/BNav_EC2/DepthDuration/MX_fS_VE_MTurk/MX_fS_HTML.html#289,289,1440,782,1440,900,1-1-2024,15-58-52,48,VR_target_stimuli/s50_0.75x_4.53_517.png,250,0.75x,4.53,4.0,4863,251,meters,jsons/MX_seq7_1_VE250_flipped.json,300946,613283,30,Woman
48,931397,final-intermixed-textured,v2,jsons/MX_seq7_1_VE250_flipped.json,http://54.235.29.9/FacialAge/BNav_EC2/DepthDuration/MX_fS_VE_MTurk/MX_fS_HTML.html#289,289,1440,782,1440,900,1-1-2024,15-58-52,49,VR_target_stimuli/s53_1.3x_1.6_355_BC.png,250,1.3x,1.6,2.0,3210,249,meters,jsons/MX_seq7_1_VE250_flipped.json,300946,613283,30,Woman
49,931397,final-intermixed-textured,v2,jsons/MX_seq7_1_VE250_flipped.json,http://54.235.29.9/FacialAge/BNav_EC2/DepthDuration/MX_fS_VE_MTurk/MX_fS_HTML.html#289,289,1440,782,1440,900,1-1-2024,15-58-52,50,VR_target_stimuli/s38_1x_3.55_353_BC.png,250,1x,3.55,6.0,3494,250,meters,jsons/MX_seq7_1_VE250_flipped.json,300946,613283,30,Woman
50,931397,final-intermixed-textured,v2,jsons/MX_seq7_1_VE250_flipped.json,http://54.235.29.9/FacialAge/BNav_EC2/DepthDuration/MX_fS_VE_MTurk/MX_fS_HTML.html#289,289,1440,782,1440,900,1-1-2024,15-58-52,51,VR_target_stimuli/s9_1.3x_1.2_276.png,250,1.3x,1.2,3.0,3478,250,meters,jsons/MX_seq7_1_VE250_flipped.json,300946,613283,30,Woman
51,931397,final-intermixed-textured,v2,jsons/MX_seq7_1_VE250_flipped.json,http://54.235.29.9/FacialAge/BNav_EC2/DepthDuration/MX_fS_VE_MTurk/MX_fS_HTML.html#289,289,1440,782,1440,900,1-1-2024,15-58-52,52,VR_target_stimuli/s44_0.75x_4.4_314_BC.png,250,0.75x,4.4,5.0,3498,251,meters,jsons/MX_seq7_1_VE250_flipped.json,300946,613283,30,Woman
52,931397,final-intermixed-textured,v2,jsons/MX_seq7_1_VE250_flipped.json,http://54.235.29.9/FacialAge/BNav_EC2/DepthDuration/MX_fS_VE_MTurk/MX_fS_HTML.html#289,289,1440,782,1440,900,1-1-2024,15-58-52,53,catch_stimuli/c5_BC.png,250,,,0.0,3244,251,meters,jsons/MX_seq7_1_VE250_flipped.json,300946,613283,30,Woman
53,931397,final-intermixed-textured,v2,jsons/MX_seq7_1_VE250_flipped.json,http://54.235.29.9/FacialAge/BNav_EC2/DepthDuration/MX_fS_VE_MTurk/MX_fS_HTML.html#289,289,1440,782,1440,900,1-1-2024,15-58-52,54,VR_target_stimuli/s3_1x_5_385.png,250,1x,5.0,7.0,3228,245,meters,jsons/MX_seq7_1_VE250_flipped.json,300946,613283,30,Woman
54,931397,final-intermixed-textured,v2,jsons/MX_seq7_1_VE250_flipped.json,http://54.235.29.9/FacialAge/BNav_EC2/DepthDuration/MX_fS_VE_MTurk/MX_fS_HTML.html#289,289,1440,782,1440,900,1-1-2024,15-58-52,55,VR_target_stimuli/s1_0.75x_1.7_265_BC.png,250,0.75x,1.7,4.5,6561,247,meters,jsons/MX_seq7_1_VE250_flipped.json,300946,613283,30,Woman
55,931397,final-intermixed-textured,v2,jsons/MX_seq7_1_VE250_flipped.json,http://54.235.29.9/FacialAge/BNav_EC2/DepthDuration/MX_fS_VE_MTurk/MX_fS_HTML.html#289,289,1440,782,1440,900,1-1-2024,15-58-52,56,VR_target_stimuli/s11_1.3x_5_363.png,250,1.3x,5.0,6.5,5046,252,meters,jsons/MX_seq7_1_VE250_flipped.json,300946,613283,30,Woman
56,931397,final-intermixed-textured,v2,jsons/MX_seq7_1_VE250_flipped.json,http://54.235.29.9/FacialAge/BNav_EC2/DepthDuration/MX_fS_VE_MTurk/MX_fS_HTML.html#289,289,1440,782,1440,900,1-1-2024,15-58-52,57,VR_target_stimuli/s2_1x_2.7_390_BC.png,250,1x,2.7,0.0,3112,251,meters,jsons/MX_seq7_1_VE250_flipped.json,300946,613283,30,Woman
57,931397,final-intermixed-textured,v2,jsons/MX_seq7_1_VE250_flipped.json,http://54.235.29.9/FacialAge/BNav_EC2/DepthDuration/MX_fS_VE_MTurk/MX_fS_HTML.html#289,289,1440,782,1440,900,1-1-2024,15-58-52,58,VR_target_stimuli/s6_1x_2.1_293.png,250,1x,2.1,5.0,3661,250,meters,jsons/MX_seq7_1_VE250_flipped.json,300946,613283,30,Woman
58,931397,final-intermixed-textured,v2,jsons/MX_seq7_1_VE250_flipped.json,http://54.235.29.9/FacialAge/BNav_EC2/DepthDuration/MX_fS_VE_MTurk/MX_fS_HTML.html#289,289,1440,782,1440,900,1-1-2024,15-58-52,59,VR_target_stimuli/s0_0.75x_2.6_345.png,250,0.75x,2.6,5.2,6014,250,meters,jsons/MX_seq7_1_VE250_flipped.json,300946,613283,30,Woman
59,931397,final-intermixed-textured,v2,jsons/MX_seq7_1_VE250_flipped.json,http://54.235.29.9/FacialAge/BNav_EC2/DepthDuration/MX_fS_VE_MTurk/MX_fS_HTML.html#289,289,1440,782,1440,900,1-1-2024,15-58-52,60,VR_target_stimuli/s34_1.3x_2.8_294_BC.png,250,1.3x,2.8,0.0,4080,250,meters,jsons/MX_seq7_1_VE250_flipped.json,300946,613283,30,Woman
