,subjID,experimentName,versionName,sequenceName,url,selected_row,windowWidth,windowHeight,screenWidth,screenHeight,startDate,startTime,trial,stimulus,duration,scale,actual_depth,depth_estimate,trial_RT,log_sceneDuration,unitSelection,seq_filepath,experimentTime,totalTime,age,gender
0,938592,final-intermixed-textured,v2,jsons/MX_seq31_0_VE250_flipped.json,http://54.235.29.9/FacialAge/BNav_EC2/DepthDuration/MX_fS_VE_MTurk/MX_fS_HTML.html#187,187,1536,695,1536,864,0-31-2024,10-33-24,1,VR_target_stimuli/s24_0.75x_3.3_344_BC.png,250,0.75x,3.3,2.5,6392,246,meters,jsons/MX_seq31_0_VE250_flipped.json,318924,573858,27,Woman
1,938592,final-intermixed-textured,v2,jsons/MX_seq31_0_VE250_flipped.json,http://54.235.29.9/FacialAge/BNav_EC2/DepthDuration/MX_fS_VE_MTurk/MX_fS_HTML.html#187,187,1536,695,1536,864,0-31-2024,10-33-24,2,VR_target_stimuli/s10_1x_2.7_324_BC.png,250,1x,2.7,3.0,3409,242,meters,jsons/MX_seq31_0_VE250_flipped.json,318924,573858,27,Woman
2,938592,final-intermixed-textured,v2,jsons/MX_seq31_0_VE250_flipped.json,http://54.235.29.9/FacialAge/BNav_EC2/DepthDuration/MX_fS_VE_MTurk/MX_fS_HTML.html#187,187,1536,695,1536,864,0-31-2024,10-33-24,3,VR_target_stimuli/s36_1.3x_4.1_442.png,250,1.3x,4.1,3.2,5784,243,meters,jsons/MX_seq31_0_VE250_flipped.json,318924,573858,27,Woman
3,938592,final-intermixed-textured,v2,jsons/MX_seq31_0_VE250_flipped.json,http://54.235.29.9/FacialAge/BNav_EC2/DepthDuration/MX_fS_VE_MTurk/MX_fS_HTML.html#187,187,1536,695,1536,864,0-31-2024,10-33-24,4,VR_target_stimuli/s40_1x_1.2_319.png,250,1x,1.2,2.0,3265,253,meters,jsons/MX_seq31_0_VE250_flipped.json,318924,573858,27,Woman
4,938592,final-intermixed-textured,v2,jsons/MX_seq31_0_VE250_flipped.json,http://54.235.29.9/FacialAge/BNav_EC2/DepthDuration/MX_fS_VE_MTurk/MX_fS_HTML.html#187,187,1536,695,1536,864,0-31-2024,10-33-24,5,VR_target_stimuli/s41_0.75x_2.1_281.png,250,0.75x,2.1,3.8,5060,249,meters,jsons/MX_seq31_0_VE250_flipped.json,318924,573858,27,Woman
5,938592,final-intermixed-textured,v2,jsons/MX_seq31_0_VE250_flipped.json,http://54.235.29.9/FacialAge/BNav_EC2/DepthDuration/MX_fS_VE_MTurk/MX_fS_HTML.html#187,187,1536,695,1536,864,0-31-2024,10-33-24,6,VR_target_stimuli/s45_1.3x_3.5_377_BC.png,250,1.3x,3.5,2.5,4329,247,meters,jsons/MX_seq31_0_VE250_flipped.json,318924,573858,27,Woman
6,938592,final-intermixed-textured,v2,jsons/MX_seq31_0_VE250_flipped.json,http://54.235.29.9/FacialAge/BNav_EC2/DepthDuration/MX_fS_VE_MTurk/MX_fS_HTML.html#187,187,1536,695,1536,864,0-31-2024,10-33-24,7,catch_stimuli/c0_BC.png,250,,,0.0,3303,255,meters,jsons/MX_seq31_0_VE250_flipped.json,318924,573858,27,Woman
7,938592,final-intermixed-textured,v2,jsons/MX_seq31_0_VE250_flipped.json,http://54.235.29.9/FacialAge/BNav_EC2/DepthDuration/MX_fS_VE_MTurk/MX_fS_HTML.html#187,187,1536,695,1536,864,0-31-2024,10-33-24,8,VR_target_stimuli/s23_1.3x_3.65_354.png,250,1.3x,3.65,2.2,4015,237,meters,jsons/MX_seq31_0_VE250_flipped.json,318924,573858,27,Woman
8,938592,final-intermixed-textured,v2,jsons/MX_seq31_0_VE250_flipped.json,http://54.235.29.9/FacialAge/BNav_EC2/DepthDuration/MX_fS_VE_MTurk/MX_fS_HTML.html#187,187,1536,695,1536,864,0-31-2024,10-33-24,9,VR_target_stimuli/s26_1x_4_433_BC.png,250,1x,4.0,3.0,4193,248,meters,jsons/MX_seq31_0_VE250_flipped.json,318924,573858,27,Woman
9,938592,final-intermixed-textured,v2,jsons/MX_seq31_0_VE250_flipped.json,http://54.235.29.9/FacialAge/BNav_EC2/DepthDuration/MX_fS_VE_MTurk/MX_fS_HTML.html#187,187,1536,695,1536,864,0-31-2024,10-33-24,10,VR_target_stimuli/s12_0.75x_3.1_364_BC.png,250,0.75x,3.1,4.0,3272,254,meters,jsons/MX_seq31_0_VE250_flipped.json,318924,573858,27,Woman
10,938592,final-intermixed-textured,v2,jsons/MX_seq31_0_VE250_flipped.json,http://54.235.29.9/FacialAge/BNav_EC2/DepthDuration/MX_fS_VE_MTurk/MX_fS_HTML.html#187,187,1536,695,1536,864,0-31-2024,10-33-24,11,VR_target_stimuli/s30_1x_2.3_334.png,250,1x,2.3,3.3,7430,253,meters,jsons/MX_seq31_0_VE250_flipped.json,318924,573858,27,Woman
11,938592,final-intermixed-textured,v2,jsons/MX_seq31_0_VE250_flipped.json,http://54.235.29.9/FacialAge/BNav_EC2/DepthDuration/MX_fS_VE_MTurk/MX_fS_HTML.html#187,187,1536,695,1536,864,0-31-2024,10-33-24,12,VR_target_stimuli/s16_1.3x_1_223_BC.png,250,1.3x,1.0,1.4,5750,259,meters,jsons/MX_seq31_0_VE250_flipped.json,318924,573858,27,Woman
12,938592,final-intermixed-textured,v2,jsons/MX_seq31_0_VE250_flipped.json,http://54.235.29.9/FacialAge/BNav_EC2/DepthDuration/MX_fS_VE_MTurk/MX_fS_HTML.html#187,187,1536,695,1536,864,0-31-2024,10-33-24,13,VR_target_stimuli/s17_0.75x_1.8_285.png,250,0.75x,1.8,1.7,6583,248,meters,jsons/MX_seq31_0_VE250_flipped.json,318924,573858,27,Woman
13,938592,final-intermixed-textured,v2,jsons/MX_seq31_0_VE250_flipped.json,http://54.235.29.9/FacialAge/BNav_EC2/DepthDuration/MX_fS_VE_MTurk/MX_fS_HTML.html#187,187,1536,695,1536,864,0-31-2024,10-33-24,14,VR_target_stimuli/s5_1.3x_4_393_BC.png,250,1.3x,4.0,2.6,5232,253,meters,jsons/MX_seq31_0_VE250_flipped.json,318924,573858,27,Woman
14,938592,final-intermixed-textured,v2,jsons/MX_seq31_0_VE250_flipped.json,http://54.235.29.9/FacialAge/BNav_EC2/DepthDuration/MX_fS_VE_MTurk/MX_fS_HTML.html#187,187,1536,695,1536,864,0-31-2024,10-33-24,15,VR_target_stimuli/s37_1x_3.3_563.png,250,1x,3.3,2.0,4445,259,meters,jsons/MX_seq31_0_VE250_flipped.json,318924,573858,27,Woman
15,938592,final-intermixed-textured,v2,jsons/MX_seq31_0_VE250_flipped.json,http://54.235.29.9/FacialAge/BNav_EC2/DepthDuration/MX_fS_VE_MTurk/MX_fS_HTML.html#187,187,1536,695,1536,864,0-31-2024,10-33-24,16,VR_target_stimuli/s46_0.75x_2.42_343_BC.png,250,0.75x,2.42,3.7,5690,250,meters,jsons/MX_seq31_0_VE250_flipped.json,318924,573858,27,Woman
16,938592,final-intermixed-textured,v2,jsons/MX_seq31_0_VE250_flipped.json,http://54.235.29.9/FacialAge/BNav_EC2/DepthDuration/MX_fS_VE_MTurk/MX_fS_HTML.html#187,187,1536,695,1536,864,0-31-2024,10-33-24,17,catch_stimuli/c1_BC.png,250,,,0.0,3193,251,meters,jsons/MX_seq31_0_VE250_flipped.json,318924,573858,27,Woman
17,938592,final-intermixed-textured,v2,jsons/MX_seq31_0_VE250_flipped.json,http://54.235.29.9/FacialAge/BNav_EC2/DepthDuration/MX_fS_VE_MTurk/MX_fS_HTML.html#187,187,1536,695,1536,864,0-31-2024,10-33-24,18,VR_target_stimuli/s22_0.75x_4.29_348.png,250,0.75x,4.29,4.0,3269,255,meters,jsons/MX_seq31_0_VE250_flipped.json,318924,573858,27,Woman
18,938592,final-intermixed-textured,v2,jsons/MX_seq31_0_VE250_flipped.json,http://54.235.29.9/FacialAge/BNav_EC2/DepthDuration/MX_fS_VE_MTurk/MX_fS_HTML.html#187,187,1536,695,1536,864,0-31-2024,10-33-24,19,VR_target_stimuli/s42_1.3x_3.2_305.png,250,1.3x,3.2,4.0,4298,250,meters,jsons/MX_seq31_0_VE250_flipped.json,318924,573858,27,Woman
19,938592,final-intermixed-textured,v2,jsons/MX_seq31_0_VE250_flipped.json,http://54.235.29.9/FacialAge/BNav_EC2/DepthDuration/MX_fS_VE_MTurk/MX_fS_HTML.html#187,187,1536,695,1536,864,0-31-2024,10-33-24,20,VR_target_stimuli/s25_1x_1.4_290_BC.png,250,1x,1.4,3.0,4851,251,meters,jsons/MX_seq31_0_VE250_flipped.json,318924,573858,27,Woman
20,938592,final-intermixed-textured,v2,jsons/MX_seq31_0_VE250_flipped.json,http://54.235.29.9/FacialAge/BNav_EC2/DepthDuration/MX_fS_VE_MTurk/MX_fS_HTML.html#187,187,1536,695,1536,864,0-31-2024,10-33-24,21,VR_target_stimuli/s50_1.3x_4.53_518.png,250,1.3x,4.53,4.4,6449,248,meters,jsons/MX_seq31_0_VE250_flipped.json,318924,573858,27,Woman
21,938592,final-intermixed-textured,v2,jsons/MX_seq31_0_VE250_flipped.json,http://54.235.29.9/FacialAge/BNav_EC2/DepthDuration/MX_fS_VE_MTurk/MX_fS_HTML.html#187,187,1536,695,1536,864,0-31-2024,10-33-24,22,VR_target_stimuli/s53_0.75x_1.6_403.png,250,0.75x,1.6,3.0,5584,255,meters,jsons/MX_seq31_0_VE250_flipped.json,318924,573858,27,Woman
22,938592,final-intermixed-textured,v2,jsons/MX_seq31_0_VE250_flipped.json,http://54.235.29.9/FacialAge/BNav_EC2/DepthDuration/MX_fS_VE_MTurk/MX_fS_HTML.html#187,187,1536,695,1536,864,0-31-2024,10-33-24,23,VR_target_stimuli/s38_1x_3.55_353.png,250,1x,3.55,3.5,5604,254,meters,jsons/MX_seq31_0_VE250_flipped.json,318924,573858,27,Woman
23,938592,final-intermixed-textured,v2,jsons/MX_seq31_0_VE250_flipped.json,http://54.235.29.9/FacialAge/BNav_EC2/DepthDuration/MX_fS_VE_MTurk/MX_fS_HTML.html#187,187,1536,695,1536,864,0-31-2024,10-33-24,24,VR_target_stimuli/s9_0.75x_1.2_260_BC.png,250,0.75x,1.2,2.0,3824,241,meters,jsons/MX_seq31_0_VE250_flipped.json,318924,573858,27,Woman
24,938592,final-intermixed-textured,v2,jsons/MX_seq31_0_VE250_flipped.json,http://54.235.29.9/FacialAge/BNav_EC2/DepthDuration/MX_fS_VE_MTurk/MX_fS_HTML.html#187,187,1536,695,1536,864,0-31-2024,10-33-24,25,VR_target_stimuli/s44_1.3x_4.4_325_BC.png,250,1.3x,4.4,3.6,5454,243,meters,jsons/MX_seq31_0_VE250_flipped.json,318924,573858,27,Woman
25,938592,final-intermixed-textured,v2,jsons/MX_seq31_0_VE250_flipped.json,http://54.235.29.9/FacialAge/BNav_EC2/DepthDuration/MX_fS_VE_MTurk/MX_fS_HTML.html#187,187,1536,695,1536,864,0-31-2024,10-33-24,26,catch_stimuli/c2_BC.png,250,,,0.0,3008,259,meters,jsons/MX_seq31_0_VE250_flipped.json,318924,573858,27,Woman
26,938592,final-intermixed-textured,v2,jsons/MX_seq31_0_VE250_flipped.json,http://54.235.29.9/FacialAge/BNav_EC2/DepthDuration/MX_fS_VE_MTurk/MX_fS_HTML.html#187,187,1536,695,1536,864,0-31-2024,10-33-24,27,VR_target_stimuli/s3_1x_5_385_BC.png,250,1x,5.0,3.5,4137,250,meters,jsons/MX_seq31_0_VE250_flipped.json,318924,573858,27,Woman
27,938592,final-intermixed-textured,v2,jsons/MX_seq31_0_VE250_flipped.json,http://54.235.29.9/FacialAge/BNav_EC2/DepthDuration/MX_fS_VE_MTurk/MX_fS_HTML.html#187,187,1536,695,1536,864,0-31-2024,10-33-24,28,VR_target_stimuli/s1_1x_1.7_262.png,250,1x,1.7,3.0,3286,243,meters,jsons/MX_seq31_0_VE250_flipped.json,318924,573858,27,Woman
28,938592,final-intermixed-textured,v2,jsons/MX_seq31_0_VE250_flipped.json,http://54.235.29.9/FacialAge/BNav_EC2/DepthDuration/MX_fS_VE_MTurk/MX_fS_HTML.html#187,187,1536,695,1536,864,0-31-2024,10-33-24,29,VR_target_stimuli/s11_0.75x_5_359.png,250,0.75x,5.0,4.3,7843,239,meters,jsons/MX_seq31_0_VE250_flipped.json,318924,573858,27,Woman
29,938592,final-intermixed-textured,v2,jsons/MX_seq31_0_VE250_flipped.json,http://54.235.29.9/FacialAge/BNav_EC2/DepthDuration/MX_fS_VE_MTurk/MX_fS_HTML.html#187,187,1536,695,1536,864,0-31-2024,10-33-24,30,VR_target_stimuli/s2_1.3x_2.7_397.png,250,1.3x,2.7,1.5,4072,249,meters,jsons/MX_seq31_0_VE250_flipped.json,318924,573858,27,Woman
30,938592,final-intermixed-textured,v2,jsons/MX_seq31_0_VE250_flipped.json,http://54.235.29.9/FacialAge/BNav_EC2/DepthDuration/MX_fS_VE_MTurk/MX_fS_HTML.html#187,187,1536,695,1536,864,0-31-2024,10-33-24,31,VR_target_stimuli/s6_1x_2.1_293_BC.png,250,1x,2.1,2.0,3179,254,meters,jsons/MX_seq31_0_VE250_flipped.json,318924,573858,27,Woman
31,938592,final-intermixed-textured,v2,jsons/MX_seq31_0_VE250_flipped.json,http://54.235.29.9/FacialAge/BNav_EC2/DepthDuration/MX_fS_VE_MTurk/MX_fS_HTML.html#187,187,1536,695,1536,864,0-31-2024,10-33-24,32,VR_target_stimuli/s0_1.3x_2.6_356_BC.png,250,1.3x,2.6,2.8,3911,262,meters,jsons/MX_seq31_0_VE250_flipped.json,318924,573858,27,Woman
32,938592,final-intermixed-textured,v2,jsons/MX_seq31_0_VE250_flipped.json,http://54.235.29.9/FacialAge/BNav_EC2/DepthDuration/MX_fS_VE_MTurk/MX_fS_HTML.html#187,187,1536,695,1536,864,0-31-2024,10-33-24,33,VR_target_stimuli/s34_0.75x_2.8_269_BC.png,250,0.75x,2.8,2.3,6250,246,meters,jsons/MX_seq31_0_VE250_flipped.json,318924,573858,27,Woman
33,938592,final-intermixed-textured,v2,jsons/MX_seq31_0_VE250_flipped.json,http://54.235.29.9/FacialAge/BNav_EC2/DepthDuration/MX_fS_VE_MTurk/MX_fS_HTML.html#187,187,1536,695,1536,864,0-31-2024,10-33-24,34,catch_stimuli/c3_BC.png,250,,,0.0,2964,245,meters,jsons/MX_seq31_0_VE250_flipped.json,318924,573858,27,Woman
34,938592,final-intermixed-textured,v2,jsons/MX_seq31_0_VE250_flipped.json,http://54.235.29.9/FacialAge/BNav_EC2/DepthDuration/MX_fS_VE_MTurk/MX_fS_HTML.html#187,187,1536,695,1536,864,0-31-2024,10-33-24,35,VR_target_stimuli/s13_1.3x_2.4_313_BC.png,250,1.3x,2.4,2.0,3254,254,meters,jsons/MX_seq31_0_VE250_flipped.json,318924,573858,27,Woman
35,938592,final-intermixed-textured,v2,jsons/MX_seq31_0_VE250_flipped.json,http://54.235.29.9/FacialAge/BNav_EC2/DepthDuration/MX_fS_VE_MTurk/MX_fS_HTML.html#187,187,1536,695,1536,864,0-31-2024,10-33-24,36,VR_target_stimuli/s14_1x_ 3.83_357.png,250,1x,3.83,4.6,4219,247,meters,jsons/MX_seq31_0_VE250_flipped.json,318924,573858,27,Woman
36,938592,final-intermixed-textured,v2,jsons/MX_seq31_0_VE250_flipped.json,http://54.235.29.9/FacialAge/BNav_EC2/DepthDuration/MX_fS_VE_MTurk/MX_fS_HTML.html#187,187,1536,695,1536,864,0-31-2024,10-33-24,37,VR_target_stimuli/s47_0.75x_3.45_366.png,250,0.75x,3.45,1.8,4320,252,meters,jsons/MX_seq31_0_VE250_flipped.json,318924,573858,27,Woman
37,938592,final-intermixed-textured,v2,jsons/MX_seq31_0_VE250_flipped.json,http://54.235.29.9/FacialAge/BNav_EC2/DepthDuration/MX_fS_VE_MTurk/MX_fS_HTML.html#187,187,1536,695,1536,864,0-31-2024,10-33-24,38,VR_target_stimuli/s29_0.75x_1.3_246_BC.png,250,0.75x,1.3,1.7,9061,260,meters,jsons/MX_seq31_0_VE250_flipped.json,318924,573858,27,Woman
38,938592,final-intermixed-textured,v2,jsons/MX_seq31_0_VE250_flipped.json,http://54.235.29.9/FacialAge/BNav_EC2/DepthDuration/MX_fS_VE_MTurk/MX_fS_HTML.html#187,187,1536,695,1536,864,0-31-2024,10-33-24,39,VR_target_stimuli/s28_1.3x_3.2_365.png,250,1.3x,3.2,2.0,5807,257,meters,jsons/MX_seq31_0_VE250_flipped.json,318924,573858,27,Woman
39,938592,final-intermixed-textured,v2,jsons/MX_seq31_0_VE250_flipped.json,http://54.235.29.9/FacialAge/BNav_EC2/DepthDuration/MX_fS_VE_MTurk/MX_fS_HTML.html#187,187,1536,695,1536,864,0-31-2024,10-33-24,40,VR_target_stimuli/s48_1x_2.55_256_BC.png,250,1x,2.55,1.7,4155,251,meters,jsons/MX_seq31_0_VE250_flipped.json,318924,573858,27,Woman
40,938592,final-intermixed-textured,v2,jsons/MX_seq31_0_VE250_flipped.json,http://54.235.29.9/FacialAge/BNav_EC2/DepthDuration/MX_fS_VE_MTurk/MX_fS_HTML.html#187,187,1536,695,1536,864,0-31-2024,10-33-24,41,VR_target_stimuli/s19_1.3x_1.21_270_BC.png,250,1.3x,1.21,1.5,3852,255,meters,jsons/MX_seq31_0_VE250_flipped.json,318924,573858,27,Woman
41,938592,final-intermixed-textured,v2,jsons/MX_seq31_0_VE250_flipped.json,http://54.235.29.9/FacialAge/BNav_EC2/DepthDuration/MX_fS_VE_MTurk/MX_fS_HTML.html#187,187,1536,695,1536,864,0-31-2024,10-33-24,42,VR_target_stimuli/s21_0.75x_4.22_374_BC.png,250,0.75x,4.22,4.0,4550,243,meters,jsons/MX_seq31_0_VE250_flipped.json,318924,573858,27,Woman
42,938592,final-intermixed-textured,v2,jsons/MX_seq31_0_VE250_flipped.json,http://54.235.29.9/FacialAge/BNav_EC2/DepthDuration/MX_fS_VE_MTurk/MX_fS_HTML.html#187,187,1536,695,1536,864,0-31-2024,10-33-24,43,VR_target_stimuli/s8_1x_3.1_332_BC.png,250,1x,3.1,3.7,6145,241,meters,jsons/MX_seq31_0_VE250_flipped.json,318924,573858,27,Woman
43,938592,final-intermixed-textured,v2,jsons/MX_seq31_0_VE250_flipped.json,http://54.235.29.9/FacialAge/BNav_EC2/DepthDuration/MX_fS_VE_MTurk/MX_fS_HTML.html#187,187,1536,695,1536,864,0-31-2024,10-33-24,44,VR_target_stimuli/s27_0.75x_1.76_243.png,250,0.75x,1.76,3.9,9158,244,meters,jsons/MX_seq31_0_VE250_flipped.json,318924,573858,27,Woman
44,938592,final-intermixed-textured,v2,jsons/MX_seq31_0_VE250_flipped.json,http://54.235.29.9/FacialAge/BNav_EC2/DepthDuration/MX_fS_VE_MTurk/MX_fS_HTML.html#187,187,1536,695,1536,864,0-31-2024,10-33-24,45,catch_stimuli/c4_BC.png,250,,,0.0,3042,242,meters,jsons/MX_seq31_0_VE250_flipped.json,318924,573858,27,Woman
45,938592,final-intermixed-textured,v2,jsons/MX_seq31_0_VE250_flipped.json,http://54.235.29.9/FacialAge/BNav_EC2/DepthDuration/MX_fS_VE_MTurk/MX_fS_HTML.html#187,187,1536,695,1536,864,0-31-2024,10-33-24,46,VR_target_stimuli/s15_1.3x_4.2_389.png,250,1.3x,4.2,4.8,4666,253,meters,jsons/MX_seq31_0_VE250_flipped.json,318924,573858,27,Woman
46,938592,final-intermixed-textured,v2,jsons/MX_seq31_0_VE250_flipped.json,http://54.235.29.9/FacialAge/BNav_EC2/DepthDuration/MX_fS_VE_MTurk/MX_fS_HTML.html#187,187,1536,695,1536,864,0-31-2024,10-33-24,47,VR_target_stimuli/s4_1x_1.4_313.png,250,1x,1.4,3.0,5568,257,meters,jsons/MX_seq31_0_VE250_flipped.json,318924,573858,27,Woman
47,938592,final-intermixed-textured,v2,jsons/MX_seq31_0_VE250_flipped.json,http://54.235.29.9/FacialAge/BNav_EC2/DepthDuration/MX_fS_VE_MTurk/MX_fS_HTML.html#187,187,1536,695,1536,864,0-31-2024,10-33-24,48,VR_target_stimuli/s35_1x_2_331_BC.png,250,1x,2.0,2.5,3976,248,meters,jsons/MX_seq31_0_VE250_flipped.json,318924,573858,27,Woman
48,938592,final-intermixed-textured,v2,jsons/MX_seq31_0_VE250_flipped.json,http://54.235.29.9/FacialAge/BNav_EC2/DepthDuration/MX_fS_VE_MTurk/MX_fS_HTML.html#187,187,1536,695,1536,864,0-31-2024,10-33-24,49,VR_target_stimuli/s49_0.75x_4.67_328.png,250,0.75x,4.67,3.8,5893,253,meters,jsons/MX_seq31_0_VE250_flipped.json,318924,573858,27,Woman
49,938592,final-intermixed-textured,v2,jsons/MX_seq31_0_VE250_flipped.json,http://54.235.29.9/FacialAge/BNav_EC2/DepthDuration/MX_fS_VE_MTurk/MX_fS_HTML.html#187,187,1536,695,1536,864,0-31-2024,10-33-24,50,VR_target_stimuli/s7_1.3x_1.5_256.png,250,1.3x,1.5,1.8,5256,262,meters,jsons/MX_seq31_0_VE250_flipped.json,318924,573858,27,Woman
50,938592,final-intermixed-textured,v2,jsons/MX_seq31_0_VE250_flipped.json,http://54.235.29.9/FacialAge/BNav_EC2/DepthDuration/MX_fS_VE_MTurk/MX_fS_HTML.html#187,187,1536,695,1536,864,0-31-2024,10-33-24,51,VR_target_stimuli/s20_0.75x_4.99_390_BC.png,250,0.75x,4.99,4.0,3494,248,meters,jsons/MX_seq31_0_VE250_flipped.json,318924,573858,27,Woman
51,938592,final-intermixed-textured,v2,jsons/MX_seq31_0_VE250_flipped.json,http://54.235.29.9/FacialAge/BNav_EC2/DepthDuration/MX_fS_VE_MTurk/MX_fS_HTML.html#187,187,1536,695,1536,864,0-31-2024,10-33-24,52,VR_target_stimuli/s31_1x_4.96_333.png,250,1x,4.96,2.3,4227,247,meters,jsons/MX_seq31_0_VE250_flipped.json,318924,573858,27,Woman
52,938592,final-intermixed-textured,v2,jsons/MX_seq31_0_VE250_flipped.json,http://54.235.29.9/FacialAge/BNav_EC2/DepthDuration/MX_fS_VE_MTurk/MX_fS_HTML.html#187,187,1536,695,1536,864,0-31-2024,10-33-24,53,catch_stimuli/c5_BC.png,250,,,0.0,2857,239,meters,jsons/MX_seq31_0_VE250_flipped.json,318924,573858,27,Woman
53,938592,final-intermixed-textured,v2,jsons/MX_seq31_0_VE250_flipped.json,http://54.235.29.9/FacialAge/BNav_EC2/DepthDuration/MX_fS_VE_MTurk/MX_fS_HTML.html#187,187,1536,695,1536,864,0-31-2024,10-33-24,54,VR_target_stimuli/s33_1.3x_3.1_378_BC.png,250,1.3x,3.1,2.0,5504,255,meters,jsons/MX_seq31_0_VE250_flipped.json,318924,573858,27,Woman
54,938592,final-intermixed-textured,v2,jsons/MX_seq31_0_VE250_flipped.json,http://54.235.29.9/FacialAge/BNav_EC2/DepthDuration/MX_fS_VE_MTurk/MX_fS_HTML.html#187,187,1536,695,1536,864,0-31-2024,10-33-24,55,VR_target_stimuli/s52_1x_3.2_275.png,250,1x,3.2,3.4,6029,240,meters,jsons/MX_seq31_0_VE250_flipped.json,318924,573858,27,Woman
55,938592,final-intermixed-textured,v2,jsons/MX_seq31_0_VE250_flipped.json,http://54.235.29.9/FacialAge/BNav_EC2/DepthDuration/MX_fS_VE_MTurk/MX_fS_HTML.html#187,187,1536,695,1536,864,0-31-2024,10-33-24,56,VR_target_stimuli/s32_0.75x_1.5_213.png,250,0.75x,1.5,3.0,3885,247,meters,jsons/MX_seq31_0_VE250_flipped.json,318924,573858,27,Woman
56,938592,final-intermixed-textured,v2,jsons/MX_seq31_0_VE250_flipped.json,http://54.235.29.9/FacialAge/BNav_EC2/DepthDuration/MX_fS_VE_MTurk/MX_fS_HTML.html#187,187,1536,695,1536,864,0-31-2024,10-33-24,57,VR_target_stimuli/s18_1.3x_2.25_368.png,250,1.3x,2.25,2.2,6080,254,meters,jsons/MX_seq31_0_VE250_flipped.json,318924,573858,27,Woman
57,938592,final-intermixed-textured,v2,jsons/MX_seq31_0_VE250_flipped.json,http://54.235.29.9/FacialAge/BNav_EC2/DepthDuration/MX_fS_VE_MTurk/MX_fS_HTML.html#187,187,1536,695,1536,864,0-31-2024,10-33-24,58,VR_target_stimuli/s39_1.3x_1_208_BC.png,250,1.3x,1.0,2.0,3676,253,meters,jsons/MX_seq31_0_VE250_flipped.json,318924,573858,27,Woman
58,938592,final-intermixed-textured,v2,jsons/MX_seq31_0_VE250_flipped.json,http://54.235.29.9/FacialAge/BNav_EC2/DepthDuration/MX_fS_VE_MTurk/MX_fS_HTML.html#187,187,1536,695,1536,864,0-31-2024,10-33-24,59,VR_target_stimuli/s51_1x_3.64_461_BC.png,250,1x,3.64,2.1,6682,251,meters,jsons/MX_seq31_0_VE250_flipped.json,318924,573858,27,Woman
59,938592,final-intermixed-textured,v2,jsons/MX_seq31_0_VE250_flipped.json,http://54.235.29.9/FacialAge/BNav_EC2/DepthDuration/MX_fS_VE_MTurk/MX_fS_HTML.html#187,187,1536,695,1536,864,0-31-2024,10-33-24,60,VR_target_stimuli/s43_0.75x_2.2_348_BC.png,250,0.75x,2.2,2.5,3794,250,meters,jsons/MX_seq31_0_VE250_flipped.json,318924,573858,27,Woman
