,subjID,experimentName,versionName,sequenceName,url,selected_row,windowWidth,windowHeight,screenWidth,screenHeight,startDate,startTime,trial,stimulus,duration,scale,actual_depth,depth_estimate,trial_RT,log_sceneDuration,unitSelection,seq_filepath,experimentTime,totalTime,age,gender
0,968124,final-intermixed-textured,v2,jsons/MX_seq3_1_VE250_flipped.json,http://54.235.29.9/FacialAge/BNav_EC2/DepthDuration/MX_fS_VE_MTurk/MX_fS_HTML.html#219,219,1920,1080,1920,1080,0-31-2024,10-32-58,1,VR_target_stimuli/s2_1.3x_2.7_397.png,250,1.3x,2.7,6.0,3629,237,meters,jsons/MX_seq3_1_VE250_flipped.json,220357,594307,27,Man
1,968124,final-intermixed-textured,v2,jsons/MX_seq3_1_VE250_flipped.json,http://54.235.29.9/FacialAge/BNav_EC2/DepthDuration/MX_fS_VE_MTurk/MX_fS_HTML.html#219,219,1920,1080,1920,1080,0-31-2024,10-32-58,2,VR_target_stimuli/s6_0.75x_2.1_290.png,250,0.75x,2.1,8.0,3738,254,meters,jsons/MX_seq3_1_VE250_flipped.json,220357,594307,27,Man
2,968124,final-intermixed-textured,v2,jsons/MX_seq3_1_VE250_flipped.json,http://54.235.29.9/FacialAge/BNav_EC2/DepthDuration/MX_fS_VE_MTurk/MX_fS_HTML.html#219,219,1920,1080,1920,1080,0-31-2024,10-32-58,3,VR_target_stimuli/s0_1x_2.6_351_BC.png,250,1x,2.6,3.5,3267,253,meters,jsons/MX_seq3_1_VE250_flipped.json,220357,594307,27,Man
3,968124,final-intermixed-textured,v2,jsons/MX_seq3_1_VE250_flipped.json,http://54.235.29.9/FacialAge/BNav_EC2/DepthDuration/MX_fS_VE_MTurk/MX_fS_HTML.html#219,219,1920,1080,1920,1080,0-31-2024,10-32-58,4,VR_target_stimuli/s34_0.75x_2.8_269_BC.png,250,0.75x,2.8,4.0,2493,250,meters,jsons/MX_seq3_1_VE250_flipped.json,220357,594307,27,Man
4,968124,final-intermixed-textured,v2,jsons/MX_seq3_1_VE250_flipped.json,http://54.235.29.9/FacialAge/BNav_EC2/DepthDuration/MX_fS_VE_MTurk/MX_fS_HTML.html#219,219,1920,1080,1920,1080,0-31-2024,10-32-58,5,VR_target_stimuli/s13_1.3x_2.4_313_BC.png,250,1.3x,2.4,2.0,2646,238,meters,jsons/MX_seq3_1_VE250_flipped.json,220357,594307,27,Man
5,968124,final-intermixed-textured,v2,jsons/MX_seq3_1_VE250_flipped.json,http://54.235.29.9/FacialAge/BNav_EC2/DepthDuration/MX_fS_VE_MTurk/MX_fS_HTML.html#219,219,1920,1080,1920,1080,0-31-2024,10-32-58,6,VR_target_stimuli/s14_1x_ 3.83_357.png,250,1x,3.83,6.0,3921,250,meters,jsons/MX_seq3_1_VE250_flipped.json,220357,594307,27,Man
6,968124,final-intermixed-textured,v2,jsons/MX_seq3_1_VE250_flipped.json,http://54.235.29.9/FacialAge/BNav_EC2/DepthDuration/MX_fS_VE_MTurk/MX_fS_HTML.html#219,219,1920,1080,1920,1080,0-31-2024,10-32-58,7,catch_stimuli/c0_BC.png,250,,,0.0,2339,249,meters,jsons/MX_seq3_1_VE250_flipped.json,220357,594307,27,Man
7,968124,final-intermixed-textured,v2,jsons/MX_seq3_1_VE250_flipped.json,http://54.235.29.9/FacialAge/BNav_EC2/DepthDuration/MX_fS_VE_MTurk/MX_fS_HTML.html#219,219,1920,1080,1920,1080,0-31-2024,10-32-58,8,VR_target_stimuli/s47_1x_3.45_370.png,250,1x,3.45,10.0,4177,250,meters,jsons/MX_seq3_1_VE250_flipped.json,220357,594307,27,Man
8,968124,final-intermixed-textured,v2,jsons/MX_seq3_1_VE250_flipped.json,http://54.235.29.9/FacialAge/BNav_EC2/DepthDuration/MX_fS_VE_MTurk/MX_fS_HTML.html#219,219,1920,1080,1920,1080,0-31-2024,10-32-58,9,VR_target_stimuli/s29_0.75x_1.3_246_BC.png,250,0.75x,1.3,2.0,2574,251,meters,jsons/MX_seq3_1_VE250_flipped.json,220357,594307,27,Man
9,968124,final-intermixed-textured,v2,jsons/MX_seq3_1_VE250_flipped.json,http://54.235.29.9/FacialAge/BNav_EC2/DepthDuration/MX_fS_VE_MTurk/MX_fS_HTML.html#219,219,1920,1080,1920,1080,0-31-2024,10-32-58,10,VR_target_stimuli/s28_1.3x_3.2_365.png,250,1.3x,3.2,3.0,5924,253,meters,jsons/MX_seq3_1_VE250_flipped.json,220357,594307,27,Man
10,968124,final-intermixed-textured,v2,jsons/MX_seq3_1_VE250_flipped.json,http://54.235.29.9/FacialAge/BNav_EC2/DepthDuration/MX_fS_VE_MTurk/MX_fS_HTML.html#219,219,1920,1080,1920,1080,0-31-2024,10-32-58,11,VR_target_stimuli/s48_0.75x_2.55_243.png,250,0.75x,2.55,3.0,5553,254,meters,jsons/MX_seq3_1_VE250_flipped.json,220357,594307,27,Man
11,968124,final-intermixed-textured,v2,jsons/MX_seq3_1_VE250_flipped.json,http://54.235.29.9/FacialAge/BNav_EC2/DepthDuration/MX_fS_VE_MTurk/MX_fS_HTML.html#219,219,1920,1080,1920,1080,0-31-2024,10-32-58,12,VR_target_stimuli/s19_1x_1.21_263_BC.png,250,1x,1.21,1.0,2082,253,meters,jsons/MX_seq3_1_VE250_flipped.json,220357,594307,27,Man
12,968124,final-intermixed-textured,v2,jsons/MX_seq3_1_VE250_flipped.json,http://54.235.29.9/FacialAge/BNav_EC2/DepthDuration/MX_fS_VE_MTurk/MX_fS_HTML.html#219,219,1920,1080,1920,1080,0-31-2024,10-32-58,13,VR_target_stimuli/s21_1.3x_4.22_384_BC.png,250,1.3x,4.22,10.0,3348,252,meters,jsons/MX_seq3_1_VE250_flipped.json,220357,594307,27,Man
13,968124,final-intermixed-textured,v2,jsons/MX_seq3_1_VE250_flipped.json,http://54.235.29.9/FacialAge/BNav_EC2/DepthDuration/MX_fS_VE_MTurk/MX_fS_HTML.html#219,219,1920,1080,1920,1080,0-31-2024,10-32-58,14,VR_target_stimuli/s8_1x_3.1_332_BC.png,250,1x,3.1,4.0,2459,265,meters,jsons/MX_seq3_1_VE250_flipped.json,220357,594307,27,Man
14,968124,final-intermixed-textured,v2,jsons/MX_seq3_1_VE250_flipped.json,http://54.235.29.9/FacialAge/BNav_EC2/DepthDuration/MX_fS_VE_MTurk/MX_fS_HTML.html#219,219,1920,1080,1920,1080,0-31-2024,10-32-58,15,VR_target_stimuli/s27_0.75x_1.76_243_BC.png,250,0.75x,1.76,3.0,2524,254,meters,jsons/MX_seq3_1_VE250_flipped.json,220357,594307,27,Man
15,968124,final-intermixed-textured,v2,jsons/MX_seq3_1_VE250_flipped.json,http://54.235.29.9/FacialAge/BNav_EC2/DepthDuration/MX_fS_VE_MTurk/MX_fS_HTML.html#219,219,1920,1080,1920,1080,0-31-2024,10-32-58,16,VR_target_stimuli/s15_1.3x_4.2_389_BC.png,250,1.3x,4.2,5.0,2249,249,meters,jsons/MX_seq3_1_VE250_flipped.json,220357,594307,27,Man
16,968124,final-intermixed-textured,v2,jsons/MX_seq3_1_VE250_flipped.json,http://54.235.29.9/FacialAge/BNav_EC2/DepthDuration/MX_fS_VE_MTurk/MX_fS_HTML.html#219,219,1920,1080,1920,1080,0-31-2024,10-32-58,17,catch_stimuli/c1_BC.png,250,,,0.0,2392,251,meters,jsons/MX_seq3_1_VE250_flipped.json,220357,594307,27,Man
17,968124,final-intermixed-textured,v2,jsons/MX_seq3_1_VE250_flipped.json,http://54.235.29.9/FacialAge/BNav_EC2/DepthDuration/MX_fS_VE_MTurk/MX_fS_HTML.html#219,219,1920,1080,1920,1080,0-31-2024,10-32-58,18,VR_target_stimuli/s4_1.3x_1.4_328.png,250,1.3x,1.4,4.0,2762,252,meters,jsons/MX_seq3_1_VE250_flipped.json,220357,594307,27,Man
18,968124,final-intermixed-textured,v2,jsons/MX_seq3_1_VE250_flipped.json,http://54.235.29.9/FacialAge/BNav_EC2/DepthDuration/MX_fS_VE_MTurk/MX_fS_HTML.html#219,219,1920,1080,1920,1080,0-31-2024,10-32-58,19,VR_target_stimuli/s35_1x_2_331.png,250,1x,2.0,11.0,3379,250,meters,jsons/MX_seq3_1_VE250_flipped.json,220357,594307,27,Man
19,968124,final-intermixed-textured,v2,jsons/MX_seq3_1_VE250_flipped.json,http://54.235.29.9/FacialAge/BNav_EC2/DepthDuration/MX_fS_VE_MTurk/MX_fS_HTML.html#219,219,1920,1080,1920,1080,0-31-2024,10-32-58,20,VR_target_stimuli/s49_0.75x_4.67_328.png,250,0.75x,4.67,8.0,3403,251,meters,jsons/MX_seq3_1_VE250_flipped.json,220357,594307,27,Man
20,968124,final-intermixed-textured,v2,jsons/MX_seq3_1_VE250_flipped.json,http://54.235.29.9/FacialAge/BNav_EC2/DepthDuration/MX_fS_VE_MTurk/MX_fS_HTML.html#219,219,1920,1080,1920,1080,0-31-2024,10-32-58,21,VR_target_stimuli/s7_1x_1.5_255.png,250,1x,1.5,4.0,2335,254,meters,jsons/MX_seq3_1_VE250_flipped.json,220357,594307,27,Man
21,968124,final-intermixed-textured,v2,jsons/MX_seq3_1_VE250_flipped.json,http://54.235.29.9/FacialAge/BNav_EC2/DepthDuration/MX_fS_VE_MTurk/MX_fS_HTML.html#219,219,1920,1080,1920,1080,0-31-2024,10-32-58,22,VR_target_stimuli/s20_1.3x_4.99_412_BC.png,250,1.3x,4.99,7.0,3980,237,meters,jsons/MX_seq3_1_VE250_flipped.json,220357,594307,27,Man
22,968124,final-intermixed-textured,v2,jsons/MX_seq3_1_VE250_flipped.json,http://54.235.29.9/FacialAge/BNav_EC2/DepthDuration/MX_fS_VE_MTurk/MX_fS_HTML.html#219,219,1920,1080,1920,1080,0-31-2024,10-32-58,23,VR_target_stimuli/s31_0.75x_4.96_329.png,250,0.75x,4.96,3.0,3384,251,meters,jsons/MX_seq3_1_VE250_flipped.json,220357,594307,27,Man
23,968124,final-intermixed-textured,v2,jsons/MX_seq3_1_VE250_flipped.json,http://54.235.29.9/FacialAge/BNav_EC2/DepthDuration/MX_fS_VE_MTurk/MX_fS_HTML.html#219,219,1920,1080,1920,1080,0-31-2024,10-32-58,24,VR_target_stimuli/s33_1.3x_3.1_378.png,250,1.3x,3.1,4.0,4938,250,meters,jsons/MX_seq3_1_VE250_flipped.json,220357,594307,27,Man
24,968124,final-intermixed-textured,v2,jsons/MX_seq3_1_VE250_flipped.json,http://54.235.29.9/FacialAge/BNav_EC2/DepthDuration/MX_fS_VE_MTurk/MX_fS_HTML.html#219,219,1920,1080,1920,1080,0-31-2024,10-32-58,25,VR_target_stimuli/s52_1x_3.2_275_BC.png,250,1x,3.2,7.0,3052,243,meters,jsons/MX_seq3_1_VE250_flipped.json,220357,594307,27,Man
25,968124,final-intermixed-textured,v2,jsons/MX_seq3_1_VE250_flipped.json,http://54.235.29.9/FacialAge/BNav_EC2/DepthDuration/MX_fS_VE_MTurk/MX_fS_HTML.html#219,219,1920,1080,1920,1080,0-31-2024,10-32-58,26,catch_stimuli/c2_BC.png,250,,,0.0,1731,251,meters,jsons/MX_seq3_1_VE250_flipped.json,220357,594307,27,Man
26,968124,final-intermixed-textured,v2,jsons/MX_seq3_1_VE250_flipped.json,http://54.235.29.9/FacialAge/BNav_EC2/DepthDuration/MX_fS_VE_MTurk/MX_fS_HTML.html#219,219,1920,1080,1920,1080,0-31-2024,10-32-58,27,VR_target_stimuli/s32_0.75x_1.5_213_BC.png,250,0.75x,1.5,1.5,2523,252,meters,jsons/MX_seq3_1_VE250_flipped.json,220357,594307,27,Man
27,968124,final-intermixed-textured,v2,jsons/MX_seq3_1_VE250_flipped.json,http://54.235.29.9/FacialAge/BNav_EC2/DepthDuration/MX_fS_VE_MTurk/MX_fS_HTML.html#219,219,1920,1080,1920,1080,0-31-2024,10-32-58,28,VR_target_stimuli/s18_0.75x_2.25_341.png,250,0.75x,2.25,3.0,3605,252,meters,jsons/MX_seq3_1_VE250_flipped.json,220357,594307,27,Man
28,968124,final-intermixed-textured,v2,jsons/MX_seq3_1_VE250_flipped.json,http://54.235.29.9/FacialAge/BNav_EC2/DepthDuration/MX_fS_VE_MTurk/MX_fS_HTML.html#219,219,1920,1080,1920,1080,0-31-2024,10-32-58,29,VR_target_stimuli/s39_1.3x_1_208_BC.png,250,1.3x,1.0,1.2,4133,248,meters,jsons/MX_seq3_1_VE250_flipped.json,220357,594307,27,Man
29,968124,final-intermixed-textured,v2,jsons/MX_seq3_1_VE250_flipped.json,http://54.235.29.9/FacialAge/BNav_EC2/DepthDuration/MX_fS_VE_MTurk/MX_fS_HTML.html#219,219,1920,1080,1920,1080,0-31-2024,10-32-58,30,VR_target_stimuli/s51_1x_3.64_461_BC.png,250,1x,3.64,2.0,3687,250,meters,jsons/MX_seq3_1_VE250_flipped.json,220357,594307,27,Man
30,968124,final-intermixed-textured,v2,jsons/MX_seq3_1_VE250_flipped.json,http://54.235.29.9/FacialAge/BNav_EC2/DepthDuration/MX_fS_VE_MTurk/MX_fS_HTML.html#219,219,1920,1080,1920,1080,0-31-2024,10-32-58,31,VR_target_stimuli/s43_0.75x_2.2_348_BC.png,250,0.75x,2.2,4.0,4055,252,meters,jsons/MX_seq3_1_VE250_flipped.json,220357,594307,27,Man
31,968124,final-intermixed-textured,v2,jsons/MX_seq3_1_VE250_flipped.json,http://54.235.29.9/FacialAge/BNav_EC2/DepthDuration/MX_fS_VE_MTurk/MX_fS_HTML.html#219,219,1920,1080,1920,1080,0-31-2024,10-32-58,32,VR_target_stimuli/s24_1x_3.3_349.png,250,1x,3.3,7.0,2551,250,meters,jsons/MX_seq3_1_VE250_flipped.json,220357,594307,27,Man
32,968124,final-intermixed-textured,v2,jsons/MX_seq3_1_VE250_flipped.json,http://54.235.29.9/FacialAge/BNav_EC2/DepthDuration/MX_fS_VE_MTurk/MX_fS_HTML.html#219,219,1920,1080,1920,1080,0-31-2024,10-32-58,33,VR_target_stimuli/s10_1.3x_2.7_325.png,250,1.3x,2.7,3.0,2896,252,meters,jsons/MX_seq3_1_VE250_flipped.json,220357,594307,27,Man
33,968124,final-intermixed-textured,v2,jsons/MX_seq3_1_VE250_flipped.json,http://54.235.29.9/FacialAge/BNav_EC2/DepthDuration/MX_fS_VE_MTurk/MX_fS_HTML.html#219,219,1920,1080,1920,1080,0-31-2024,10-32-58,34,catch_stimuli/c3_BC.png,250,,,0.0,1873,247,meters,jsons/MX_seq3_1_VE250_flipped.json,220357,594307,27,Man
34,968124,final-intermixed-textured,v2,jsons/MX_seq3_1_VE250_flipped.json,http://54.235.29.9/FacialAge/BNav_EC2/DepthDuration/MX_fS_VE_MTurk/MX_fS_HTML.html#219,219,1920,1080,1920,1080,0-31-2024,10-32-58,35,VR_target_stimuli/s36_1x_4.1_423_BC.png,250,1x,4.1,6.0,2509,251,meters,jsons/MX_seq3_1_VE250_flipped.json,220357,594307,27,Man
35,968124,final-intermixed-textured,v2,jsons/MX_seq3_1_VE250_flipped.json,http://54.235.29.9/FacialAge/BNav_EC2/DepthDuration/MX_fS_VE_MTurk/MX_fS_HTML.html#219,219,1920,1080,1920,1080,0-31-2024,10-32-58,36,VR_target_stimuli/s40_0.75x_1.2_308.png,250,0.75x,1.2,2.0,2705,251,meters,jsons/MX_seq3_1_VE250_flipped.json,220357,594307,27,Man
36,968124,final-intermixed-textured,v2,jsons/MX_seq3_1_VE250_flipped.json,http://54.235.29.9/FacialAge/BNav_EC2/DepthDuration/MX_fS_VE_MTurk/MX_fS_HTML.html#219,219,1920,1080,1920,1080,0-31-2024,10-32-58,37,VR_target_stimuli/s41_1.3x_2.1_294.png,250,1.3x,2.1,6.0,3492,251,meters,jsons/MX_seq3_1_VE250_flipped.json,220357,594307,27,Man
37,968124,final-intermixed-textured,v2,jsons/MX_seq3_1_VE250_flipped.json,http://54.235.29.9/FacialAge/BNav_EC2/DepthDuration/MX_fS_VE_MTurk/MX_fS_HTML.html#219,219,1920,1080,1920,1080,0-31-2024,10-32-58,38,VR_target_stimuli/s45_1.3x_3.5_377_BC.png,250,1.3x,3.5,8.0,4309,236,meters,jsons/MX_seq3_1_VE250_flipped.json,220357,594307,27,Man
38,968124,final-intermixed-textured,v2,jsons/MX_seq3_1_VE250_flipped.json,http://54.235.29.9/FacialAge/BNav_EC2/DepthDuration/MX_fS_VE_MTurk/MX_fS_HTML.html#219,219,1920,1080,1920,1080,0-31-2024,10-32-58,39,VR_target_stimuli/s23_1x_3.65_353.png,250,1x,3.65,13.0,4040,247,meters,jsons/MX_seq3_1_VE250_flipped.json,220357,594307,27,Man
39,968124,final-intermixed-textured,v2,jsons/MX_seq3_1_VE250_flipped.json,http://54.235.29.9/FacialAge/BNav_EC2/DepthDuration/MX_fS_VE_MTurk/MX_fS_HTML.html#219,219,1920,1080,1920,1080,0-31-2024,10-32-58,40,VR_target_stimuli/s26_0.75x_4_430_BC.png,250,0.75x,4.0,18.0,5046,253,meters,jsons/MX_seq3_1_VE250_flipped.json,220357,594307,27,Man
40,968124,final-intermixed-textured,v2,jsons/MX_seq3_1_VE250_flipped.json,http://54.235.29.9/FacialAge/BNav_EC2/DepthDuration/MX_fS_VE_MTurk/MX_fS_HTML.html#219,219,1920,1080,1920,1080,0-31-2024,10-32-58,41,VR_target_stimuli/s12_1x_3.1_372.png,250,1x,3.1,8.0,2343,251,meters,jsons/MX_seq3_1_VE250_flipped.json,220357,594307,27,Man
41,968124,final-intermixed-textured,v2,jsons/MX_seq3_1_VE250_flipped.json,http://54.235.29.9/FacialAge/BNav_EC2/DepthDuration/MX_fS_VE_MTurk/MX_fS_HTML.html#219,219,1920,1080,1920,1080,0-31-2024,10-32-58,42,VR_target_stimuli/s30_1.3x_2.3_337_BC.png,250,1.3x,2.3,10.0,4929,253,meters,jsons/MX_seq3_1_VE250_flipped.json,220357,594307,27,Man
42,968124,final-intermixed-textured,v2,jsons/MX_seq3_1_VE250_flipped.json,http://54.235.29.9/FacialAge/BNav_EC2/DepthDuration/MX_fS_VE_MTurk/MX_fS_HTML.html#219,219,1920,1080,1920,1080,0-31-2024,10-32-58,43,VR_target_stimuli/s16_0.75x_1_217_BC.png,250,0.75x,1.0,1.8,5018,248,meters,jsons/MX_seq3_1_VE250_flipped.json,220357,594307,27,Man
43,968124,final-intermixed-textured,v2,jsons/MX_seq3_1_VE250_flipped.json,http://54.235.29.9/FacialAge/BNav_EC2/DepthDuration/MX_fS_VE_MTurk/MX_fS_HTML.html#219,219,1920,1080,1920,1080,0-31-2024,10-32-58,44,VR_target_stimuli/s17_1.3x_1.8_300.png,250,1.3x,1.8,3.0,2883,253,meters,jsons/MX_seq3_1_VE250_flipped.json,220357,594307,27,Man
44,968124,final-intermixed-textured,v2,jsons/MX_seq3_1_VE250_flipped.json,http://54.235.29.9/FacialAge/BNav_EC2/DepthDuration/MX_fS_VE_MTurk/MX_fS_HTML.html#219,219,1920,1080,1920,1080,0-31-2024,10-32-58,45,catch_stimuli/c4_BC.png,250,,,0.0,2254,252,meters,jsons/MX_seq3_1_VE250_flipped.json,220357,594307,27,Man
45,968124,final-intermixed-textured,v2,jsons/MX_seq3_1_VE250_flipped.json,http://54.235.29.9/FacialAge/BNav_EC2/DepthDuration/MX_fS_VE_MTurk/MX_fS_HTML.html#219,219,1920,1080,1920,1080,0-31-2024,10-32-58,46,VR_target_stimuli/s5_1x_4_378_BC.png,250,1x,4.0,5.0,2455,238,meters,jsons/MX_seq3_1_VE250_flipped.json,220357,594307,27,Man
46,968124,final-intermixed-textured,v2,jsons/MX_seq3_1_VE250_flipped.json,http://54.235.29.9/FacialAge/BNav_EC2/DepthDuration/MX_fS_VE_MTurk/MX_fS_HTML.html#219,219,1920,1080,1920,1080,0-31-2024,10-32-58,47,VR_target_stimuli/s37_0.75x_3.3_567.png,250,0.75x,3.3,6.0,3547,250,meters,jsons/MX_seq3_1_VE250_flipped.json,220357,594307,27,Man
47,968124,final-intermixed-textured,v2,jsons/MX_seq3_1_VE250_flipped.json,http://54.235.29.9/FacialAge/BNav_EC2/DepthDuration/MX_fS_VE_MTurk/MX_fS_HTML.html#219,219,1920,1080,1920,1080,0-31-2024,10-32-58,48,VR_target_stimuli/s46_0.75x_2.42_343_BC.png,250,0.75x,2.42,8.0,2199,252,meters,jsons/MX_seq3_1_VE250_flipped.json,220357,594307,27,Man
48,968124,final-intermixed-textured,v2,jsons/MX_seq3_1_VE250_flipped.json,http://54.235.29.9/FacialAge/BNav_EC2/DepthDuration/MX_fS_VE_MTurk/MX_fS_HTML.html#219,219,1920,1080,1920,1080,0-31-2024,10-32-58,49,VR_target_stimuli/s22_1.3x_4.29_364.png,250,1.3x,4.29,10.0,2215,251,meters,jsons/MX_seq3_1_VE250_flipped.json,220357,594307,27,Man
49,968124,final-intermixed-textured,v2,jsons/MX_seq3_1_VE250_flipped.json,http://54.235.29.9/FacialAge/BNav_EC2/DepthDuration/MX_fS_VE_MTurk/MX_fS_HTML.html#219,219,1920,1080,1920,1080,0-31-2024,10-32-58,50,VR_target_stimuli/s42_1x_3.2_303.png,250,1x,3.2,11.0,1779,250,meters,jsons/MX_seq3_1_VE250_flipped.json,220357,594307,27,Man
50,968124,final-intermixed-textured,v2,jsons/MX_seq3_1_VE250_flipped.json,http://54.235.29.9/FacialAge/BNav_EC2/DepthDuration/MX_fS_VE_MTurk/MX_fS_HTML.html#219,219,1920,1080,1920,1080,0-31-2024,10-32-58,51,VR_target_stimuli/s25_1.3x_1.4_299_BC.png,250,1.3x,1.4,3.0,2199,252,meters,jsons/MX_seq3_1_VE250_flipped.json,220357,594307,27,Man
51,968124,final-intermixed-textured,v2,jsons/MX_seq3_1_VE250_flipped.json,http://54.235.29.9/FacialAge/BNav_EC2/DepthDuration/MX_fS_VE_MTurk/MX_fS_HTML.html#219,219,1920,1080,1920,1080,0-31-2024,10-32-58,52,VR_target_stimuli/s50_0.75x_4.53_517.png,250,0.75x,4.53,0.0,2087,252,meters,jsons/MX_seq3_1_VE250_flipped.json,220357,594307,27,Man
52,968124,final-intermixed-textured,v2,jsons/MX_seq3_1_VE250_flipped.json,http://54.235.29.9/FacialAge/BNav_EC2/DepthDuration/MX_fS_VE_MTurk/MX_fS_HTML.html#219,219,1920,1080,1920,1080,0-31-2024,10-32-58,53,catch_stimuli/c5_BC.png,250,,,0.0,2349,249,meters,jsons/MX_seq3_1_VE250_flipped.json,220357,594307,27,Man
53,968124,final-intermixed-textured,v2,jsons/MX_seq3_1_VE250_flipped.json,http://54.235.29.9/FacialAge/BNav_EC2/DepthDuration/MX_fS_VE_MTurk/MX_fS_HTML.html#219,219,1920,1080,1920,1080,0-31-2024,10-32-58,54,VR_target_stimuli/s53_1x_1.6_387_BC.png,250,1x,1.6,4.0,3726,249,meters,jsons/MX_seq3_1_VE250_flipped.json,220357,594307,27,Man
54,968124,final-intermixed-textured,v2,jsons/MX_seq3_1_VE250_flipped.json,http://54.235.29.9/FacialAge/BNav_EC2/DepthDuration/MX_fS_VE_MTurk/MX_fS_HTML.html#219,219,1920,1080,1920,1080,0-31-2024,10-32-58,55,VR_target_stimuli/s38_0.75x_3.55_346_BC.png,250,0.75x,3.55,12.0,3261,252,meters,jsons/MX_seq3_1_VE250_flipped.json,220357,594307,27,Man
55,968124,final-intermixed-textured,v2,jsons/MX_seq3_1_VE250_flipped.json,http://54.235.29.9/FacialAge/BNav_EC2/DepthDuration/MX_fS_VE_MTurk/MX_fS_HTML.html#219,219,1920,1080,1920,1080,0-31-2024,10-32-58,56,VR_target_stimuli/s9_1.3x_1.2_276.png,250,1.3x,1.2,3.0,4563,254,meters,jsons/MX_seq3_1_VE250_flipped.json,220357,594307,27,Man
56,968124,final-intermixed-textured,v2,jsons/MX_seq3_1_VE250_flipped.json,http://54.235.29.9/FacialAge/BNav_EC2/DepthDuration/MX_fS_VE_MTurk/MX_fS_HTML.html#219,219,1920,1080,1920,1080,0-31-2024,10-32-58,57,VR_target_stimuli/s44_1x_4.4_317.png,250,1x,4.4,12.0,2684,264,meters,jsons/MX_seq3_1_VE250_flipped.json,220357,594307,27,Man
57,968124,final-intermixed-textured,v2,jsons/MX_seq3_1_VE250_flipped.json,http://54.235.29.9/FacialAge/BNav_EC2/DepthDuration/MX_fS_VE_MTurk/MX_fS_HTML.html#219,219,1920,1080,1920,1080,0-31-2024,10-32-58,58,VR_target_stimuli/s3_1x_5_385_BC.png,250,1x,5.0,15.0,2238,250,meters,jsons/MX_seq3_1_VE250_flipped.json,220357,594307,27,Man
58,968124,final-intermixed-textured,v2,jsons/MX_seq3_1_VE250_flipped.json,http://54.235.29.9/FacialAge/BNav_EC2/DepthDuration/MX_fS_VE_MTurk/MX_fS_HTML.html#219,219,1920,1080,1920,1080,0-31-2024,10-32-58,59,VR_target_stimuli/s1_0.75x_1.7_265.png,250,0.75x,1.7,7.0,2659,250,meters,jsons/MX_seq3_1_VE250_flipped.json,220357,594307,27,Man
59,968124,final-intermixed-textured,v2,jsons/MX_seq3_1_VE250_flipped.json,http://54.235.29.9/FacialAge/BNav_EC2/DepthDuration/MX_fS_VE_MTurk/MX_fS_HTML.html#219,219,1920,1080,1920,1080,0-31-2024,10-32-58,60,VR_target_stimuli/s11_1.3x_5_363_BC.png,250,1.3x,5.0,16.0,2850,252,meters,jsons/MX_seq3_1_VE250_flipped.json,220357,594307,27,Man
