,subjID,experimentName,versionName,sequenceName,url,selected_row,windowWidth,windowHeight,screenWidth,screenHeight,startDate,startTime,trial,stimulus,duration,scale,actual_depth,depth_estimate,trial_RT,log_sceneDuration,unitSelection,seq_filepath,experimentTime,totalTime,age,gender
0,981799,final-intermixed-textured,v2,jsons/MX_seq13_1_VE250_flipped.json,http://54.235.29.9/FacialAge/BNav_EC2/DepthDuration/MX_fS_VE_MTurk/MX_fS_HTML.html#318,318,1920,919,1920,1080,0-31-2024,20-13-8,1,VR_target_stimuli/s19_1.3x_1.21_270_BC.png,250,1.3x,1.21,2,4479,251,meters,jsons/MX_seq13_1_VE250_flipped.json,179271,480691,31,Man
1,981799,final-intermixed-textured,v2,jsons/MX_seq13_1_VE250_flipped.json,http://54.235.29.9/FacialAge/BNav_EC2/DepthDuration/MX_fS_VE_MTurk/MX_fS_HTML.html#318,318,1920,919,1920,1080,0-31-2024,20-13-8,2,VR_target_stimuli/s21_0.75x_4.22_374.png,250,0.75x,4.22,3,4631,247,meters,jsons/MX_seq13_1_VE250_flipped.json,179271,480691,31,Man
2,981799,final-intermixed-textured,v2,jsons/MX_seq13_1_VE250_flipped.json,http://54.235.29.9/FacialAge/BNav_EC2/DepthDuration/MX_fS_VE_MTurk/MX_fS_HTML.html#318,318,1920,919,1920,1080,0-31-2024,20-13-8,3,VR_target_stimuli/s8_1x_3.1_332.png,250,1x,3.1,5,2118,251,meters,jsons/MX_seq13_1_VE250_flipped.json,179271,480691,31,Man
3,981799,final-intermixed-textured,v2,jsons/MX_seq13_1_VE250_flipped.json,http://54.235.29.9/FacialAge/BNav_EC2/DepthDuration/MX_fS_VE_MTurk/MX_fS_HTML.html#318,318,1920,919,1920,1080,0-31-2024,20-13-8,4,VR_target_stimuli/s27_0.75x_1.76_243_BC.png,250,0.75x,1.76,4,2548,249,meters,jsons/MX_seq13_1_VE250_flipped.json,179271,480691,31,Man
4,981799,final-intermixed-textured,v2,jsons/MX_seq13_1_VE250_flipped.json,http://54.235.29.9/FacialAge/BNav_EC2/DepthDuration/MX_fS_VE_MTurk/MX_fS_HTML.html#318,318,1920,919,1920,1080,0-31-2024,20-13-8,5,VR_target_stimuli/s15_1.3x_4.2_389.png,250,1.3x,4.2,5,2178,250,meters,jsons/MX_seq13_1_VE250_flipped.json,179271,480691,31,Man
5,981799,final-intermixed-textured,v2,jsons/MX_seq13_1_VE250_flipped.json,http://54.235.29.9/FacialAge/BNav_EC2/DepthDuration/MX_fS_VE_MTurk/MX_fS_HTML.html#318,318,1920,919,1920,1080,0-31-2024,20-13-8,6,VR_target_stimuli/s4_1x_1.4_313_BC.png,250,1x,1.4,2,2106,237,meters,jsons/MX_seq13_1_VE250_flipped.json,179271,480691,31,Man
6,981799,final-intermixed-textured,v2,jsons/MX_seq13_1_VE250_flipped.json,http://54.235.29.9/FacialAge/BNav_EC2/DepthDuration/MX_fS_VE_MTurk/MX_fS_HTML.html#318,318,1920,919,1920,1080,0-31-2024,20-13-8,7,catch_stimuli/c0_BC.png,250,,,0,2213,252,meters,jsons/MX_seq13_1_VE250_flipped.json,179271,480691,31,Man
7,981799,final-intermixed-textured,v2,jsons/MX_seq13_1_VE250_flipped.json,http://54.235.29.9/FacialAge/BNav_EC2/DepthDuration/MX_fS_VE_MTurk/MX_fS_HTML.html#318,318,1920,919,1920,1080,0-31-2024,20-13-8,8,VR_target_stimuli/s35_1x_2_331_BC.png,250,1x,2.0,1,3127,249,meters,jsons/MX_seq13_1_VE250_flipped.json,179271,480691,31,Man
8,981799,final-intermixed-textured,v2,jsons/MX_seq13_1_VE250_flipped.json,http://54.235.29.9/FacialAge/BNav_EC2/DepthDuration/MX_fS_VE_MTurk/MX_fS_HTML.html#318,318,1920,919,1920,1080,0-31-2024,20-13-8,9,VR_target_stimuli/s49_0.75x_4.67_328.png,250,0.75x,4.67,3,1844,248,meters,jsons/MX_seq13_1_VE250_flipped.json,179271,480691,31,Man
9,981799,final-intermixed-textured,v2,jsons/MX_seq13_1_VE250_flipped.json,http://54.235.29.9/FacialAge/BNav_EC2/DepthDuration/MX_fS_VE_MTurk/MX_fS_HTML.html#318,318,1920,919,1920,1080,0-31-2024,20-13-8,10,VR_target_stimuli/s7_1.3x_1.5_256.png,250,1.3x,1.5,3,2410,248,meters,jsons/MX_seq13_1_VE250_flipped.json,179271,480691,31,Man
10,981799,final-intermixed-textured,v2,jsons/MX_seq13_1_VE250_flipped.json,http://54.235.29.9/FacialAge/BNav_EC2/DepthDuration/MX_fS_VE_MTurk/MX_fS_HTML.html#318,318,1920,919,1920,1080,0-31-2024,20-13-8,11,VR_target_stimuli/s20_0.75x_4.99_390_BC.png,250,0.75x,4.99,5,1795,256,meters,jsons/MX_seq13_1_VE250_flipped.json,179271,480691,31,Man
11,981799,final-intermixed-textured,v2,jsons/MX_seq13_1_VE250_flipped.json,http://54.235.29.9/FacialAge/BNav_EC2/DepthDuration/MX_fS_VE_MTurk/MX_fS_HTML.html#318,318,1920,919,1920,1080,0-31-2024,20-13-8,12,VR_target_stimuli/s31_1x_4.96_333.png,250,1x,4.96,0,2432,249,meters,jsons/MX_seq13_1_VE250_flipped.json,179271,480691,31,Man
12,981799,final-intermixed-textured,v2,jsons/MX_seq13_1_VE250_flipped.json,http://54.235.29.9/FacialAge/BNav_EC2/DepthDuration/MX_fS_VE_MTurk/MX_fS_HTML.html#318,318,1920,919,1920,1080,0-31-2024,20-13-8,13,VR_target_stimuli/s33_1.3x_3.1_378_BC.png,250,1.3x,3.1,2,1902,245,meters,jsons/MX_seq13_1_VE250_flipped.json,179271,480691,31,Man
13,981799,final-intermixed-textured,v2,jsons/MX_seq13_1_VE250_flipped.json,http://54.235.29.9/FacialAge/BNav_EC2/DepthDuration/MX_fS_VE_MTurk/MX_fS_HTML.html#318,318,1920,919,1920,1080,0-31-2024,20-13-8,14,VR_target_stimuli/s52_1x_3.2_275.png,250,1x,3.2,3,2122,250,meters,jsons/MX_seq13_1_VE250_flipped.json,179271,480691,31,Man
14,981799,final-intermixed-textured,v2,jsons/MX_seq13_1_VE250_flipped.json,http://54.235.29.9/FacialAge/BNav_EC2/DepthDuration/MX_fS_VE_MTurk/MX_fS_HTML.html#318,318,1920,919,1920,1080,0-31-2024,20-13-8,15,VR_target_stimuli/s32_0.75x_1.5_213_BC.png,250,0.75x,1.5,3,1654,248,meters,jsons/MX_seq13_1_VE250_flipped.json,179271,480691,31,Man
15,981799,final-intermixed-textured,v2,jsons/MX_seq13_1_VE250_flipped.json,http://54.235.29.9/FacialAge/BNav_EC2/DepthDuration/MX_fS_VE_MTurk/MX_fS_HTML.html#318,318,1920,919,1920,1080,0-31-2024,20-13-8,16,VR_target_stimuli/s18_1.3x_2.25_368.png,250,1.3x,2.25,2,2635,252,meters,jsons/MX_seq13_1_VE250_flipped.json,179271,480691,31,Man
16,981799,final-intermixed-textured,v2,jsons/MX_seq13_1_VE250_flipped.json,http://54.235.29.9/FacialAge/BNav_EC2/DepthDuration/MX_fS_VE_MTurk/MX_fS_HTML.html#318,318,1920,919,1920,1080,0-31-2024,20-13-8,17,catch_stimuli/c1_BC.png,250,,,0,2155,249,meters,jsons/MX_seq13_1_VE250_flipped.json,179271,480691,31,Man
17,981799,final-intermixed-textured,v2,jsons/MX_seq13_1_VE250_flipped.json,http://54.235.29.9/FacialAge/BNav_EC2/DepthDuration/MX_fS_VE_MTurk/MX_fS_HTML.html#318,318,1920,919,1920,1080,0-31-2024,20-13-8,18,VR_target_stimuli/s39_1.3x_1_208_BC.png,250,1.3x,1.0,1,1730,250,meters,jsons/MX_seq13_1_VE250_flipped.json,179271,480691,31,Man
18,981799,final-intermixed-textured,v2,jsons/MX_seq13_1_VE250_flipped.json,http://54.235.29.9/FacialAge/BNav_EC2/DepthDuration/MX_fS_VE_MTurk/MX_fS_HTML.html#318,318,1920,919,1920,1080,0-31-2024,20-13-8,19,VR_target_stimuli/s51_1x_3.64_461_BC.png,250,1x,3.64,2,1789,263,meters,jsons/MX_seq13_1_VE250_flipped.json,179271,480691,31,Man
19,981799,final-intermixed-textured,v2,jsons/MX_seq13_1_VE250_flipped.json,http://54.235.29.9/FacialAge/BNav_EC2/DepthDuration/MX_fS_VE_MTurk/MX_fS_HTML.html#318,318,1920,919,1920,1080,0-31-2024,20-13-8,20,VR_target_stimuli/s43_0.75x_2.2_348.png,250,0.75x,2.2,2,1767,249,meters,jsons/MX_seq13_1_VE250_flipped.json,179271,480691,31,Man
20,981799,final-intermixed-textured,v2,jsons/MX_seq13_1_VE250_flipped.json,http://54.235.29.9/FacialAge/BNav_EC2/DepthDuration/MX_fS_VE_MTurk/MX_fS_HTML.html#318,318,1920,919,1920,1080,0-31-2024,20-13-8,21,VR_target_stimuli/s24_1x_3.3_349_BC.png,250,1x,3.3,2,1800,248,meters,jsons/MX_seq13_1_VE250_flipped.json,179271,480691,31,Man
21,981799,final-intermixed-textured,v2,jsons/MX_seq13_1_VE250_flipped.json,http://54.235.29.9/FacialAge/BNav_EC2/DepthDuration/MX_fS_VE_MTurk/MX_fS_HTML.html#318,318,1920,919,1920,1080,0-31-2024,20-13-8,22,VR_target_stimuli/s10_1.3x_2.7_325_BC.png,250,1.3x,2.7,2,2320,248,meters,jsons/MX_seq13_1_VE250_flipped.json,179271,480691,31,Man
22,981799,final-intermixed-textured,v2,jsons/MX_seq13_1_VE250_flipped.json,http://54.235.29.9/FacialAge/BNav_EC2/DepthDuration/MX_fS_VE_MTurk/MX_fS_HTML.html#318,318,1920,919,1920,1080,0-31-2024,20-13-8,23,VR_target_stimuli/s36_0.75x_4.1_407_BC.png,250,0.75x,4.1,3,1458,247,meters,jsons/MX_seq13_1_VE250_flipped.json,179271,480691,31,Man
23,981799,final-intermixed-textured,v2,jsons/MX_seq13_1_VE250_flipped.json,http://54.235.29.9/FacialAge/BNav_EC2/DepthDuration/MX_fS_VE_MTurk/MX_fS_HTML.html#318,318,1920,919,1920,1080,0-31-2024,20-13-8,24,VR_target_stimuli/s40_1.3x_1.2_332.png,250,1.3x,1.2,1,2359,250,meters,jsons/MX_seq13_1_VE250_flipped.json,179271,480691,31,Man
24,981799,final-intermixed-textured,v2,jsons/MX_seq13_1_VE250_flipped.json,http://54.235.29.9/FacialAge/BNav_EC2/DepthDuration/MX_fS_VE_MTurk/MX_fS_HTML.html#318,318,1920,919,1920,1080,0-31-2024,20-13-8,25,VR_target_stimuli/s41_1x_2.1_286.png,250,1x,2.1,1,2697,245,meters,jsons/MX_seq13_1_VE250_flipped.json,179271,480691,31,Man
25,981799,final-intermixed-textured,v2,jsons/MX_seq13_1_VE250_flipped.json,http://54.235.29.9/FacialAge/BNav_EC2/DepthDuration/MX_fS_VE_MTurk/MX_fS_HTML.html#318,318,1920,919,1920,1080,0-31-2024,20-13-8,26,catch_stimuli/c2_BC.png,250,,,0,2557,247,meters,jsons/MX_seq13_1_VE250_flipped.json,179271,480691,31,Man
26,981799,final-intermixed-textured,v2,jsons/MX_seq13_1_VE250_flipped.json,http://54.235.29.9/FacialAge/BNav_EC2/DepthDuration/MX_fS_VE_MTurk/MX_fS_HTML.html#318,318,1920,919,1920,1080,0-31-2024,20-13-8,27,VR_target_stimuli/s45_0.75x_3.5_362.png,250,0.75x,3.5,2,1701,240,meters,jsons/MX_seq13_1_VE250_flipped.json,179271,480691,31,Man
27,981799,final-intermixed-textured,v2,jsons/MX_seq13_1_VE250_flipped.json,http://54.235.29.9/FacialAge/BNav_EC2/DepthDuration/MX_fS_VE_MTurk/MX_fS_HTML.html#318,318,1920,919,1920,1080,0-31-2024,20-13-8,28,VR_target_stimuli/s23_0.75x_3.65_351.png,250,0.75x,3.65,2,1840,234,meters,jsons/MX_seq13_1_VE250_flipped.json,179271,480691,31,Man
28,981799,final-intermixed-textured,v2,jsons/MX_seq13_1_VE250_flipped.json,http://54.235.29.9/FacialAge/BNav_EC2/DepthDuration/MX_fS_VE_MTurk/MX_fS_HTML.html#318,318,1920,919,1920,1080,0-31-2024,20-13-8,29,VR_target_stimuli/s26_1.3x_4_441.png,250,1.3x,4.0,0,2645,247,meters,jsons/MX_seq13_1_VE250_flipped.json,179271,480691,31,Man
29,981799,final-intermixed-textured,v2,jsons/MX_seq13_1_VE250_flipped.json,http://54.235.29.9/FacialAge/BNav_EC2/DepthDuration/MX_fS_VE_MTurk/MX_fS_HTML.html#318,318,1920,919,1920,1080,0-31-2024,20-13-8,30,VR_target_stimuli/s12_1x_3.1_372.png,250,1x,3.1,2,3356,252,meters,jsons/MX_seq13_1_VE250_flipped.json,179271,480691,31,Man
30,981799,final-intermixed-textured,v2,jsons/MX_seq13_1_VE250_flipped.json,http://54.235.29.9/FacialAge/BNav_EC2/DepthDuration/MX_fS_VE_MTurk/MX_fS_HTML.html#318,318,1920,919,1920,1080,0-31-2024,20-13-8,31,VR_target_stimuli/s30_0.75x_2.3_332_BC.png,250,0.75x,2.3,2,3102,240,meters,jsons/MX_seq13_1_VE250_flipped.json,179271,480691,31,Man
31,981799,final-intermixed-textured,v2,jsons/MX_seq13_1_VE250_flipped.json,http://54.235.29.9/FacialAge/BNav_EC2/DepthDuration/MX_fS_VE_MTurk/MX_fS_HTML.html#318,318,1920,919,1920,1080,0-31-2024,20-13-8,32,VR_target_stimuli/s16_1x_1_219_BC.png,250,1x,1.0,1,2199,251,meters,jsons/MX_seq13_1_VE250_flipped.json,179271,480691,31,Man
32,981799,final-intermixed-textured,v2,jsons/MX_seq13_1_VE250_flipped.json,http://54.235.29.9/FacialAge/BNav_EC2/DepthDuration/MX_fS_VE_MTurk/MX_fS_HTML.html#318,318,1920,919,1920,1080,0-31-2024,20-13-8,33,VR_target_stimuli/s17_1.3x_1.8_300_BC.png,250,1.3x,1.8,2,5174,248,meters,jsons/MX_seq13_1_VE250_flipped.json,179271,480691,31,Man
33,981799,final-intermixed-textured,v2,jsons/MX_seq13_1_VE250_flipped.json,http://54.235.29.9/FacialAge/BNav_EC2/DepthDuration/MX_fS_VE_MTurk/MX_fS_HTML.html#318,318,1920,919,1920,1080,0-31-2024,20-13-8,34,catch_stimuli/c3_BC.png,250,,,0,2768,241,meters,jsons/MX_seq13_1_VE250_flipped.json,179271,480691,31,Man
34,981799,final-intermixed-textured,v2,jsons/MX_seq13_1_VE250_flipped.json,http://54.235.29.9/FacialAge/BNav_EC2/DepthDuration/MX_fS_VE_MTurk/MX_fS_HTML.html#318,318,1920,919,1920,1080,0-31-2024,20-13-8,35,VR_target_stimuli/s5_1x_4_378.png,250,1x,4.0,4,2018,249,meters,jsons/MX_seq13_1_VE250_flipped.json,179271,480691,31,Man
35,981799,final-intermixed-textured,v2,jsons/MX_seq13_1_VE250_flipped.json,http://54.235.29.9/FacialAge/BNav_EC2/DepthDuration/MX_fS_VE_MTurk/MX_fS_HTML.html#318,318,1920,919,1920,1080,0-31-2024,20-13-8,36,VR_target_stimuli/s37_0.75x_3.3_567.png,250,0.75x,3.3,4,2503,253,meters,jsons/MX_seq13_1_VE250_flipped.json,179271,480691,31,Man
36,981799,final-intermixed-textured,v2,jsons/MX_seq13_1_VE250_flipped.json,http://54.235.29.9/FacialAge/BNav_EC2/DepthDuration/MX_fS_VE_MTurk/MX_fS_HTML.html#318,318,1920,919,1920,1080,0-31-2024,20-13-8,37,VR_target_stimuli/s46_1.3x_2.42_354_BC.png,250,1.3x,2.42,3,1867,234,meters,jsons/MX_seq13_1_VE250_flipped.json,179271,480691,31,Man
37,981799,final-intermixed-textured,v2,jsons/MX_seq13_1_VE250_flipped.json,http://54.235.29.9/FacialAge/BNav_EC2/DepthDuration/MX_fS_VE_MTurk/MX_fS_HTML.html#318,318,1920,919,1920,1080,0-31-2024,20-13-8,38,VR_target_stimuli/s22_1.3x_4.29_364.png,250,1.3x,4.29,4,1766,260,meters,jsons/MX_seq13_1_VE250_flipped.json,179271,480691,31,Man
38,981799,final-intermixed-textured,v2,jsons/MX_seq13_1_VE250_flipped.json,http://54.235.29.9/FacialAge/BNav_EC2/DepthDuration/MX_fS_VE_MTurk/MX_fS_HTML.html#318,318,1920,919,1920,1080,0-31-2024,20-13-8,39,VR_target_stimuli/s42_1x_3.2_303_BC.png,250,1x,3.2,4,3185,263,meters,jsons/MX_seq13_1_VE250_flipped.json,179271,480691,31,Man
39,981799,final-intermixed-textured,v2,jsons/MX_seq13_1_VE250_flipped.json,http://54.235.29.9/FacialAge/BNav_EC2/DepthDuration/MX_fS_VE_MTurk/MX_fS_HTML.html#318,318,1920,919,1920,1080,0-31-2024,20-13-8,40,VR_target_stimuli/s25_0.75x_1.4_281_BC.png,250,0.75x,1.4,1,2491,254,meters,jsons/MX_seq13_1_VE250_flipped.json,179271,480691,31,Man
40,981799,final-intermixed-textured,v2,jsons/MX_seq13_1_VE250_flipped.json,http://54.235.29.9/FacialAge/BNav_EC2/DepthDuration/MX_fS_VE_MTurk/MX_fS_HTML.html#318,318,1920,919,1920,1080,0-31-2024,20-13-8,41,VR_target_stimuli/s50_1x_4.53_518_BC.png,250,1x,4.53,1,2088,248,meters,jsons/MX_seq13_1_VE250_flipped.json,179271,480691,31,Man
41,981799,final-intermixed-textured,v2,jsons/MX_seq13_1_VE250_flipped.json,http://54.235.29.9/FacialAge/BNav_EC2/DepthDuration/MX_fS_VE_MTurk/MX_fS_HTML.html#318,318,1920,919,1920,1080,0-31-2024,20-13-8,42,VR_target_stimuli/s53_1.3x_1.6_355_BC.png,250,1.3x,1.6,1,1694,248,meters,jsons/MX_seq13_1_VE250_flipped.json,179271,480691,31,Man
42,981799,final-intermixed-textured,v2,jsons/MX_seq13_1_VE250_flipped.json,http://54.235.29.9/FacialAge/BNav_EC2/DepthDuration/MX_fS_VE_MTurk/MX_fS_HTML.html#318,318,1920,919,1920,1080,0-31-2024,20-13-8,43,VR_target_stimuli/s38_0.75x_3.55_346_BC.png,250,0.75x,3.55,2,1677,249,meters,jsons/MX_seq13_1_VE250_flipped.json,179271,480691,31,Man
43,981799,final-intermixed-textured,v2,jsons/MX_seq13_1_VE250_flipped.json,http://54.235.29.9/FacialAge/BNav_EC2/DepthDuration/MX_fS_VE_MTurk/MX_fS_HTML.html#318,318,1920,919,1920,1080,0-31-2024,20-13-8,44,VR_target_stimuli/s9_1.3x_1.2_276.png,250,1.3x,1.2,1,1975,249,meters,jsons/MX_seq13_1_VE250_flipped.json,179271,480691,31,Man
44,981799,final-intermixed-textured,v2,jsons/MX_seq13_1_VE250_flipped.json,http://54.235.29.9/FacialAge/BNav_EC2/DepthDuration/MX_fS_VE_MTurk/MX_fS_HTML.html#318,318,1920,919,1920,1080,0-31-2024,20-13-8,45,catch_stimuli/c4_BC.png,250,,,0,2660,253,meters,jsons/MX_seq13_1_VE250_flipped.json,179271,480691,31,Man
45,981799,final-intermixed-textured,v2,jsons/MX_seq13_1_VE250_flipped.json,http://54.235.29.9/FacialAge/BNav_EC2/DepthDuration/MX_fS_VE_MTurk/MX_fS_HTML.html#318,318,1920,919,1920,1080,0-31-2024,20-13-8,46,VR_target_stimuli/s44_1x_4.4_317.png,250,1x,4.4,2,2796,254,meters,jsons/MX_seq13_1_VE250_flipped.json,179271,480691,31,Man
46,981799,final-intermixed-textured,v2,jsons/MX_seq13_1_VE250_flipped.json,http://54.235.29.9/FacialAge/BNav_EC2/DepthDuration/MX_fS_VE_MTurk/MX_fS_HTML.html#318,318,1920,919,1920,1080,0-31-2024,20-13-8,47,VR_target_stimuli/s3_0.75x_5_381.png,250,0.75x,5.0,3,3755,251,meters,jsons/MX_seq13_1_VE250_flipped.json,179271,480691,31,Man
47,981799,final-intermixed-textured,v2,jsons/MX_seq13_1_VE250_flipped.json,http://54.235.29.9/FacialAge/BNav_EC2/DepthDuration/MX_fS_VE_MTurk/MX_fS_HTML.html#318,318,1920,919,1920,1080,0-31-2024,20-13-8,48,VR_target_stimuli/s1_0.75x_1.7_265.png,250,0.75x,1.7,2,2424,249,meters,jsons/MX_seq13_1_VE250_flipped.json,179271,480691,31,Man
48,981799,final-intermixed-textured,v2,jsons/MX_seq13_1_VE250_flipped.json,http://54.235.29.9/FacialAge/BNav_EC2/DepthDuration/MX_fS_VE_MTurk/MX_fS_HTML.html#318,318,1920,919,1920,1080,0-31-2024,20-13-8,49,VR_target_stimuli/s11_1.3x_5_363.png,250,1.3x,5.0,3,1975,246,meters,jsons/MX_seq13_1_VE250_flipped.json,179271,480691,31,Man
49,981799,final-intermixed-textured,v2,jsons/MX_seq13_1_VE250_flipped.json,http://54.235.29.9/FacialAge/BNav_EC2/DepthDuration/MX_fS_VE_MTurk/MX_fS_HTML.html#318,318,1920,919,1920,1080,0-31-2024,20-13-8,50,VR_target_stimuli/s2_1x_2.7_390.png,250,1x,2.7,0,4417,250,meters,jsons/MX_seq13_1_VE250_flipped.json,179271,480691,31,Man
50,981799,final-intermixed-textured,v2,jsons/MX_seq13_1_VE250_flipped.json,http://54.235.29.9/FacialAge/BNav_EC2/DepthDuration/MX_fS_VE_MTurk/MX_fS_HTML.html#318,318,1920,919,1920,1080,0-31-2024,20-13-8,51,VR_target_stimuli/s6_1.3x_2.1_298_BC.png,250,1.3x,2.1,2,1502,247,meters,jsons/MX_seq13_1_VE250_flipped.json,179271,480691,31,Man
51,981799,final-intermixed-textured,v2,jsons/MX_seq13_1_VE250_flipped.json,http://54.235.29.9/FacialAge/BNav_EC2/DepthDuration/MX_fS_VE_MTurk/MX_fS_HTML.html#318,318,1920,919,1920,1080,0-31-2024,20-13-8,52,VR_target_stimuli/s0_0.75x_2.6_345_BC.png,250,0.75x,2.6,2,4032,252,meters,jsons/MX_seq13_1_VE250_flipped.json,179271,480691,31,Man
52,981799,final-intermixed-textured,v2,jsons/MX_seq13_1_VE250_flipped.json,http://54.235.29.9/FacialAge/BNav_EC2/DepthDuration/MX_fS_VE_MTurk/MX_fS_HTML.html#318,318,1920,919,1920,1080,0-31-2024,20-13-8,53,catch_stimuli/c5_BC.png,250,,,0,1927,250,meters,jsons/MX_seq13_1_VE250_flipped.json,179271,480691,31,Man
53,981799,final-intermixed-textured,v2,jsons/MX_seq13_1_VE250_flipped.json,http://54.235.29.9/FacialAge/BNav_EC2/DepthDuration/MX_fS_VE_MTurk/MX_fS_HTML.html#318,318,1920,919,1920,1080,0-31-2024,20-13-8,54,VR_target_stimuli/s34_1x_2.8_283_BC.png,250,1x,2.8,2,2856,254,meters,jsons/MX_seq13_1_VE250_flipped.json,179271,480691,31,Man
54,981799,final-intermixed-textured,v2,jsons/MX_seq13_1_VE250_flipped.json,http://54.235.29.9/FacialAge/BNav_EC2/DepthDuration/MX_fS_VE_MTurk/MX_fS_HTML.html#318,318,1920,919,1920,1080,0-31-2024,20-13-8,55,VR_target_stimuli/s13_0.75x_2.4_308_BC.png,250,0.75x,2.4,2,2126,252,meters,jsons/MX_seq13_1_VE250_flipped.json,179271,480691,31,Man
55,981799,final-intermixed-textured,v2,jsons/MX_seq13_1_VE250_flipped.json,http://54.235.29.9/FacialAge/BNav_EC2/DepthDuration/MX_fS_VE_MTurk/MX_fS_HTML.html#318,318,1920,919,1920,1080,0-31-2024,20-13-8,56,VR_target_stimuli/s14_1.3x_3.83_359.png,250,1.3x,3.83,3,2221,250,meters,jsons/MX_seq13_1_VE250_flipped.json,179271,480691,31,Man
56,981799,final-intermixed-textured,v2,jsons/MX_seq13_1_VE250_flipped.json,http://54.235.29.9/FacialAge/BNav_EC2/DepthDuration/MX_fS_VE_MTurk/MX_fS_HTML.html#318,318,1920,919,1920,1080,0-31-2024,20-13-8,57,VR_target_stimuli/s47_1x_3.45_370_BC.png,250,1x,3.45,2,2288,249,meters,jsons/MX_seq13_1_VE250_flipped.json,179271,480691,31,Man
57,981799,final-intermixed-textured,v2,jsons/MX_seq13_1_VE250_flipped.json,http://54.235.29.9/FacialAge/BNav_EC2/DepthDuration/MX_fS_VE_MTurk/MX_fS_HTML.html#318,318,1920,919,1920,1080,0-31-2024,20-13-8,58,VR_target_stimuli/s29_1x_1.3_250.png,250,1x,1.3,1,2712,248,meters,jsons/MX_seq13_1_VE250_flipped.json,179271,480691,31,Man
58,981799,final-intermixed-textured,v2,jsons/MX_seq13_1_VE250_flipped.json,http://54.235.29.9/FacialAge/BNav_EC2/DepthDuration/MX_fS_VE_MTurk/MX_fS_HTML.html#318,318,1920,919,1920,1080,0-31-2024,20-13-8,59,VR_target_stimuli/s28_0.75x_3.2_357.png,250,0.75x,3.2,2,3049,247,meters,jsons/MX_seq13_1_VE250_flipped.json,179271,480691,31,Man
59,981799,final-intermixed-textured,v2,jsons/MX_seq13_1_VE250_flipped.json,http://54.235.29.9/FacialAge/BNav_EC2/DepthDuration/MX_fS_VE_MTurk/MX_fS_HTML.html#318,318,1920,919,1920,1080,0-31-2024,20-13-8,60,VR_target_stimuli/s48_1.3x_2.55_255_BC.png,250,1.3x,2.55,1,3287,249,meters,jsons/MX_seq13_1_VE250_flipped.json,179271,480691,31,Man
