,subjID,experimentName,versionName,sequenceName,url,selected_row,windowWidth,windowHeight,screenWidth,screenHeight,startDate,startTime,trial,stimulus,duration,scale,actual_depth,depth_estimate,trial_RT,log_sceneDuration,unitSelection,seq_filepath,experimentTime,totalTime,age,gender
0,989871,final-intermixed-textured,v2,jsons/MX_seq23_1_VE250_flipped.json,http://54.235.29.9/FacialAge/BNav_EC2/DepthDuration/MX_fS_VE_MTurk/MX_fS_HTML.html#92,92,1536,738,1536,864,0-31-2024,15-17-6,1,VR_target_stimuli/s31_1.3x_4.96_342.png,250,1.3x,4.96,5,4028,250,feet,jsons/MX_seq23_1_VE250_flipped.json,159288,332494,34,Man
1,989871,final-intermixed-textured,v2,jsons/MX_seq23_1_VE250_flipped.json,http://54.235.29.9/FacialAge/BNav_EC2/DepthDuration/MX_fS_VE_MTurk/MX_fS_HTML.html#92,92,1536,738,1536,864,0-31-2024,15-17-6,2,VR_target_stimuli/s33_0.75x_3.1_361_BC.png,250,0.75x,3.1,10,3177,261,feet,jsons/MX_seq23_1_VE250_flipped.json,159288,332494,34,Man
2,989871,final-intermixed-textured,v2,jsons/MX_seq23_1_VE250_flipped.json,http://54.235.29.9/FacialAge/BNav_EC2/DepthDuration/MX_fS_VE_MTurk/MX_fS_HTML.html#92,92,1536,738,1536,864,0-31-2024,15-17-6,3,VR_target_stimuli/s52_1x_3.2_275.png,250,1x,3.2,6,2964,253,feet,jsons/MX_seq23_1_VE250_flipped.json,159288,332494,34,Man
3,989871,final-intermixed-textured,v2,jsons/MX_seq23_1_VE250_flipped.json,http://54.235.29.9/FacialAge/BNav_EC2/DepthDuration/MX_fS_VE_MTurk/MX_fS_HTML.html#92,92,1536,738,1536,864,0-31-2024,15-17-6,4,VR_target_stimuli/s32_0.75x_1.5_213.png,250,0.75x,1.5,5,3468,250,feet,jsons/MX_seq23_1_VE250_flipped.json,159288,332494,34,Man
4,989871,final-intermixed-textured,v2,jsons/MX_seq23_1_VE250_flipped.json,http://54.235.29.9/FacialAge/BNav_EC2/DepthDuration/MX_fS_VE_MTurk/MX_fS_HTML.html#92,92,1536,738,1536,864,0-31-2024,15-17-6,5,VR_target_stimuli/s18_1.3x_2.25_368_BC.png,250,1.3x,2.25,4,2819,247,feet,jsons/MX_seq23_1_VE250_flipped.json,159288,332494,34,Man
5,989871,final-intermixed-textured,v2,jsons/MX_seq23_1_VE250_flipped.json,http://54.235.29.9/FacialAge/BNav_EC2/DepthDuration/MX_fS_VE_MTurk/MX_fS_HTML.html#92,92,1536,738,1536,864,0-31-2024,15-17-6,6,VR_target_stimuli/s39_1x_1_207_BC.png,250,1x,1.0,5,2404,242,feet,jsons/MX_seq23_1_VE250_flipped.json,159288,332494,34,Man
6,989871,final-intermixed-textured,v2,jsons/MX_seq23_1_VE250_flipped.json,http://54.235.29.9/FacialAge/BNav_EC2/DepthDuration/MX_fS_VE_MTurk/MX_fS_HTML.html#92,92,1536,738,1536,864,0-31-2024,15-17-6,7,catch_stimuli/c0_BC.png,250,,,5,2154,243,feet,jsons/MX_seq23_1_VE250_flipped.json,159288,332494,34,Man
7,989871,final-intermixed-textured,v2,jsons/MX_seq23_1_VE250_flipped.json,http://54.235.29.9/FacialAge/BNav_EC2/DepthDuration/MX_fS_VE_MTurk/MX_fS_HTML.html#92,92,1536,738,1536,864,0-31-2024,15-17-6,8,VR_target_stimuli/s51_1x_3.64_461.png,250,1x,3.64,8,2172,261,feet,jsons/MX_seq23_1_VE250_flipped.json,159288,332494,34,Man
8,989871,final-intermixed-textured,v2,jsons/MX_seq23_1_VE250_flipped.json,http://54.235.29.9/FacialAge/BNav_EC2/DepthDuration/MX_fS_VE_MTurk/MX_fS_HTML.html#92,92,1536,738,1536,864,0-31-2024,15-17-6,9,VR_target_stimuli/s43_0.75x_2.2_348_BC.png,250,0.75x,2.2,8,1976,246,feet,jsons/MX_seq23_1_VE250_flipped.json,159288,332494,34,Man
9,989871,final-intermixed-textured,v2,jsons/MX_seq23_1_VE250_flipped.json,http://54.235.29.9/FacialAge/BNav_EC2/DepthDuration/MX_fS_VE_MTurk/MX_fS_HTML.html#92,92,1536,738,1536,864,0-31-2024,15-17-6,10,VR_target_stimuli/s24_1.3x_3.3_352.png,250,1.3x,3.3,7,2385,250,feet,jsons/MX_seq23_1_VE250_flipped.json,159288,332494,34,Man
10,989871,final-intermixed-textured,v2,jsons/MX_seq23_1_VE250_flipped.json,http://54.235.29.9/FacialAge/BNav_EC2/DepthDuration/MX_fS_VE_MTurk/MX_fS_HTML.html#92,92,1536,738,1536,864,0-31-2024,15-17-6,11,VR_target_stimuli/s10_0.75x_2.7_321.png,250,0.75x,2.7,5,3198,251,feet,jsons/MX_seq23_1_VE250_flipped.json,159288,332494,34,Man
11,989871,final-intermixed-textured,v2,jsons/MX_seq23_1_VE250_flipped.json,http://54.235.29.9/FacialAge/BNav_EC2/DepthDuration/MX_fS_VE_MTurk/MX_fS_HTML.html#92,92,1536,738,1536,864,0-31-2024,15-17-6,12,VR_target_stimuli/s36_1x_4.1_423_BC.png,250,1x,4.1,8,2538,252,feet,jsons/MX_seq23_1_VE250_flipped.json,159288,332494,34,Man
12,989871,final-intermixed-textured,v2,jsons/MX_seq23_1_VE250_flipped.json,http://54.235.29.9/FacialAge/BNav_EC2/DepthDuration/MX_fS_VE_MTurk/MX_fS_HTML.html#92,92,1536,738,1536,864,0-31-2024,15-17-6,13,VR_target_stimuli/s40_1.3x_1.2_332_BC.png,250,1.3x,1.2,3,2594,257,feet,jsons/MX_seq23_1_VE250_flipped.json,159288,332494,34,Man
13,989871,final-intermixed-textured,v2,jsons/MX_seq23_1_VE250_flipped.json,http://54.235.29.9/FacialAge/BNav_EC2/DepthDuration/MX_fS_VE_MTurk/MX_fS_HTML.html#92,92,1536,738,1536,864,0-31-2024,15-17-6,14,VR_target_stimuli/s41_1x_2.1_286_BC.png,250,1x,2.1,2,2033,252,feet,jsons/MX_seq23_1_VE250_flipped.json,159288,332494,34,Man
14,989871,final-intermixed-textured,v2,jsons/MX_seq23_1_VE250_flipped.json,http://54.235.29.9/FacialAge/BNav_EC2/DepthDuration/MX_fS_VE_MTurk/MX_fS_HTML.html#92,92,1536,738,1536,864,0-31-2024,15-17-6,15,VR_target_stimuli/s45_0.75x_3.5_362.png,250,0.75x,3.5,8,2101,258,feet,jsons/MX_seq23_1_VE250_flipped.json,159288,332494,34,Man
15,989871,final-intermixed-textured,v2,jsons/MX_seq23_1_VE250_flipped.json,http://54.235.29.9/FacialAge/BNav_EC2/DepthDuration/MX_fS_VE_MTurk/MX_fS_HTML.html#92,92,1536,738,1536,864,0-31-2024,15-17-6,16,VR_target_stimuli/s23_1.3x_3.65_354.png,250,1.3x,3.65,4,2754,255,feet,jsons/MX_seq23_1_VE250_flipped.json,159288,332494,34,Man
16,989871,final-intermixed-textured,v2,jsons/MX_seq23_1_VE250_flipped.json,http://54.235.29.9/FacialAge/BNav_EC2/DepthDuration/MX_fS_VE_MTurk/MX_fS_HTML.html#92,92,1536,738,1536,864,0-31-2024,15-17-6,17,catch_stimuli/c1_BC.png,250,,,5,2136,255,feet,jsons/MX_seq23_1_VE250_flipped.json,159288,332494,34,Man
17,989871,final-intermixed-textured,v2,jsons/MX_seq23_1_VE250_flipped.json,http://54.235.29.9/FacialAge/BNav_EC2/DepthDuration/MX_fS_VE_MTurk/MX_fS_HTML.html#92,92,1536,738,1536,864,0-31-2024,15-17-6,18,VR_target_stimuli/s26_1.3x_4_441_BC.png,250,1.3x,4.0,5,2538,248,feet,jsons/MX_seq23_1_VE250_flipped.json,159288,332494,34,Man
18,989871,final-intermixed-textured,v2,jsons/MX_seq23_1_VE250_flipped.json,http://54.235.29.9/FacialAge/BNav_EC2/DepthDuration/MX_fS_VE_MTurk/MX_fS_HTML.html#92,92,1536,738,1536,864,0-31-2024,15-17-6,19,VR_target_stimuli/s12_1x_3.1_372.png,250,1x,3.1,5,1980,258,feet,jsons/MX_seq23_1_VE250_flipped.json,159288,332494,34,Man
19,989871,final-intermixed-textured,v2,jsons/MX_seq23_1_VE250_flipped.json,http://54.235.29.9/FacialAge/BNav_EC2/DepthDuration/MX_fS_VE_MTurk/MX_fS_HTML.html#92,92,1536,738,1536,864,0-31-2024,15-17-6,20,VR_target_stimuli/s30_0.75x_2.3_332_BC.png,250,0.75x,2.3,3,1959,238,feet,jsons/MX_seq23_1_VE250_flipped.json,159288,332494,34,Man
20,989871,final-intermixed-textured,v2,jsons/MX_seq23_1_VE250_flipped.json,http://54.235.29.9/FacialAge/BNav_EC2/DepthDuration/MX_fS_VE_MTurk/MX_fS_HTML.html#92,92,1536,738,1536,864,0-31-2024,15-17-6,21,VR_target_stimuli/s16_1x_1_219_BC.png,250,1x,1.0,3,1854,249,feet,jsons/MX_seq23_1_VE250_flipped.json,159288,332494,34,Man
21,989871,final-intermixed-textured,v2,jsons/MX_seq23_1_VE250_flipped.json,http://54.235.29.9/FacialAge/BNav_EC2/DepthDuration/MX_fS_VE_MTurk/MX_fS_HTML.html#92,92,1536,738,1536,864,0-31-2024,15-17-6,22,VR_target_stimuli/s17_1.3x_1.8_300.png,250,1.3x,1.8,3,1623,240,feet,jsons/MX_seq23_1_VE250_flipped.json,159288,332494,34,Man
22,989871,final-intermixed-textured,v2,jsons/MX_seq23_1_VE250_flipped.json,http://54.235.29.9/FacialAge/BNav_EC2/DepthDuration/MX_fS_VE_MTurk/MX_fS_HTML.html#92,92,1536,738,1536,864,0-31-2024,15-17-6,23,VR_target_stimuli/s5_0.75x_4_375.png,250,0.75x,4.0,5,2449,247,feet,jsons/MX_seq23_1_VE250_flipped.json,159288,332494,34,Man
23,989871,final-intermixed-textured,v2,jsons/MX_seq23_1_VE250_flipped.json,http://54.235.29.9/FacialAge/BNav_EC2/DepthDuration/MX_fS_VE_MTurk/MX_fS_HTML.html#92,92,1536,738,1536,864,0-31-2024,15-17-6,24,VR_target_stimuli/s37_1.3x_3.3_555_BC.png,250,1.3x,3.3,5,2190,241,feet,jsons/MX_seq23_1_VE250_flipped.json,159288,332494,34,Man
24,989871,final-intermixed-textured,v2,jsons/MX_seq23_1_VE250_flipped.json,http://54.235.29.9/FacialAge/BNav_EC2/DepthDuration/MX_fS_VE_MTurk/MX_fS_HTML.html#92,92,1536,738,1536,864,0-31-2024,15-17-6,25,VR_target_stimuli/s46_1x_2.42_348.png,250,1x,2.42,5,1966,265,feet,jsons/MX_seq23_1_VE250_flipped.json,159288,332494,34,Man
25,989871,final-intermixed-textured,v2,jsons/MX_seq23_1_VE250_flipped.json,http://54.235.29.9/FacialAge/BNav_EC2/DepthDuration/MX_fS_VE_MTurk/MX_fS_HTML.html#92,92,1536,738,1536,864,0-31-2024,15-17-6,26,catch_stimuli/c2_BC.png,250,,,5,1719,247,feet,jsons/MX_seq23_1_VE250_flipped.json,159288,332494,34,Man
26,989871,final-intermixed-textured,v2,jsons/MX_seq23_1_VE250_flipped.json,http://54.235.29.9/FacialAge/BNav_EC2/DepthDuration/MX_fS_VE_MTurk/MX_fS_HTML.html#92,92,1536,738,1536,864,0-31-2024,15-17-6,27,VR_target_stimuli/s22_0.75x_4.29_348_BC.png,250,0.75x,4.29,5,1546,250,feet,jsons/MX_seq23_1_VE250_flipped.json,159288,332494,34,Man
27,989871,final-intermixed-textured,v2,jsons/MX_seq23_1_VE250_flipped.json,http://54.235.29.9/FacialAge/BNav_EC2/DepthDuration/MX_fS_VE_MTurk/MX_fS_HTML.html#92,92,1536,738,1536,864,0-31-2024,15-17-6,28,VR_target_stimuli/s42_0.75x_3.2_301_BC.png,250,0.75x,3.2,5,1521,250,feet,jsons/MX_seq23_1_VE250_flipped.json,159288,332494,34,Man
28,989871,final-intermixed-textured,v2,jsons/MX_seq23_1_VE250_flipped.json,http://54.235.29.9/FacialAge/BNav_EC2/DepthDuration/MX_fS_VE_MTurk/MX_fS_HTML.html#92,92,1536,738,1536,864,0-31-2024,15-17-6,29,VR_target_stimuli/s25_1.3x_1.4_299_BC.png,250,1.3x,1.4,5,1686,253,feet,jsons/MX_seq23_1_VE250_flipped.json,159288,332494,34,Man
29,989871,final-intermixed-textured,v2,jsons/MX_seq23_1_VE250_flipped.json,http://54.235.29.9/FacialAge/BNav_EC2/DepthDuration/MX_fS_VE_MTurk/MX_fS_HTML.html#92,92,1536,738,1536,864,0-31-2024,15-17-6,30,VR_target_stimuli/s50_1x_4.53_518.png,250,1x,4.53,5,1709,256,feet,jsons/MX_seq23_1_VE250_flipped.json,159288,332494,34,Man
30,989871,final-intermixed-textured,v2,jsons/MX_seq23_1_VE250_flipped.json,http://54.235.29.9/FacialAge/BNav_EC2/DepthDuration/MX_fS_VE_MTurk/MX_fS_HTML.html#92,92,1536,738,1536,864,0-31-2024,15-17-6,31,VR_target_stimuli/s53_0.75x_1.6_403.png,250,0.75x,1.6,3,2157,252,feet,jsons/MX_seq23_1_VE250_flipped.json,159288,332494,34,Man
31,989871,final-intermixed-textured,v2,jsons/MX_seq23_1_VE250_flipped.json,http://54.235.29.9/FacialAge/BNav_EC2/DepthDuration/MX_fS_VE_MTurk/MX_fS_HTML.html#92,92,1536,738,1536,864,0-31-2024,15-17-6,32,VR_target_stimuli/s38_1x_3.55_353_BC.png,250,1x,3.55,5,2066,248,feet,jsons/MX_seq23_1_VE250_flipped.json,159288,332494,34,Man
32,989871,final-intermixed-textured,v2,jsons/MX_seq23_1_VE250_flipped.json,http://54.235.29.9/FacialAge/BNav_EC2/DepthDuration/MX_fS_VE_MTurk/MX_fS_HTML.html#92,92,1536,738,1536,864,0-31-2024,15-17-6,33,VR_target_stimuli/s9_1.3x_1.2_276.png,250,1.3x,1.2,5,2001,239,feet,jsons/MX_seq23_1_VE250_flipped.json,159288,332494,34,Man
33,989871,final-intermixed-textured,v2,jsons/MX_seq23_1_VE250_flipped.json,http://54.235.29.9/FacialAge/BNav_EC2/DepthDuration/MX_fS_VE_MTurk/MX_fS_HTML.html#92,92,1536,738,1536,864,0-31-2024,15-17-6,34,catch_stimuli/c3_BC.png,250,,,5,1611,264,feet,jsons/MX_seq23_1_VE250_flipped.json,159288,332494,34,Man
34,989871,final-intermixed-textured,v2,jsons/MX_seq23_1_VE250_flipped.json,http://54.235.29.9/FacialAge/BNav_EC2/DepthDuration/MX_fS_VE_MTurk/MX_fS_HTML.html#92,92,1536,738,1536,864,0-31-2024,15-17-6,35,VR_target_stimuli/s44_1x_4.4_317.png,250,1x,4.4,5,1571,247,feet,jsons/MX_seq23_1_VE250_flipped.json,159288,332494,34,Man
35,989871,final-intermixed-textured,v2,jsons/MX_seq23_1_VE250_flipped.json,http://54.235.29.9/FacialAge/BNav_EC2/DepthDuration/MX_fS_VE_MTurk/MX_fS_HTML.html#92,92,1536,738,1536,864,0-31-2024,15-17-6,36,VR_target_stimuli/s3_0.75x_5_381.png,250,0.75x,5.0,8,1989,244,feet,jsons/MX_seq23_1_VE250_flipped.json,159288,332494,34,Man
36,989871,final-intermixed-textured,v2,jsons/MX_seq23_1_VE250_flipped.json,http://54.235.29.9/FacialAge/BNav_EC2/DepthDuration/MX_fS_VE_MTurk/MX_fS_HTML.html#92,92,1536,738,1536,864,0-31-2024,15-17-6,37,VR_target_stimuli/s1_1.3x_1.7_261_BC.png,250,1.3x,1.7,2,1764,249,feet,jsons/MX_seq23_1_VE250_flipped.json,159288,332494,34,Man
37,989871,final-intermixed-textured,v2,jsons/MX_seq23_1_VE250_flipped.json,http://54.235.29.9/FacialAge/BNav_EC2/DepthDuration/MX_fS_VE_MTurk/MX_fS_HTML.html#92,92,1536,738,1536,864,0-31-2024,15-17-6,38,VR_target_stimuli/s11_1.3x_5_363.png,250,1.3x,5.0,8,1941,236,feet,jsons/MX_seq23_1_VE250_flipped.json,159288,332494,34,Man
38,989871,final-intermixed-textured,v2,jsons/MX_seq23_1_VE250_flipped.json,http://54.235.29.9/FacialAge/BNav_EC2/DepthDuration/MX_fS_VE_MTurk/MX_fS_HTML.html#92,92,1536,738,1536,864,0-31-2024,15-17-6,39,VR_target_stimuli/s2_1x_2.7_390_BC.png,250,1x,2.7,6,2220,249,feet,jsons/MX_seq23_1_VE250_flipped.json,159288,332494,34,Man
39,989871,final-intermixed-textured,v2,jsons/MX_seq23_1_VE250_flipped.json,http://54.235.29.9/FacialAge/BNav_EC2/DepthDuration/MX_fS_VE_MTurk/MX_fS_HTML.html#92,92,1536,738,1536,864,0-31-2024,15-17-6,40,VR_target_stimuli/s6_0.75x_2.1_290_BC.png,250,0.75x,2.1,4,2066,252,feet,jsons/MX_seq23_1_VE250_flipped.json,159288,332494,34,Man
40,989871,final-intermixed-textured,v2,jsons/MX_seq23_1_VE250_flipped.json,http://54.235.29.9/FacialAge/BNav_EC2/DepthDuration/MX_fS_VE_MTurk/MX_fS_HTML.html#92,92,1536,738,1536,864,0-31-2024,15-17-6,41,VR_target_stimuli/s0_1x_2.6_351.png,250,1x,2.6,4,1438,246,feet,jsons/MX_seq23_1_VE250_flipped.json,159288,332494,34,Man
41,989871,final-intermixed-textured,v2,jsons/MX_seq23_1_VE250_flipped.json,http://54.235.29.9/FacialAge/BNav_EC2/DepthDuration/MX_fS_VE_MTurk/MX_fS_HTML.html#92,92,1536,738,1536,864,0-31-2024,15-17-6,42,VR_target_stimuli/s34_1.3x_2.8_294_BC.png,250,1.3x,2.8,4,2052,256,feet,jsons/MX_seq23_1_VE250_flipped.json,159288,332494,34,Man
42,989871,final-intermixed-textured,v2,jsons/MX_seq23_1_VE250_flipped.json,http://54.235.29.9/FacialAge/BNav_EC2/DepthDuration/MX_fS_VE_MTurk/MX_fS_HTML.html#92,92,1536,738,1536,864,0-31-2024,15-17-6,43,VR_target_stimuli/s13_0.75x_2.4_308_BC.png,250,0.75x,2.4,4,1456,242,feet,jsons/MX_seq23_1_VE250_flipped.json,159288,332494,34,Man
43,989871,final-intermixed-textured,v2,jsons/MX_seq23_1_VE250_flipped.json,http://54.235.29.9/FacialAge/BNav_EC2/DepthDuration/MX_fS_VE_MTurk/MX_fS_HTML.html#92,92,1536,738,1536,864,0-31-2024,15-17-6,44,VR_target_stimuli/s14_1.3x_3.83_359.png,250,1.3x,3.83,4,1483,251,feet,jsons/MX_seq23_1_VE250_flipped.json,159288,332494,34,Man
44,989871,final-intermixed-textured,v2,jsons/MX_seq23_1_VE250_flipped.json,http://54.235.29.9/FacialAge/BNav_EC2/DepthDuration/MX_fS_VE_MTurk/MX_fS_HTML.html#92,92,1536,738,1536,864,0-31-2024,15-17-6,45,catch_stimuli/c4_BC.png,250,,,4,1483,251,feet,jsons/MX_seq23_1_VE250_flipped.json,159288,332494,34,Man
45,989871,final-intermixed-textured,v2,jsons/MX_seq23_1_VE250_flipped.json,http://54.235.29.9/FacialAge/BNav_EC2/DepthDuration/MX_fS_VE_MTurk/MX_fS_HTML.html#92,92,1536,738,1536,864,0-31-2024,15-17-6,46,VR_target_stimuli/s47_1x_3.45_370_BC.png,250,1x,3.45,4,1524,248,feet,jsons/MX_seq23_1_VE250_flipped.json,159288,332494,34,Man
46,989871,final-intermixed-textured,v2,jsons/MX_seq23_1_VE250_flipped.json,http://54.235.29.9/FacialAge/BNav_EC2/DepthDuration/MX_fS_VE_MTurk/MX_fS_HTML.html#92,92,1536,738,1536,864,0-31-2024,15-17-6,47,VR_target_stimuli/s29_0.75x_1.3_246.png,250,0.75x,1.3,4,1615,240,feet,jsons/MX_seq23_1_VE250_flipped.json,159288,332494,34,Man
47,989871,final-intermixed-textured,v2,jsons/MX_seq23_1_VE250_flipped.json,http://54.235.29.9/FacialAge/BNav_EC2/DepthDuration/MX_fS_VE_MTurk/MX_fS_HTML.html#92,92,1536,738,1536,864,0-31-2024,15-17-6,48,VR_target_stimuli/s28_0.75x_3.2_357_BC.png,250,0.75x,3.2,7,3850,253,feet,jsons/MX_seq23_1_VE250_flipped.json,159288,332494,34,Man
48,989871,final-intermixed-textured,v2,jsons/MX_seq23_1_VE250_flipped.json,http://54.235.29.9/FacialAge/BNav_EC2/DepthDuration/MX_fS_VE_MTurk/MX_fS_HTML.html#92,92,1536,738,1536,864,0-31-2024,15-17-6,49,VR_target_stimuli/s48_1.3x_2.55_255.png,250,1.3x,2.55,2,2262,245,feet,jsons/MX_seq23_1_VE250_flipped.json,159288,332494,34,Man
49,989871,final-intermixed-textured,v2,jsons/MX_seq23_1_VE250_flipped.json,http://54.235.29.9/FacialAge/BNav_EC2/DepthDuration/MX_fS_VE_MTurk/MX_fS_HTML.html#92,92,1536,738,1536,864,0-31-2024,15-17-6,50,VR_target_stimuli/s19_1x_1.21_263.png,250,1x,1.21,2,1813,263,feet,jsons/MX_seq23_1_VE250_flipped.json,159288,332494,34,Man
50,989871,final-intermixed-textured,v2,jsons/MX_seq23_1_VE250_flipped.json,http://54.235.29.9/FacialAge/BNav_EC2/DepthDuration/MX_fS_VE_MTurk/MX_fS_HTML.html#92,92,1536,738,1536,864,0-31-2024,15-17-6,51,VR_target_stimuli/s21_1.3x_4.22_384_BC.png,250,1.3x,4.22,4,1770,256,feet,jsons/MX_seq23_1_VE250_flipped.json,159288,332494,34,Man
51,989871,final-intermixed-textured,v2,jsons/MX_seq23_1_VE250_flipped.json,http://54.235.29.9/FacialAge/BNav_EC2/DepthDuration/MX_fS_VE_MTurk/MX_fS_HTML.html#92,92,1536,738,1536,864,0-31-2024,15-17-6,52,VR_target_stimuli/s8_0.75x_3.1_325.png,250,0.75x,3.1,6,3070,248,feet,jsons/MX_seq23_1_VE250_flipped.json,159288,332494,34,Man
52,989871,final-intermixed-textured,v2,jsons/MX_seq23_1_VE250_flipped.json,http://54.235.29.9/FacialAge/BNav_EC2/DepthDuration/MX_fS_VE_MTurk/MX_fS_HTML.html#92,92,1536,738,1536,864,0-31-2024,15-17-6,53,catch_stimuli/c5_BC.png,250,,,5,1596,252,feet,jsons/MX_seq23_1_VE250_flipped.json,159288,332494,34,Man
53,989871,final-intermixed-textured,v2,jsons/MX_seq23_1_VE250_flipped.json,http://54.235.29.9/FacialAge/BNav_EC2/DepthDuration/MX_fS_VE_MTurk/MX_fS_HTML.html#92,92,1536,738,1536,864,0-31-2024,15-17-6,54,VR_target_stimuli/s27_1x_1.76_248_BC.png,250,1x,1.76,4,1980,262,feet,jsons/MX_seq23_1_VE250_flipped.json,159288,332494,34,Man
54,989871,final-intermixed-textured,v2,jsons/MX_seq23_1_VE250_flipped.json,http://54.235.29.9/FacialAge/BNav_EC2/DepthDuration/MX_fS_VE_MTurk/MX_fS_HTML.html#92,92,1536,738,1536,864,0-31-2024,15-17-6,55,VR_target_stimuli/s15_0.75x_4.2_388.png,250,0.75x,4.2,8,2758,250,feet,jsons/MX_seq23_1_VE250_flipped.json,159288,332494,34,Man
55,989871,final-intermixed-textured,v2,jsons/MX_seq23_1_VE250_flipped.json,http://54.235.29.9/FacialAge/BNav_EC2/DepthDuration/MX_fS_VE_MTurk/MX_fS_HTML.html#92,92,1536,738,1536,864,0-31-2024,15-17-6,56,VR_target_stimuli/s4_1.3x_1.4_328_BC.png,250,1.3x,1.4,4,2028,250,feet,jsons/MX_seq23_1_VE250_flipped.json,159288,332494,34,Man
56,989871,final-intermixed-textured,v2,jsons/MX_seq23_1_VE250_flipped.json,http://54.235.29.9/FacialAge/BNav_EC2/DepthDuration/MX_fS_VE_MTurk/MX_fS_HTML.html#92,92,1536,738,1536,864,0-31-2024,15-17-6,57,VR_target_stimuli/s35_1x_2_331_BC.png,250,1x,2.0,4,2460,244,feet,jsons/MX_seq23_1_VE250_flipped.json,159288,332494,34,Man
57,989871,final-intermixed-textured,v2,jsons/MX_seq23_1_VE250_flipped.json,http://54.235.29.9/FacialAge/BNav_EC2/DepthDuration/MX_fS_VE_MTurk/MX_fS_HTML.html#92,92,1536,738,1536,864,0-31-2024,15-17-6,58,VR_target_stimuli/s49_1x_4.67_341.png,250,1x,4.67,7,2121,240,feet,jsons/MX_seq23_1_VE250_flipped.json,159288,332494,34,Man
58,989871,final-intermixed-textured,v2,jsons/MX_seq23_1_VE250_flipped.json,http://54.235.29.9/FacialAge/BNav_EC2/DepthDuration/MX_fS_VE_MTurk/MX_fS_HTML.html#92,92,1536,738,1536,864,0-31-2024,15-17-6,59,VR_target_stimuli/s7_0.75x_1.5_253_BC.png,250,0.75x,1.5,7,1446,239,feet,jsons/MX_seq23_1_VE250_flipped.json,159288,332494,34,Man
59,989871,final-intermixed-textured,v2,jsons/MX_seq23_1_VE250_flipped.json,http://54.235.29.9/FacialAge/BNav_EC2/DepthDuration/MX_fS_VE_MTurk/MX_fS_HTML.html#92,92,1536,738,1536,864,0-31-2024,15-17-6,60,VR_target_stimuli/s20_1.3x_4.99_412.png,250,1.3x,4.99,8,1616,249,feet,jsons/MX_seq23_1_VE250_flipped.json,159288,332494,34,Man
